time_stamp before, Acceleration x, Acceleration y, Acceleration z, Gyro x, Gyro y, Gyro z
1494036589.0149610043,       -0.3457031250,        0.3354492188,       -0.0556640625,       34.5764160156,       28.0761718750,     -180.5267333984
1494036589.0273849964,       -0.3457031250,        0.3354492188,       -0.0556640625,       28.9916992188,       27.5726318359,     -176.8035888672
1494036589.0301558971,       -0.3974609375,        0.4223632812,       -0.0830078125,       28.9916992188,       27.5726318359,     -176.8035888672
1494036589.0328559875,       -0.3974609375,        0.4223632812,       -0.0830078125,       20.2484130859,       26.9012451172,     -171.5545654297
1494036589.0355639458,       -0.3974609375,        0.4223632812,       -0.0830078125,       20.2484130859,       26.9012451172,     -171.5545654297
1494036589.0382609367,       -0.3974609375,        0.4223632812,       -0.0830078125,       12.1917724609,       27.0996093750,     -165.4510498047
1494036589.0414490700,       -0.4277343750,        0.6186523438,       -0.0830078125,       12.1917724609,       27.0996093750,     -165.4510498047
1494036589.0441560745,       -0.4277343750,        0.6186523438,       -0.0830078125,        5.7830810547,       27.6947021484,     -159.0728759766
1494036589.0468471050,       -0.4277343750,        0.6186523438,       -0.0830078125,        5.7830810547,       27.6947021484,     -159.0728759766
1494036589.0495328903,       -0.4277343750,        0.7958984375,       -0.0576171875,        0.7629394531,       28.3660888672,     -152.3132324219
1494036589.0522220135,       -0.4189453125,        0.7958984375,       -0.0576171875,        0.7629394531,       28.3660888672,     -152.3132324219
1494036589.0549290180,       -0.4189453125,        0.7958984375,       -0.0576171875,       -2.3956298828,       28.3508300781,     -144.7906494141
1494036589.0576210022,       -0.4189453125,        0.7958984375,       -0.0576171875,       -2.3956298828,       28.3508300781,     -144.7906494141
1494036589.0603170395,       -0.3906250000,        0.9160156250,       -0.0195312500,       -6.6070556641,       27.5268554688,     -136.2304687500
1494036589.0630071163,       -0.3906250000,        0.9160156250,       -0.0195312500,       -6.6070556641,       27.5268554688,     -136.2304687500
1494036589.0655820370,       -0.3906250000,        0.9160156250,       -0.0195312500,      -11.2304687500,       27.1911621094,     -127.5177001953
1494036589.0681440830,       -0.3906250000,        0.9160156250,       -0.0195312500,      -11.2304687500,       27.1911621094,     -127.5177001953
1494036589.0706961155,       -0.3618164062,        0.9809570312,        0.0683593750,      -15.4113769531,       26.7791748047,     -118.6065673828
1494036589.0732469559,       -0.3618164062,        0.9809570312,        0.0683593750,      -15.4113769531,       26.7791748047,     -118.6065673828
1494036589.0758059025,       -0.3618164062,        0.9809570312,        0.0683593750,      -19.3176269531,       26.0162353516,     -108.4594726562
1494036589.0783638954,       -0.3618164062,        0.9809570312,        0.0683593750,      -18.2037353516,       26.0162353516,     -108.4594726562
1494036589.0809330940,       -0.3725585938,        1.0317382812,        0.1586914062,      -18.2037353516,       26.0162353516,      -96.3439941406
1494036589.0836389065,       -0.3725585938,        1.0317382812,        0.1586914062,      -20.6756591797,       24.2156982422,      -96.3439941406
1494036589.0861980915,       -0.3725585938,        1.0317382812,        0.1586914062,      -20.6756591797,       20.3094482422,      -83.4503173828
1494036589.0887579918,       -0.3725585938,        1.0317382812,        0.1586914062,      -23.8647460938,       22.2473144531,      -83.4503173828
1494036589.0913128853,       -0.4111328125,        1.1674804688,        0.2016601562,      -23.8647460938,       22.2473144531,      -70.5413818359
1494036589.0940299034,       -0.4111328125,        1.1674804688,        0.2016601562,      -24.2919921875,       19.8516845703,      -70.5413818359
1494036589.0967350006,       -0.4111328125,        1.1674804688,        0.2016601562,      -24.2919921875,       19.8516845703,      -57.5866699219
1494036589.0995819569,       -0.4111328125,        1.2412109375,        0.2460937500,      -19.8516845703,       16.9067382812,      -57.5866699219
1494036589.1022889614,       -0.4223632812,        1.2412109375,        0.2460937500,      -19.8516845703,       16.9067382812,      -44.7998046875
1494036589.1049089432,       -0.4223632812,        1.2412109375,        0.2460937500,      -13.6566162109,       13.2598876953,      -44.7998046875
1494036589.1074628830,       -0.4223632812,        1.2412109375,        0.2460937500,      -13.6566162109,       13.2598876953,      -44.7998046875
1494036589.1100280285,       -0.4223632812,        1.1811523438,        0.2617187500,       -8.8653564453,        9.3688964844,      -33.1420898438
1494036589.1125800610,       -0.4692382812,        1.1811523438,        0.2617187500,       -8.8653564453,        9.3688964844,      -33.1420898438
1494036589.1153049469,       -0.4692382812,        1.1811523438,        0.2617187500,       -7.8277587891,        6.6680908203,      -22.1405029297
1494036589.1180000305,       -0.4692382812,        1.1811523438,        0.2617187500,       -7.8277587891,        6.6680908203,      -22.1405029297
1494036589.1206920147,       -0.4824218750,        1.1040039062,        0.2211914062,       -8.9721679688,        4.1503906250,      -11.7340087891
1494036589.1234409809,       -0.4824218750,        1.1040039062,        0.2211914062,       -8.9721679688,        4.1503906250,      -11.7340087891
1494036589.1261329651,       -0.4824218750,        1.1040039062,        0.2211914062,      -12.1765136719,        2.5482177734,       -1.9378662109
1494036589.1288249493,       -0.4824218750,        1.1040039062,        0.2211914062,      -12.1765136719,        2.5482177734,       -1.9378662109
1494036589.1315169334,       -0.5590820312,        1.2465820312,        0.3916015625,      -22.7966308594,       -1.5869140625,        7.7819824219
1494036589.1342079639,       -0.5590820312,        1.2465820312,        0.3916015625,      -22.7966308594,       -1.5869140625,        7.7819824219
1494036589.1368958950,       -0.5590820312,        1.2465820312,        0.3916015625,      -28.7628173828,       -9.6282958984,       33.6456298828
1494036589.1395919323,       -0.5590820312,        1.2465820312,        0.4340820312,      -28.7628173828,       -9.6282958984,       33.6456298828
1494036589.1422810555,       -1.1069335938,        2.1694335938,        0.4340820312,      -42.1600341797,      -14.5263671875,       67.1997070312
1494036589.1449959278,       -1.1069335938,        2.1694335938,        0.4340820312,      -42.1600341797,      -14.5263671875,       67.1997070312
1494036589.1476891041,       -1.1069335938,        2.1694335938,        0.4340820312,      -54.3975830078,       -9.4299316406,       74.6612548828
1494036589.1504929066,       -1.6958007812,        1.3105468750,        0.0600585938,      -54.3975830078,       -9.4299316406,       74.6612548828
1494036589.1532080173,       -1.6958007812,        1.3105468750,        0.0600585938,      -50.9033203125,      -10.7574462891,       74.6612548828
1494036589.1557729244,       -1.6958007812,        1.3105468750,        0.0600585938,      -50.9033203125,      -10.7574462891,       74.6612548828
1494036589.1583330631,       -1.6958007812,        1.3105468750,        0.0600585938,      -45.4101562500,       -7.2631835938,       72.9064941406
1494036589.1608910561,       -1.1635742188,       -0.0517578125,       -0.3222656250,      -45.4101562500,       -7.2631835938,       72.9064941406
1494036589.1634941101,       -1.1635742188,       -0.0517578125,       -0.3222656250,      -30.4260253906,       -1.8005371094,       69.9310302734
1494036589.1661889553,       -1.1635742188,       -0.0517578125,       -0.3222656250,      -30.4260253906,       -1.8005371094,       69.9310302734
1494036589.1688818932,       -1.1635742188,       -0.0517578125,       -0.3222656250,      -14.3585205078,       -1.0070800781,       63.3544921875
1494036589.1716899872,       -0.4765625000,       -0.7416992188,       -0.5063476562,      -14.3585205078,       -1.0070800781,       63.3544921875
1494036589.1743919849,       -0.4765625000,       -0.7416992188,       -0.5063476562,       -6.1035156250,        2.0599365234,       52.9479980469
1494036589.1770830154,       -0.4765625000,       -0.7416992188,       -0.5063476562,       -6.1035156250,        2.0599365234,       52.9479980469
1494036589.1797769070,       -0.4765625000,       -0.7416992188,       -0.1313476562,       -7.4005126953,        3.1433105469,       47.3632812500
1494036589.1824729443,       -0.3320312500,       -0.2353515625,       -0.2485351562,       -7.4005126953,        3.1433105469,       47.3632812500
1494036589.1850819588,       -0.3320312500,       -0.2353515625,       -0.2485351562,      -16.6473388672,        1.6784667969,       49.9725341797
1494036589.1876389980,       -0.3320312500,       -0.2353515625,       -0.2485351562,      -16.6473388672,        1.6784667969,       49.9725341797
1494036589.1901929379,       -0.3320312500,       -0.2353515625,        0.0961914062,      -32.9742431641,        0.5187988281,       53.3142089844
1494036589.1927490234,       -0.4111328125,        0.7216796875,        0.0961914062,      -32.9742431641,        0.5187988281,       53.3142089844
1494036589.1954629421,       -0.4111328125,        0.7216796875,        0.0961914062,      -52.5054931641,       -2.6245117188,       55.1605224609
1494036589.1980180740,       -0.4111328125,        0.7216796875,        0.0961914062,      -52.4291992188,       -2.6245117188,       55.1605224609
1494036589.2005720139,       -0.4111328125,        1.3525390625,        0.2900390625,      -52.4291992188,       -6.5307617188,       54.6264648438
1494036589.2031250000,       -0.4443359375,        1.3525390625,        0.2900390625,      -67.3522949219,       -6.9732666016,       54.6264648438
1494036589.2057080269,       -0.4443359375,        1.3525390625,        0.2900390625,      -67.3522949219,       -6.9732666016,       49.8199462891
1494036589.2082629204,       -0.4443359375,        1.3525390625,        0.2900390625,      -68.2373046875,       -8.8348388672,       49.8199462891
1494036589.2108199596,       -0.4443359375,        0.9018554688,        0.0151367188,      -68.2373046875,       -8.8348388672,       49.8199462891
1494036589.2134399414,       -0.3706054688,        0.9018554688,        0.0151367188,      -52.0324707031,      -10.9405517578,       41.1987304688
1494036589.2161400318,       -0.3706054688,        0.9018554688,        0.0151367188,      -52.0324707031,      -10.9405517578,       41.1987304688
1494036589.2188360691,       -0.3706054688,        0.9018554688,        0.0151367188,      -25.2227783203,      -13.8244628906,       33.5388183594
1494036589.2215380669,       -0.5263671875,        0.5703125000,       -0.2465820312,      -25.2227783203,      -13.8244628906,       33.5388183594
1494036589.2242770195,       -0.5263671875,        0.5703125000,       -0.2465820312,       -0.3356933594,      -15.4724121094,       29.9682617188
1494036589.2269721031,       -0.5263671875,        0.5703125000,       -0.2465820312,       -0.3356933594,      -15.4724121094,       29.9682617188
1494036589.2296628952,       -0.5263671875,        0.5703125000,       -0.2465820312,       13.5650634766,      -15.8691406250,       28.2745361328
1494036589.2323570251,       -0.9184570312,        0.5581054688,       -0.1352539062,       13.5650634766,      -15.8691406250,       28.2745361328
1494036589.2350990772,       -0.9184570312,        0.5581054688,       -0.1352539062,       14.9383544922,      -16.6015625000,       23.5290527344
1494036589.2377951145,       -0.9184570312,        0.5581054688,       -0.1352539062,       14.9383544922,      -16.6015625000,       23.5290527344
1494036589.2404949665,       -0.9184570312,        0.5581054688,        0.1079101562,        7.5531005859,      -16.5100097656,       16.2353515625
1494036589.2432000637,       -0.8593750000,        0.5048828125,        0.1079101562,        7.5531005859,      -16.5100097656,       16.2353515625
1494036589.2458720207,       -0.8593750000,        0.5048828125,        0.1079101562,       -0.2899169922,      -14.8620605469,       10.1165771484
1494036589.2486469746,       -0.8593750000,        0.5048828125,        0.1079101562,       -0.2899169922,      -14.8620605469,       10.1165771484
1494036589.2512118816,       -0.8593750000,        0.5463867188,        0.1547851562,       -3.0822753906,      -13.5345458984,        6.7596435547
1494036589.2538509369,       -0.5771484375,        0.5463867188,        0.1547851562,       -3.0822753906,      -13.5345458984,        6.7596435547
1494036589.2565059662,       -0.5771484375,        0.5463867188,        0.1547851562,       -3.3416748047,      -13.4429931641,        3.4027099609
1494036589.2592699528,       -0.5771484375,        0.5463867188,        0.1547851562,       -3.3416748047,      -13.4429931641,        3.4027099609
1494036589.2619359493,       -0.5297851562,        0.5117187500,        0.1298828125,       -2.9449462891,      -11.7187500000,       -0.7781982422
1494036589.2648348808,       -0.5297851562,        0.5117187500,        0.1298828125,       -2.9449462891,      -11.7187500000,       -0.7781982422
1494036589.2675259113,       -0.5297851562,        0.5117187500,        0.1298828125,       -3.3416748047,       -9.9792480469,       -5.4931640625
1494036589.2702090740,       -0.5297851562,        0.5117187500,        0.1298828125,       -3.3416748047,       -9.9792480469,       -5.4931640625
1494036589.2728950977,       -0.6572265625,        0.3950195312,        0.1435546875,       -3.6468505859,       -7.2937011719,       -9.7045898438
1494036589.2755870819,       -0.6572265625,        0.3950195312,        0.1435546875,       -3.6468505859,       -7.2937011719,       -9.7045898438
1494036589.2782750130,       -0.6572265625,        0.3950195312,        0.1435546875,       -4.6539306641,       -5.9814453125,      -12.8784179688
1494036589.2809629440,       -0.6572265625,        0.3950195312,        0.1572265625,       -4.6539306641,       -5.9814453125,      -12.8784179688
1494036589.2836558819,       -0.7299804688,        0.3632812500,        0.1572265625,       -3.7384033203,       -5.0354003906,      -14.9841308594
1494036589.2863500118,       -0.7299804688,        0.3632812500,        0.1572265625,       -3.7384033203,       -5.0354003906,      -14.9841308594
1494036589.2890429497,       -0.7299804688,        0.3632812500,        0.1572265625,        0.6408691406,       -3.6010742188,      -17.1661376953
1494036589.2917349339,       -0.7299804688,        0.4282226562,        0.1420898438,        0.6408691406,       -3.6010742188,      -17.1661376953
1494036589.2944309711,       -0.7080078125,        0.4282226562,        0.1420898438,        5.3405761719,       -2.5024414062,      -20.3704833984
1494036589.2969810963,       -0.7080078125,        0.4282226562,        0.1420898438,        5.3405761719,       -2.5024414062,      -20.3704833984
1494036589.2995259762,       -0.7080078125,        0.4282226562,        0.1420898438,        9.0332031250,       -2.4261474609,      -23.7274169922
1494036589.3020789623,       -0.6386718750,        0.4594726562,        0.1191406250,        9.0332031250,       -2.4261474609,      -23.7274169922
1494036589.3046419621,       -0.6386718750,        0.4594726562,        0.1191406250,       13.4124755859,       -3.0212402344,      -27.5878906250
1494036589.3072049618,       -0.6386718750,        0.4594726562,        0.1191406250,       13.4124755859,       -3.0212402344,      -27.5878906250
1494036589.3097610474,       -0.6386718750,        0.4594726562,        0.1191406250,       17.3187255859,       -3.8146972656,      -30.6701660156
1494036589.3123140335,       -0.6108398438,        0.4047851562,        0.0883789062,       17.0898437500,       -3.8146972656,      -30.6701660156
1494036589.3150959015,       -0.6108398438,        0.4047851562,        0.0883789062,       17.0898437500,       -4.3029785156,      -32.6080322266
1494036589.3176529408,       -0.6108398438,        0.4047851562,        0.0883789062,       22.3999023438,       -4.3029785156,      -32.6080322266
1494036589.3203198910,       -0.6108398438,        0.4047851562,        0.0883789062,       22.3999023438,       -4.3029785156,      -34.8815917969
1494036589.3228850365,       -0.6450195312,        0.4472656250,        0.0390625000,       26.5045166016,       -4.7302246094,      -34.8815917969
1494036589.3256769180,       -0.6450195312,        0.4472656250,        0.0390625000,       26.5045166016,       -4.7302246094,      -37.1551513672
1494036589.3283829689,       -0.6450195312,        0.4472656250,        0.0390625000,       27.2216796875,       -5.5694580078,      -37.1551513672
1494036589.3310799599,       -0.6450195312,        0.4472656250,       -0.0859375000,       27.2216796875,       -5.5694580078,      -38.8641357422
1494036589.3337841034,       -0.6689453125,        0.4501953125,       -0.0727539062,       26.8249511719,       -7.3394775391,      -38.8641357422
1494036589.3364870548,       -0.6689453125,        0.4501953125,       -0.0727539062,       26.8249511719,       -7.3394775391,      -40.2374267578
1494036589.3391799927,       -0.6689453125,        0.4501953125,       -0.0727539062,       26.3671875000,       -9.3841552734,      -40.2374267578
1494036589.3418788910,       -0.6689453125,        0.4165039062,       -0.0502929688,       26.3671875000,       -9.3841552734,      -41.4581298828
1494036589.3445129395,       -0.6635742188,        0.4165039062,       -0.0502929688,       25.8636474609,      -10.7116699219,      -41.4581298828
1494036589.3470740318,       -0.6635742188,        0.4165039062,       -0.0502929688,       25.8636474609,      -10.7116699219,      -41.4581298828
1494036589.3496320248,       -0.6635742188,        0.4165039062,       -0.0502929688,       23.7121582031,      -11.9018554688,      -42.2058105469
1494036589.3521850109,       -0.6635742188,        0.4257812500,       -0.0019531250,       23.7121582031,      -11.9018554688,      -42.2058105469
1494036589.3547968864,       -0.6455078125,        0.4257812500,       -0.0019531250,       22.6440429688,      -13.4429931641,      -42.5262451172
1494036589.3573610783,       -0.6455078125,        0.4257812500,       -0.0019531250,       22.6440429688,      -13.4429931641,      -42.5262451172
1494036589.3599219322,       -0.6455078125,        0.4257812500,       -0.0019531250,       22.9644775391,      -15.3350830078,      -43.1671142578
1494036589.3624889851,       -0.6572265625,        0.4257812500,        0.0385742188,       22.9644775391,      -15.3350830078,      -43.1671142578
1494036589.3651580811,       -0.6572265625,        0.4257812500,        0.0385742188,       23.8494873047,      -16.6015625000,      -44.5098876953
1494036589.3677179813,       -0.6572265625,        0.4257812500,        0.0385742188,       23.8494873047,      -16.6015625000,      -44.5098876953
1494036589.3702778816,       -0.6572265625,        0.4257812500,        0.0385742188,       25.2990722656,      -17.3950195312,      -45.9289550781
1494036589.3728339672,       -0.6455078125,        0.4282226562,        0.0410156250,       25.2990722656,      -17.3950195312,      -45.9289550781
1494036589.3755431175,       -0.6455078125,        0.4282226562,        0.0410156250,       28.1066894531,      -18.0053710938,      -47.5006103516
1494036589.3782451153,       -0.6455078125,        0.4282226562,        0.0410156250,       28.1066894531,      -18.0053710938,      -47.5006103516
1494036589.3811359406,       -0.6455078125,        0.4282226562,        0.0410156250,       30.8074951172,      -18.8293457031,      -48.7518310547
1494036589.3842489719,       -0.6362304688,        0.4360351562,        0.0478515625,       30.8074951172,      -18.8293457031,      -48.7518310547
1494036589.3868169785,       -0.6362304688,        0.4360351562,        0.0478515625,       33.0810546875,      -19.9279785156,      -50.0946044922
1494036589.3893740177,       -0.6362304688,        0.4360351562,        0.0478515625,       33.0810546875,      -19.9279785156,      -50.0946044922
1494036589.3920490742,       -0.6362304688,        0.4360351562,        0.0537109375,       35.8886718750,      -20.4772949219,      -50.7202148438
1494036589.3946499825,       -0.6655273438,        0.4194335938,        0.0537109375,       35.8886718750,      -20.4772949219,      -50.7202148438
1494036589.3972060680,       -0.6655273438,        0.4194335938,        0.0537109375,       38.3148193359,      -19.9279785156,      -51.4984130859
1494036589.3997681141,       -0.6655273438,        0.4194335938,        0.0537109375,       38.3148193359,      -19.9279785156,      -51.4984130859
1494036589.4023230076,       -0.6655273438,        0.2944335938,        0.0488281250,       42.2210693359,      -19.0429687500,      -52.5512695312
1494036589.4049880505,       -0.7011718750,        0.3657226562,        0.0488281250,       41.0919189453,      -19.0429687500,      -52.5512695312
1494036589.4076879025,       -0.7011718750,        0.3657226562,        0.0488281250,       41.0919189453,      -17.6391601562,      -52.9785156250
1494036589.4103860855,       -0.7011718750,        0.3657226562,        0.0488281250,       42.2821044922,      -17.6391601562,      -52.9785156250
1494036589.4130880833,       -0.7070312500,        0.3330078125,        0.0776367188,       42.2821044922,      -16.0980224609,      -53.1768798828
1494036589.4156579971,       -0.7070312500,        0.3330078125,        0.0776367188,       42.0379638672,      -16.0980224609,      -53.1768798828
1494036589.4182140827,       -0.7070312500,        0.3330078125,        0.0776367188,       42.0379638672,      -16.0980224609,      -53.8177490234
1494036589.4207730293,       -0.7070312500,        0.3330078125,        0.0776367188,       40.7257080078,      -15.2587890625,      -53.8177490234
1494036589.4233310223,       -0.7006835938,        0.3046875000,        0.1044921875,       40.7257080078,      -15.2587890625,      -53.8177490234
1494036589.4258880615,       -0.7006835938,        0.3046875000,        0.1044921875,       39.9169921875,      -13.8397216797,      -53.3752441406
1494036589.4284420013,       -0.7006835938,        0.3046875000,        0.1044921875,       39.9169921875,      -13.8397216797,      -53.3752441406
1494036589.4310009480,       -0.7006835938,        0.3046875000,        0.1044921875,       39.7491455078,      -11.7187500000,      -53.2836914062
1494036589.4336659908,       -0.6875000000,        0.2475585938,        0.1210937500,       39.7491455078,      -11.7187500000,      -53.2836914062
1494036589.4362349510,       -0.6875000000,        0.2475585938,        0.1210937500,       39.0319824219,      -10.1013183594,      -52.4902343750
1494036589.4387938976,       -0.6875000000,        0.2475585938,        0.1210937500,       39.0319824219,      -10.1013183594,      -52.4902343750
1494036589.4413549900,       -0.6875000000,        0.2475585938,        0.1210937500,       37.4908447266,       -8.3770751953,      -51.4373779297
1494036589.4440679550,       -0.6728515625,        0.1953125000,        0.1069335938,       37.4908447266,       -8.3770751953,      -51.4373779297
1494036589.4467709064,       -0.6728515625,        0.1953125000,        0.1069335938,       35.3698730469,       -7.4768066406,      -50.0488281250
1494036589.4494659901,       -0.6728515625,        0.1953125000,        0.1069335938,       35.3698730469,       -7.4768066406,      -50.0488281250
1494036589.4521589279,       -0.6728515625,        0.1953125000,        0.1069335938,       32.3181152344,       -6.2713623047,      -48.4313964844
1494036589.4548990726,       -0.6772460938,        0.1958007812,        0.0971679688,       32.3181152344,       -6.2713623047,      -48.4313964844
1494036589.4576029778,       -0.6772460938,        0.1958007812,        0.0971679688,       28.5034179688,       -4.9133300781,      -47.2564697266
1494036589.4603021145,       -0.6772460938,        0.1958007812,        0.0971679688,       28.5034179688,       -4.9133300781,      -47.2564697266
1494036589.4630010128,       -0.6772460938,        0.1796875000,        0.0903320312,       24.2767333984,       -3.9062500000,      -46.9360351562
1494036589.4658188820,       -0.6840820312,        0.1796875000,        0.0903320312,       24.2767333984,       -3.9062500000,      -46.9360351562
1494036589.4685220718,       -0.6840820312,        0.1796875000,        0.0903320312,       20.1873779297,       -2.6397705078,      -47.0275878906
1494036589.4712200165,       -0.6840820312,        0.1796875000,        0.0903320312,       20.1873779297,       -2.6397705078,      -47.0275878906
1494036589.4739010334,       -0.6728515625,        0.1972656250,        0.0991210938,       16.0369873047,       -1.1901855469,      -45.8831787109
1494036589.4764590263,       -0.6728515625,        0.1972656250,        0.0991210938,       16.0369873047,       -1.1901855469,      -45.8831787109
1494036589.4790160656,       -0.6728515625,        0.1972656250,        0.0991210938,       12.7258300781,       -0.1068115234,      -42.7703857422
1494036589.4815750122,       -0.6728515625,        0.1972656250,        0.0991210938,       12.7258300781,       -0.1068115234,      -42.7703857422
1494036589.4843010902,       -0.6298828125,        0.2109375000,        0.1064453125,        8.4838867188,       -0.2746582031,      -39.5355224609
1494036589.4868619442,       -0.6298828125,        0.2109375000,        0.1064453125,        8.4838867188,       -0.2746582031,      -39.5355224609
1494036589.4894208908,       -0.6298828125,        0.2109375000,        0.1064453125,        0.6713867188,        0.6256103516,      -36.4837646484
1494036589.4919729233,       -0.6298828125,        0.2109375000,        0.1064453125,        3.7841796875,        0.6256103516,      -36.4837646484
1494036589.4946119785,       -0.6289062500,        0.1640625000,        0.0322265625,        3.7841796875,        2.3651123047,      -33.2794189453
1494036589.4973099232,       -0.6289062500,        0.1640625000,        0.0322265625,        2.6397705078,        2.3651123047,      -33.2794189453
1494036589.5001549721,       -0.6289062500,        0.1640625000,        0.0322265625,        2.6397705078,        2.6245117188,      -28.3966064453
1494036589.5032699108,       -0.6289062500,        0.1640625000,        0.0078125000,        3.0975341797,        2.6245117188,      -28.3966064453
1494036589.5059719086,       -0.6625976562,        0.1259765625,        0.0078125000,        2.3498535156,        3.1127929688,      -23.2238769531
1494036589.5086669922,       -0.6625976562,        0.1259765625,        0.0078125000,        2.3498535156,        3.1127929688,      -23.2238769531
1494036589.5113639832,       -0.6625976562,        0.1259765625,        0.0078125000,       -0.4730224609,        5.0964355469,      -18.4936523438
1494036589.5140779018,       -0.7377929688,        0.0776367188,        0.0136718750,       -0.4730224609,        5.0964355469,      -18.4936523438
1494036589.5167760849,       -0.7377929688,        0.0776367188,        0.0136718750,       -3.4484863281,        7.1258544922,      -13.8702392578
1494036589.5194740295,       -0.7377929688,        0.0776367188,        0.0136718750,       -3.4484863281,        7.1258544922,      -13.8702392578
1494036589.5221629143,       -0.7377929688,        0.0776367188,        0.0136718750,       -3.8604736328,        7.7362060547,       -8.8043212891
1494036589.5248670578,       -0.7866210938,        0.0800781250,       -0.0307617188,       -3.8604736328,        7.7362060547,       -8.8043212891
1494036589.5275580883,       -0.7866210938,        0.0800781250,       -0.0307617188,       -2.5482177734,        8.8043212891,       -4.1351318359
1494036589.5302460194,       -0.7866210938,        0.0800781250,       -0.0307617188,       -2.5482177734,        8.8043212891,       -4.1351318359
1494036589.5329439640,       -0.7866210938,        0.0800781250,       -0.0307617188,       -2.5482177734,       10.0097656250,        0.5798339844
1494036589.5355489254,       -0.7817382812,        0.1772460938,       -0.0483398438,       -1.4190673828,       10.0097656250,        0.5798339844
1494036589.5380969048,       -0.7817382812,        0.1772460938,       -0.0483398438,       -1.4190673828,       10.0097656250,        4.9743652344
1494036589.5407619476,       -0.7817382812,        0.1772460938,       -0.0483398438,        1.1901855469,        9.5520019531,        4.9743652344
1494036589.5433061123,       -0.7817382812,        0.1772460938,       -0.0512695312,        1.1901855469,        9.5520019531,        8.8806152344
1494036589.5458629131,       -0.7041015625,        0.1767578125,       -0.0512695312,        5.2337646484,        7.1411132812,        8.8806152344
1494036589.5484120846,       -0.7041015625,        0.1767578125,       -0.0512695312,        5.2337646484,        7.1411132812,       12.7868652344
1494036589.5509650707,       -0.7041015625,        0.1767578125,       -0.0512695312,        9.3383789062,        2.9907226562,       13.1072998047
1494036589.5537168980,       -0.7041015625,        0.3017578125,       -0.0922851562,        9.3383789062,        2.9907226562,       13.1072998047
1494036589.5562860966,       -0.6899414062,        0.3076171875,       -0.0922851562,       13.6413574219,       -0.1678466797,       16.8609619141
1494036589.5588450432,       -0.6899414062,        0.3076171875,       -0.0922851562,       13.6413574219,       -0.1678466797,       16.8609619141
1494036589.5614058971,       -0.6899414062,        0.3076171875,       -0.0922851562,       20.0958251953,       -2.3651123047,       19.4702148438
1494036589.5640220642,       -0.6899414062,        0.1870117188,       -0.0898437500,       20.0958251953,       -2.3651123047,       19.4702148438
1494036589.5667281151,       -0.7656250000,        0.1870117188,       -0.0898437500,       26.4282226562,       -3.9672851562,       22.2778320312
1494036589.5694229603,       -0.7656250000,        0.1870117188,       -0.0898437500,       26.4282226562,       -3.9672851562,       22.2778320312
1494036589.5721199512,       -0.7656250000,        0.1870117188,       -0.0898437500,       26.0467529297,       -5.4321289062,       25.6500244141
1494036589.5747830868,       -0.7993164062,        0.0068359375,       -0.0498046875,       26.0467529297,       -5.4321289062,       25.6500244141
1494036589.5773429871,       -0.7993164062,        0.0068359375,       -0.0498046875,       22.3236083984,       -6.4392089844,       28.8848876953
1494036589.5798969269,       -0.7993164062,        0.0068359375,       -0.0498046875,       22.3236083984,       -6.4392089844,       28.8848876953
1494036589.5824561119,       -0.7993164062,        0.0068359375,       -0.0498046875,       17.3339843750,       -6.6528320312,       31.8145751953
1494036589.5851249695,       -0.7802734375,        0.1879882812,       -0.0302734375,       17.3339843750,       -6.6528320312,       31.8145751953
1494036589.5878241062,       -0.7802734375,        0.1879882812,       -0.0302734375,       12.4969482422,       -5.6915283203,       34.1491699219
1494036589.5905199051,       -0.7802734375,        0.1879882812,       -0.0302734375,       12.4969482422,       -5.6915283203,       34.1491699219
1494036589.5932190418,       -0.7802734375,        0.1879882812,       -0.0302734375,       10.9252929688,       -3.1890869141,       34.0118408203
1494036589.5957779884,       -0.8178710938,        0.2812500000,        0.0322265625,       10.9252929688,       -3.1890869141,       34.0118408203
1494036589.5983319283,       -0.8178710938,        0.2812500000,        0.0322265625,       10.9252929688,        0.4882812500,       31.8450927734
1494036589.6008861065,       -0.8178710938,        0.2812500000,        0.0322265625,       10.9710693359,        0.4882812500,       31.8450927734
1494036589.6035120487,       -0.8178710938,        0.2812500000,        0.0322265625,       10.9710693359,        2.9144287109,       28.8543701172
1494036589.6062140465,       -0.7807617188,        0.3876953125,        0.1318359375,       12.5579833984,        2.9144287109,       28.8543701172
1494036589.6089119911,       -0.7807617188,        0.3876953125,        0.1318359375,       12.5579833984,        2.6702880859,       26.1383056641
1494036589.6117150784,       -0.7807617188,        0.3876953125,        0.1318359375,       19.8669433594,        2.6702880859,       26.1383056641
1494036589.6145770550,       -0.7807617188,        0.6030273438,        0.1411132812,       23.7731933594,        3.9520263672,       22.2015380859
1494036589.6172389984,       -0.7880859375,        0.6030273438,        0.1411132812,       27.1453857422,        3.9520263672,       22.2015380859
1494036589.6201388836,       -0.7880859375,        0.6030273438,        0.1411132812,       34.1491699219,        6.2408447266,       17.4865722656
1494036589.6232719421,       -0.7880859375,        0.6030273438,        0.1411132812,       34.1491699219,        6.2408447266,       17.4865722656
1494036589.6258330345,       -0.8417968750,        0.4853515625,        0.0556640625,       43.2891845703,        7.2326660156,       13.6718750000
1494036589.6283919811,       -0.8417968750,        0.4853515625,        0.0556640625,       43.2891845703,        7.2326660156,       13.6718750000
1494036589.6309499741,       -0.8417968750,        0.4853515625,        0.0556640625,       47.1954345703,        9.3078613281,       10.6048583984
1494036589.6336500645,       -0.8417968750,        0.4853515625,        0.0556640625,       49.7894287109,        9.3078613281,       10.6048583984
1494036589.6363170147,       -0.8994140625,        0.3198242188,        0.0683593750,       49.7894287109,       11.6729736328,        7.7514648438
1494036589.6389710903,       -0.8994140625,        0.3198242188,        0.0683593750,       48.3551025391,       11.6729736328,        7.7514648438
1494036589.6416249275,       -0.8994140625,        0.3198242188,        0.0683593750,       48.3551025391,       12.6037597656,        5.0354003906
1494036589.6443259716,       -0.8994140625,        0.3198242188,        0.0209960938,       43.1671142578,       12.6037597656,        5.0354003906
1494036589.6470251083,       -0.9033203125,        0.4028320312,        0.0209960938,       43.1671142578,       12.3138427734,        2.1820068359
1494036589.6497280598,       -0.9033203125,        0.4028320312,        0.0209960938,       37.2924804688,       12.3138427734,        2.1820068359
1494036589.6524310112,       -0.9033203125,        0.4028320312,        0.0209960938,       37.2924804688,       12.3138427734,       -0.5950927734
1494036589.6550440788,       -0.9033203125,        0.4667968750,        0.0053710938,       35.0036621094,       12.6953125000,       -0.5950927734
1494036589.6576011181,       -0.9960937500,        0.4667968750,        0.0053710938,       35.0036621094,       12.6953125000,       -3.0975341797
1494036589.6601579189,       -0.9960937500,        0.4667968750,        0.0053710938,       38.6047363281,       11.8103027344,       -3.0975341797
1494036589.6627130508,       -0.9960937500,        0.4667968750,        0.0053710938,       38.6047363281,       11.8103027344,       -7.0037841797
1494036589.6652801037,       -1.1533203125,        0.4023437500,        0.0209960938,       43.7469482422,        9.9639892578,       -5.2642822266
1494036589.6678340435,       -1.1533203125,        0.4023437500,        0.0209960938,       43.7469482422,        9.9639892578,       -5.2642822266
1494036589.6703820229,       -1.1533203125,        0.4023437500,        0.0209960938,       49.9420166016,        8.3465576172,       -7.0343017578
1494036589.6729400158,       -1.1533203125,        0.4023437500,        0.0209960938,       49.9420166016,        8.3465576172,       -7.0343017578
1494036589.6756560802,       -1.3437500000,        0.3076171875,        0.0585937500,       59.3872070312,        4.0130615234,       -8.0261230469
1494036589.6782081127,       -1.3437500000,        0.3076171875,        0.0585937500,       59.3872070312,        4.0130615234,       -8.0261230469
1494036589.6807560921,       -1.3437500000,        0.3076171875,        0.0585937500,       67.7032470703,       -1.1291503906,       -9.1857910156
1494036589.6833939552,       -1.3437500000,        0.3076171875,        0.0585937500,       67.7032470703,       -1.1291503906,       -8.6517333984
1494036589.6876709461,       -1.5771484375,        0.1831054688,       -0.1005859375,       70.3125000000,       -4.1656494141,       -8.6517333984
1494036589.6913440228,       -1.5771484375,        0.1831054688,       -0.1005859375,       73.4405517578,       -4.0740966797,       -6.1492919922
1494036589.6946899891,       -1.5771484375,        0.1831054688,       -0.2304687500,       73.4405517578,       -4.0740966797,       -6.1492919922
1494036589.6973760128,       -1.7841796875,        0.0805664062,       -0.2304687500,       79.7424316406,       -2.8991699219,       -3.6163330078
1494036589.7000501156,       -1.7841796875,        0.0805664062,       -0.2304687500,       79.7424316406,       -2.8991699219,       -3.6163330078
1494036589.7027289867,       -1.7841796875,        0.0805664062,       -0.2304687500,       85.3424072266,       -2.1362304688,       -1.3427734375
1494036589.7054710388,       -1.7841796875,       -0.0678710938,       -0.2231445312,       85.3424072266,       -2.1362304688,       -1.3427734375
1494036589.7081449032,       -1.7939453125,       -0.0678710938,       -0.2231445312,       86.7614746094,       -2.8381347656,        2.5634765625
1494036589.7108230591,       -1.7939453125,       -0.0678710938,       -0.2231445312,       86.7614746094,       -2.8381347656,        2.5634765625
1494036589.7135009766,       -1.7939453125,       -0.0678710938,       -0.2231445312,       88.8824462891,       -4.9133300781,        8.4533691406
1494036589.7161700726,       -1.6918945312,       -0.3496093750,       -0.2690429688,       88.8824462891,       -4.9133300781,        8.4533691406
1494036589.7188460827,       -1.6918945312,       -0.3496093750,       -0.2690429688,       96.5881347656,       -7.7056884766,       13.0462646484
1494036589.7215249538,       -1.6918945312,       -0.3496093750,       -0.2690429688,       96.5881347656,       -7.7056884766,       13.0462646484
1494036589.7242560387,       -1.6918945312,       -0.3496093750,       -0.2690429688,      102.0202636719,       -9.1552734375,       18.0511474609
1494036589.7269320488,       -1.4848632812,       -0.5039062500,       -0.2114257812,      102.0202636719,       -9.1552734375,       18.0511474609
1494036589.7296109200,       -1.4848632812,       -0.5039062500,       -0.2114257812,      101.0589599609,       -9.3841552734,       25.6500244141
1494036589.7322940826,       -1.4848632812,       -0.5039062500,       -0.2114257812,      101.0589599609,       -9.3841552734,       25.6500244141
1494036589.7349851131,       -1.4848632812,       -0.5039062500,       -0.0068359375,       93.7805175781,       -6.7596435547,       35.2020263672
1494036589.7376658916,       -1.3706054688,       -0.8168945312,       -0.0068359375,       93.7805175781,       -6.7596435547,       35.2020263672
1494036589.7406640053,       -1.3706054688,       -0.8168945312,       -0.0068359375,       75.8972167969,       -0.7781982422,       46.8597412109
1494036589.7437200546,       -1.3706054688,       -0.8168945312,       -0.0068359375,       75.8972167969,       -0.7781982422,       46.8597412109
1494036589.7464289665,       -1.2934570312,       -0.8198242188,        0.1430664062,       47.9431152344,        7.5683593750,       63.8580322266
1494036589.7491240501,       -1.2934570312,       -0.8198242188,        0.1430664062,       47.9431152344,        7.5683593750,       63.8580322266
1494036589.7518210411,       -1.2934570312,       -0.8198242188,        0.1430664062,       12.1459960938,       16.0522460938,       92.4224853516
1494036589.7545349598,       -1.2934570312,       -0.8198242188,        0.1430664062,       12.1459960938,       16.0522460938,       92.4224853516
1494036589.7572350502,       -1.3364257812,       -0.0200195312,        0.3564453125,      -34.2254638672,       19.3481445312,      131.2561035156
1494036589.7599370480,       -1.3364257812,       -0.0200195312,        0.3564453125,      -34.2254638672,       19.3481445312,      131.2561035156
1494036589.7626390457,       -1.3364257812,       -0.0200195312,        0.3564453125,      -83.7707519531,       16.8151855469,      171.4477539062
1494036589.7654550076,       -1.3364257812,       -0.0200195312,        0.5092773438,      -83.7707519531,       16.8151855469,      171.4477539062
1494036589.7681620121,       -1.7348632812,        0.6450195312,        0.5092773438,     -120.1171875000,        9.8724365234,      205.6732177734
1494036589.7708609104,       -1.7348632812,        0.6450195312,        0.5092773438,     -120.1171875000,        9.8724365234,      205.6732177734
1494036589.7735540867,       -1.7348632812,        0.6450195312,        0.5092773438,     -130.4168701172,        6.9274902344,      242.6300048828
1494036589.7761099339,       -2.3598632812,        1.8847656250,        0.2915039062,     -130.4168701172,        6.9274902344,      242.6300048828
1494036589.7786650658,       -2.2705078125,        1.8847656250,        0.2915039062,     -138.0004882812,       12.6800537109,      288.4521484375
1494036589.7812249660,       -2.2705078125,        1.8847656250,        0.2915039062,     -138.0004882812,       12.6800537109,      288.4521484375
1494036589.7837851048,       -2.2705078125,        1.8847656250,        0.2915039062,     -137.5122070312,       18.9208984375,      325.6530761719
1494036589.7863430977,       -2.5205078125,        2.5317382812,        0.3964843750,     -137.5122070312,       18.9208984375,      325.6530761719
1494036589.7889049053,       -2.5278320312,        2.5317382812,        0.3964843750,     -114.2120361328,       13.1988525391,      339.2181396484
1494036589.7914619446,       -2.5278320312,        2.5317382812,        0.3964843750,     -114.2120361328,       13.1988525391,      339.2181396484
1494036589.7941789627,       -2.5278320312,        2.5317382812,        0.3964843750,      -67.3370361328,        1.7700195312,      340.4083251953
1494036589.7967340946,       -2.6362304688,        1.9184570312,        0.3740234375,      -66.7724609375,        1.7700195312,      340.4083251953
1494036589.7992849350,       -2.6362304688,        1.9184570312,        0.3740234375,      -66.7724609375,       -6.0424804688,      349.0142822266
1494036589.8018429279,       -2.6362304688,        1.9184570312,        0.3740234375,      -16.1895751953,       -5.2795410156,      349.0142822266
1494036589.8045940399,       -2.6362304688,        1.9184570312,        0.3740234375,      -16.1895751953,       -5.2795410156,      362.3657226562
1494036589.8072779179,       -2.4213867188,        1.4003906250,        0.3442382812,       -7.5225830078,       -7.2631835938,      362.3657226562
1494036589.8099570274,       -2.4213867188,        1.4003906250,        0.3442382812,       -7.5225830078,       -7.2631835938,      364.6697998047
1494036589.8126320839,       -2.4213867188,        1.4003906250,        0.3442382812,      -17.8527832031,       -4.4555664062,      364.6697998047
1494036589.8153231144,       -2.4213867188,        1.4003906250,        0.3442382812,      -17.8527832031,       -4.4555664062,      354.7363281250
1494036589.8180010319,       -2.2832031250,        0.7099609375,        0.2436523438,      -10.2539062500,       -0.3204345703,      354.7363281250
1494036589.8206839561,       -2.2832031250,        0.7099609375,        0.2436523438,      -10.2539062500,       -0.3204345703,      341.5069580078
1494036589.8234260082,       -2.2832031250,        0.7099609375,        0.2436523438,        1.6937255859,        5.8746337891,      341.5069580078
1494036589.8261060715,       -2.2832031250,        0.4599609375,        0.1098632812,        1.6937255859,        5.8746337891,      330.9326171875
1494036589.8287820816,       -2.1826171875,        0.4794921875,        0.1098632812,        3.2348632812,       13.0920410156,      330.9326171875
1494036589.8314719200,       -2.1826171875,        0.4794921875,        0.1098632812,        3.2348632812,       13.0920410156,      323.1201171875
1494036589.8341660500,       -2.1826171875,        0.4794921875,        0.1098632812,       -3.7384033203,       16.7694091797,      320.5718994141
1494036589.8369588852,       -1.9599609375,        0.2148437500,        0.0771484375,       -3.7384033203,       16.7694091797,      304.9468994141
1494036589.8396430016,       -1.9599609375,        0.2148437500,        0.0771484375,      -11.5661621094,       16.1590576172,      305.1147460938
1494036589.8423299789,       -1.9599609375,        0.2148437500,        0.0771484375,      -11.5661621094,       16.1590576172,      285.5834960938
1494036589.8450670242,       -1.9599609375,        0.2148437500,        0.0771484375,      -19.8669433594,       12.4206542969,      286.4990234375
1494036589.8477571011,       -1.4814453125,       -0.1494140625,        0.0712890625,      -19.8669433594,       12.4206542969,      266.9677734375
1494036589.8504469395,       -1.4814453125,       -0.1494140625,        0.0712890625,      -30.0903320312,        7.0953369141,      268.2800292969
1494036589.8531339169,       -1.4814453125,       -0.1494140625,        0.0712890625,      -30.0903320312,        7.0953369141,      248.7487792969
1494036589.8558619022,       -1.4814453125,       -0.1494140625,        0.0712890625,      -41.3513183594,        3.4179687500,      247.2076416016
1494036589.8585469723,       -0.9414062500,       -0.6513671875,        0.0297851562,      -41.3513183594,        3.4179687500,      219.8638916016
1494036589.8614189625,       -0.9414062500,       -0.6513671875,        0.0297851562,      -52.4444580078,        0.5493164062,      222.6104736328
1494036589.8642749786,       -0.9414062500,       -0.6513671875,        0.0297851562,      -52.4444580078,        0.5493164062,      194.5343017578
1494036589.8669879436,       -0.4414062500,       -0.9580078125,       -0.0185546875,      -61.2030029297,       -2.6397705078,      194.5343017578
1494036589.8696849346,       -0.4638671875,       -0.9580078125,       -0.0185546875,      -61.2030029297,       -2.6397705078,      168.0145263672
1494036589.8723840714,       -0.4638671875,       -0.9580078125,       -0.0185546875,      -68.8171386719,       -5.9356689453,      168.0145263672
1494036589.8750948906,       -0.4638671875,       -0.9580078125,       -0.0185546875,      -68.8171386719,       -5.9356689453,      145.2941894531
1494036589.8777909279,       -0.0288085938,       -1.1259765625,       -0.0820312500,      -75.7751464844,      -10.9710693359,      145.2941894531
1494036589.8804960251,       -0.0288085938,       -1.1259765625,       -0.0820312500,      -75.7751464844,      -10.9710693359,      121.8566894531
1494036589.8832058907,       -0.0288085938,       -1.1259765625,       -0.0820312500,      -81.4514160156,      -16.7083740234,      122.3602294922
1494036589.8859050274,       -0.0288085938,       -1.1259765625,       -0.0820312500,      -81.4514160156,      -16.7083740234,       95.0164794922
1494036589.8886079788,        0.0703125000,       -1.2031250000,       -0.0981445312,      -85.5255126953,      -21.6522216797,       97.5036621094
1494036589.8913049698,        0.0703125000,       -1.2031250000,       -0.0981445312,      -85.5255126953,      -21.6522216797,       74.0661621094
1494036589.8939690590,        0.0703125000,       -1.2031250000,       -0.0981445312,      -85.2050781250,      -24.7497558594,       73.3489990234
1494036589.8965289593,        0.0703125000,       -1.2031250000,       -0.0751953125,      -85.2050781250,      -24.7497558594,       73.3489990234
1494036589.8990869522,       -0.0664062500,       -1.1040039062,       -0.0751953125,      -81.3140869141,      -26.5960693359,       48.3703613281
1494036589.9016520977,       -0.0664062500,       -1.1040039062,       -0.0751953125,      -81.3140869141,      -26.5960693359,       48.3703613281
1494036589.9042689800,       -0.0664062500,       -1.1040039062,       -0.0751953125,      -75.1953125000,      -28.4576416016,       23.2849121094
1494036589.9068219662,       -0.0664062500,       -1.1040039062,       -0.0703125000,      -75.1953125000,      -28.4576416016,       23.2849121094
1494036589.9093859196,       -0.0805664062,       -0.9931640625,       -0.0703125000,      -69.1833496094,      -30.5938720703,       -2.0141601562
1494036589.9120519161,       -0.0805664062,       -0.9931640625,       -0.0703125000,      -69.1833496094,      -30.5938720703,       -2.0141601562
1494036589.9147620201,       -0.0805664062,       -0.9931640625,       -0.0703125000,      -65.7196044922,      -31.8908691406,      -27.6336669922
1494036589.9173259735,       -0.0805664062,       -0.9858398438,       -0.1284179688,      -65.7196044922,      -31.8908691406,      -27.6336669922
1494036589.9198811054,        0.0541992188,       -0.9858398438,       -0.1284179688,      -63.3850097656,      -31.3568115234,      -53.0700683594
1494036589.9224429131,        0.0541992188,       -0.9858398438,       -0.1284179688,      -63.3850097656,      -31.3568115234,      -53.0700683594
1494036589.9252169132,        0.0541992188,       -0.9858398438,       -0.1284179688,      -62.2100830078,      -28.9916992188,      -77.7435302734
1494036589.9279129505,        0.1572265625,       -1.0185546875,       -0.1464843750,      -62.2100830078,      -28.9916992188,      -77.7435302734
1494036589.9306130409,        0.1572265625,       -1.0185546875,       -0.1464843750,      -62.0727539062,      -25.6805419922,     -101.3488769531
1494036589.9333178997,        0.1572265625,       -1.0185546875,       -0.1464843750,      -62.0727539062,      -25.6805419922,     -101.3488769531
1494036589.9360148907,        0.1572265625,       -1.0185546875,       -0.1464843750,      -62.8051757812,      -23.0865478516,     -123.7182617188
1494036589.9387199879,        0.1616210938,       -1.0249023438,       -0.1323242188,      -62.8051757812,      -23.0865478516,     -123.7182617188
1494036589.9414200783,        0.1616210938,       -1.0249023438,       -0.1323242188,      -64.1937255859,      -19.8974609375,     -144.6075439453
1494036589.9441349506,        0.1616210938,       -1.0249023438,       -0.1323242188,      -64.1937255859,      -19.8974609375,     -144.6075439453
1494036589.9468319416,        0.1616210938,       -1.0249023438,       -0.1323242188,      -65.0939941406,      -16.3116455078,     -165.0695800781
1494036589.9495298862,        0.1347656250,       -0.9018554688,       -0.1362304688,      -65.0939941406,      -16.3116455078,     -165.0695800781
1494036589.9522299767,        0.1347656250,       -0.9018554688,       -0.1362304688,      -64.0869140625,      -12.4969482422,     -184.0667724609
1494036589.9548571110,        0.1347656250,       -0.9018554688,       -0.1362304688,      -64.0869140625,      -12.4969482422,     -184.0667724609
1494036589.9574170113,        0.1347656250,       -0.6518554688,       -0.1313476562,      -64.0869140625,       -9.0789794922,     -201.8127441406
1494036589.9599709511,        0.1401367188,       -0.7343750000,       -0.1313476562,      -61.7370605469,       -9.0789794922,     -201.8127441406
1494036589.9625229836,        0.1401367188,       -0.7343750000,       -0.1313476562,      -61.7370605469,       -5.1727294922,     -218.0938720703
1494036589.9652049541,        0.1401367188,       -0.7343750000,       -0.1313476562,      -58.0749511719,       -6.0119628906,     -218.0938720703
1494036589.9678990841,        0.1401367188,       -0.6259765625,       -0.1176757812,      -58.0749511719,       -6.0119628906,     -233.8256835938
1494036589.9705910683,        0.1391601562,       -0.6259765625,       -0.1176757812,      -52.7801513672,       -2.3651123047,     -233.8256835938
1494036589.9733030796,        0.1391601562,       -0.6259765625,       -0.1176757812,      -52.7801513672,       -2.3651123047,     -248.5961914062
1494036589.9760060310,        0.1391601562,       -0.6259765625,       -0.1176757812,      -44.6472167969,        0.7934570312,     -248.5961914062
1494036589.9787039757,        0.1577148438,       -0.4228515625,       -0.0717773438,      -44.6472167969,        0.7934570312,     -263.6566162109
1494036589.9816319942,        0.1577148438,       -0.4228515625,       -0.0717773438,      -32.5622558594,        3.5095214844,     -263.6566162109
1494036589.9846589565,        0.1577148438,       -0.4228515625,       -0.0717773438,      -16.9372558594,        5.3710937500,     -275.8636474609
1494036589.9874720573,        0.1577148438,       -0.4228515625,       -0.0751953125,      -17.2882080078,        5.3710937500,     -275.8636474609
1494036589.9901690483,        0.1914062500,       -0.2675781250,       -0.0751953125,       -1.6632080078,        6.2408447266,     -284.8358154297
1494036589.9928650856,        0.1914062500,       -0.2675781250,       -0.0751953125,       -2.4261474609,        6.2408447266,     -284.8358154297
1494036589.9955689907,        0.1914062500,       -0.2675781250,       -0.0751953125,        9.2926025391,        6.1340332031,     -292.4499511719
1494036589.9982619286,        0.1914062500,       -0.2075195312,       -0.0732421875,        9.0789794922,        6.1340332031,     -292.4499511719
1494036590.0009610653,        0.1997070312,       -0.2075195312,       -0.0732421875,       12.9852294922,        6.3171386719,     -298.9044189453
1494036590.0036540031,        0.1997070312,       -0.2075195312,       -0.0732421875,       15.5487060547,        6.3171386719,     -298.9044189453
1494036590.0062038898,        0.1997070312,       -0.2075195312,       -0.0732421875,       15.5487060547,       10.2233886719,     -304.6112060547
1494036590.0087609291,        0.2016601562,       -0.1147460938,       -0.1152343750,       18.4173583984,        8.5449218750,     -304.6112060547
1494036590.0113139153,        0.2016601562,       -0.1147460938,       -0.1152343750,       18.4173583984,        8.5449218750,     -305.4351806641
1494036590.0138869286,        0.2016601562,       -0.1147460938,       -0.1152343750,       18.7530517578,       10.2081298828,     -305.4351806641
1494036590.0164489746,        0.2016601562,       -0.1147460938,       -0.1152343750,       18.7530517578,       10.2081298828,     -305.4351806641
1494036590.0190079212,        0.1630859375,        0.1328125000,       -0.1074218750,       19.3328857422,       12.7410888672,     -302.3071289062
1494036590.0215671062,        0.1630859375,        0.1328125000,       -0.1074218750,       19.3328857422,       12.7410888672,     -302.3071289062
1494036590.0241379738,        0.1630859375,        0.1328125000,       -0.1074218750,       23.2696533203,       16.2200927734,     -296.9055175781
1494036590.0266931057,        0.1630859375,        0.1328125000,       -0.1074218750,       23.2696533203,       16.2200927734,     -296.9055175781
1494036590.0292489529,        0.1948242188,        0.5424804688,       -0.0102539062,       28.8391113281,       19.0582275391,     -290.4205322266
1494036590.0318069458,        0.1948242188,        0.5424804688,       -0.0102539062,       28.8391113281,       19.0582275391,     -290.4205322266
1494036590.0345370770,        0.1948242188,        0.5424804688,       -0.0102539062,       30.4565429688,       20.4162597656,     -283.8745117188
1494036590.0370950699,        0.1948242188,        0.5424804688,       -0.0102539062,       30.4565429688,       20.4162597656,     -283.8745117188
1494036590.0396490097,        0.2124023438,        0.9643554688,       -0.0185546875,       21.5301513672,       20.4620361328,     -275.8331298828
1494036590.0422120094,        0.2124023438,        0.9643554688,       -0.0185546875,       21.5301513672,       20.4620361328,     -275.8331298828
1494036590.0450000763,        0.2124023438,        0.9643554688,       -0.0185546875,        6.1035156250,       21.6217041016,     -263.5955810547
1494036590.0476980209,        0.2124023438,        0.9643554688,       -0.0185546875,        6.1035156250,       21.6217041016,     -263.5955810547
1494036590.0503909588,        0.1484375000,        1.3872070312,       -0.1074218750,      -10.8337402344,       24.0325927734,     -245.4833984375
1494036590.0530910492,        0.1484375000,        1.3872070312,       -0.1074218750,      -10.8337402344,       24.0325927734,     -245.4833984375
1494036590.0556619167,        0.1484375000,        1.3872070312,       -0.1074218750,      -25.8026123047,       27.1301269531,     -224.2126464844
1494036590.0583350658,        0.1484375000,        1.7622070312,       -0.0971679688,      -25.8026123047,       27.1301269531,     -224.2126464844
1494036590.0608921051,        0.1088867188,        1.8598632812,       -0.0971679688,      -37.5213623047,       31.5704345703,     -203.1860351562
1494036590.0635020733,        0.1088867188,        1.8598632812,       -0.0971679688,      -36.3769531250,       31.5704345703,     -203.1860351562
1494036590.0661981106,        0.1088867188,        1.8598632812,       -0.0971679688,      -36.3769531250,       36.3922119141,     -182.6171875000
1494036590.0688929558,        0.2338867188,        2.1552734375,        0.0537109375,      -40.1458740234,       36.3922119141,     -182.6171875000
1494036590.0715970993,        0.1323242188,        2.1552734375,        0.0537109375,      -40.1458740234,       40.1153564453,     -161.5447998047
1494036590.0743091106,        0.1323242188,        2.1552734375,        0.0537109375,      -41.8090820312,       40.1153564453,     -161.5447998047
1494036590.0770049095,        0.1323242188,        2.1552734375,        0.0537109375,      -41.8090820312,       42.0684814453,     -141.2200927734
1494036590.0797119141,        0.1831054688,        2.0556640625,        0.1298828125,      -42.0989990234,       42.0684814453,     -141.2200927734
1494036590.0824120045,        0.1831054688,        2.0556640625,        0.1298828125,      -42.0989990234,       45.9747314453,     -122.3602294922
1494036590.0851309299,        0.1831054688,        2.0556640625,        0.1298828125,      -41.2139892578,       43.2586669922,     -122.3602294922
1494036590.0878310204,        0.1831054688,        2.0556640625,        0.1298828125,      -41.2139892578,       43.2586669922,     -105.3009033203
1494036590.0905320644,        0.3002929688,        1.6772460938,        0.1757812500,      -40.1000976562,       44.9371337891,     -105.3009033203
1494036590.0932409763,        0.3002929688,        1.6772460938,        0.1757812500,      -40.1000976562,       41.0308837891,      -92.3919677734
1494036590.0959351063,        0.3002929688,        1.6772460938,        0.1757812500,      -60.6079101562,       40.0543212891,      -92.3919677734
1494036590.0986280441,        0.3002929688,        4.3022460938,        1.7929687500,      -60.6079101562,       20.8129882812,      -47.7600097656
1494036590.1015059948,        0.5346679688,        4.2768554688,        1.7929687500,      -99.8535156250,       20.8129882812,      -47.7600097656
1494036590.1044631004,        0.5346679688,        4.2768554688,        1.7929687500,      -95.9472656250,      -21.1791992188,       78.9947509766
1494036590.1070311069,        0.5346679688,        4.2768554688,        1.7929687500,      -95.6573486328,      -21.1791992188,       78.9947509766
1494036590.1095840931,       -2.5004882812,        8.4790039062,        1.5463867188,      -95.6573486328,      -28.9916992188,      166.2139892578
1494036590.1121430397,       -2.5004882812,        8.4790039062,        1.5463867188,     -136.4746093750,      -29.4799804688,      166.2139892578
1494036590.1147940159,       -2.5004882812,        8.4790039062,        1.5463867188,     -136.4746093750,      -29.4799804688,       89.4775390625
1494036590.1174929142,       -2.5004882812,        8.4790039062,        1.5463867188,      -41.8701171875,       41.5802001953,       89.4775390625
1494036590.1201889515,       -2.2167968750,       -0.3022460938,       -1.6630859375,      -41.8701171875,       41.5802001953,       39.9780273438
1494036590.1228868961,       -2.2167968750,       -0.3022460938,       -1.6630859375,      127.5939941406,       37.8265380859,       39.9780273438
1494036590.1255939007,       -2.2167968750,       -0.3022460938,       -1.6630859375,      127.5939941406,       37.8265380859,       46.8444824219
1494036590.1283030510,       -2.2167968750,       -0.3022460938,       -1.6630859375,      168.3807373047,        8.7585449219,       46.8444824219
1494036590.1310029030,       -0.2270507812,       -2.9599609375,       -1.2006835938,      168.3807373047,        8.7585449219,       51.3153076172
1494036590.1338140965,       -0.2270507812,       -2.9599609375,       -1.2006835938,       86.4410400391,       11.0015869141,       51.3153076172
1494036590.1363720894,       -0.2270507812,       -2.9599609375,       -1.2006835938,       86.4410400391,       11.0015869141,       55.2215576172
1494036590.1389300823,       -0.2270507812,       -2.9599609375,        0.0507812500,        4.1046142578,       25.8026123047,       57.6171875000
1494036590.1414909363,       -0.8666992188,       -0.5136718750,        0.0507812500,        4.1046142578,       25.8026123047,       57.6171875000
1494036590.1440920830,       -0.8666992188,       -0.5136718750,        0.0507812500,      -24.1699218750,       37.5061035156,       76.5228271484
1494036590.1466500759,       -0.8666992188,       -0.5136718750,        0.0507812500,      -24.1699218750,       37.5061035156,       76.5228271484
1494036590.1492090225,       -0.8666992188,        1.6113281250,        0.8364257812,      -55.5114746094,       45.7305908203,       76.1260986328
1494036590.1517701149,       -1.3852539062,        1.5239257812,        0.8364257812,      -55.5114746094,       45.7305908203,       76.1260986328
1494036590.1544330120,       -1.3852539062,        1.5239257812,        0.8364257812,      -81.9549560547,       40.2526855469,       57.4340820312
1494036590.1569879055,       -1.3852539062,        1.5239257812,        0.8364257812,      -81.9549560547,       40.2526855469,       57.4340820312
1494036590.1595430374,       -1.3852539062,        1.1025390625,        0.3666992188,      -60.2264404297,       32.8674316406,       39.8864746094
1494036590.1621029377,        0.0844726562,        1.1025390625,        0.3666992188,      -60.2264404297,       32.8674316406,       39.8864746094
1494036590.1649410725,        0.0844726562,        1.1025390625,        0.3666992188,      -35.0341796875,       25.0549316406,       30.7159423828
1494036590.1676430702,        0.0844726562,        1.1025390625,        0.3666992188,      -35.0341796875,       25.0549316406,       30.7159423828
1494036590.1703429222,        0.0834960938,        0.8535156250,       -0.2319335938,      -26.6571044922,       20.1721191406,       30.5938720703
1494036590.1730389595,        0.0834960938,        0.8535156250,       -0.2319335938,      -26.6571044922,       20.1721191406,       30.5938720703
1494036590.1757540703,        0.0834960938,        0.8535156250,       -0.2319335938,      -21.6674804688,       19.2718505859,       25.8789062500
1494036590.1784520149,        0.0834960938,        0.8535156250,       -0.2319335938,      -21.6674804688,       19.2718505859,       25.8789062500
1494036590.1811490059,       -0.5659179688,        0.3481445312,        0.2397460938,       -2.4261474609,       22.0642089844,       17.6849365234
1494036590.1838920116,       -0.5659179688,        0.3481445312,        0.2397460938,       -2.4261474609,       22.0642089844,       17.6849365234
1494036590.1865890026,       -0.5659179688,        0.3481445312,        0.2397460938,       21.4996337891,       18.3105468750,        9.1094970703
1494036590.1892819405,       -0.5659179688,        0.3481445312,        0.2109375000,       21.4996337891,       18.3105468750,        9.1094970703
1494036590.1919810772,       -0.8393554688,        0.3754882812,        0.2109375000,       30.1818847656,        9.1247558594,        1.1901855469
1494036590.1946089268,       -0.8393554688,        0.3754882812,        0.2109375000,       30.1818847656,        9.1247558594,        1.1901855469
1494036590.1971590519,       -0.8393554688,        0.3754882812,        0.2109375000,       30.1818847656,        7.7972412109,       -1.9836425781
1494036590.1997060776,       -0.8393554688,        0.5004882812,       -0.1098632812,       30.1208496094,        7.7972412109,       -1.9836425781
1494036590.2022569180,       -0.9863281250,        0.5371093750,       -0.1098632812,       30.1208496094,       10.0097656250,       -1.5716552734
1494036590.2049500942,       -0.9863281250,        0.5371093750,       -0.1098632812,       29.0679931641,       10.0097656250,       -1.5716552734
1494036590.2077469826,       -0.9863281250,        0.5371093750,       -0.1098632812,       29.0679931641,        7.4768066406,       -2.9144287109
1494036590.2104330063,       -0.6000976562,        0.5527343750,       -0.1391601562,       27.2521972656,        7.4768066406,       -2.9144287109
1494036590.2131130695,       -0.6000976562,        0.5527343750,       -0.1391601562,       27.2521972656,        4.2419433594,       -7.6904296875
1494036590.2158129215,       -0.6000976562,        0.5527343750,       -0.1391601562,       22.0489501953,        4.2419433594,       -7.6904296875
1494036590.2185080051,       -0.6000976562,        0.5527343750,       -0.1391601562,       14.2364501953,        2.5787353516,      -13.0767822266
1494036590.2213649750,       -0.5136718750,        0.4252929688,        0.0156250000,       13.1072998047,        2.5787353516,      -13.0767822266
1494036590.2244760990,       -0.5136718750,        0.4252929688,        0.0156250000,        6.5917968750,        2.2277832031,      -17.0898437500
1494036590.2271819115,       -0.5136718750,        0.4252929688,        0.0156250000,        6.5917968750,        2.2277832031,      -17.0898437500
1494036590.2298719883,       -0.5136718750,        0.4252929688,        0.0205078125,        6.3629150391,        1.4953613281,      -19.9432373047
1494036590.2325708866,       -0.6352539062,        0.3857421875,        0.0205078125,        6.3629150391,        1.4953613281,      -19.9432373047
1494036590.2352719307,       -0.6352539062,        0.3857421875,        0.0205078125,        7.4005126953,        0.2746582031,      -22.4761962891
1494036590.2379660606,       -0.6352539062,        0.3857421875,        0.0205078125,        7.4005126953,        0.2746582031,      -22.4761962891
1494036590.2406649590,       -0.7133789062,        0.4501953125,       -0.0239257812,        8.7738037109,       -0.7019042969,      -25.2380371094
1494036590.2434089184,       -0.7133789062,        0.4501953125,       -0.0239257812,        8.7738037109,       -0.7019042969,      -25.2380371094
1494036590.2461140156,       -0.7133789062,        0.4501953125,       -0.0239257812,       10.7116699219,       -2.0751953125,      -28.8085937500
1494036590.2488119602,       -0.7133789062,        0.4501953125,       -0.0239257812,       10.7116699219,       -2.0751953125,      -28.8085937500
1494036590.2515120506,       -0.6660156250,        0.5019531250,        0.0297851562,       14.6179199219,       -3.9978027344,      -32.4707031250
1494036590.2541649342,       -0.6660156250,        0.5019531250,        0.0297851562,       13.4735107422,       -3.9978027344,      -32.4707031250
1494036590.2567238808,       -0.6660156250,        0.5019531250,        0.0297851562,       13.4735107422,       -5.5389404297,      -35.9344482422
1494036590.2592809200,       -0.6660156250,        0.5019531250,        0.0297851562,       14.1754150391,       -5.5389404297,      -35.9344482422
1494036590.2618379593,       -0.6318359375,        0.5063476562,        0.0463867188,       14.1754150391,       -5.5389404297,      -39.0319824219
1494036590.2644419670,       -0.6318359375,        0.5063476562,        0.0463867188,       16.2658691406,       -6.2713623047,      -39.0319824219
1494036590.2670059204,       -0.6318359375,        0.5063476562,        0.0463867188,       16.2658691406,       -6.2713623047,      -42.9382324219
1494036590.2695651054,       -0.6318359375,        0.5063476562,        0.0463867188,       21.1639404297,       -7.0800781250,      -41.4276123047
1494036590.2721168995,       -0.6513671875,        0.4501953125,        0.0410156250,       21.1639404297,       -7.0800781250,      -41.4276123047
1494036590.2748050690,       -0.6513671875,        0.4501953125,        0.0410156250,       25.3448486328,       -8.2092285156,      -43.0145263672
1494036590.2773630619,       -0.6513671875,        0.4501953125,        0.0410156250,       25.3448486328,       -8.2092285156,      -43.0145263672
1494036590.2800209522,       -0.6513671875,        0.4501953125,        0.0410156250,       28.2592773438,       -7.4005126953,      -43.4722900391
1494036590.2825798988,       -0.7036132812,        0.3823242188,        0.0688476562,       28.2592773438,       -7.4005126953,      -43.4722900391
1494036590.2854011059,       -0.7036132812,        0.3823242188,        0.0688476562,       30.5480957031,       -6.2103271484,      -43.8842773438
1494036590.2881019115,       -0.7036132812,        0.3823242188,        0.0688476562,       30.5480957031,       -6.2103271484,      -43.8842773438
1494036590.2908010483,       -0.7036132812,        0.3295898438,        0.0659179688,       31.5246582031,       -5.4168701172,      -44.6777343750
1494036590.2935080528,       -0.7294921875,        0.3295898438,        0.0659179688,       31.5246582031,       -5.4168701172,      -44.6777343750
1494036590.2962059975,       -0.7294921875,        0.3295898438,        0.0659179688,       31.4483642578,       -5.2185058594,      -44.5404052734
1494036590.2988989353,       -0.7294921875,        0.3295898438,        0.0659179688,       31.4483642578,       -5.2185058594,      -44.5404052734
1494036590.3015890121,       -0.7329101562,        0.3115234375,        0.0576171875,       31.4178466797,       -4.3182373047,      -44.1894531250
1494036590.3042459488,       -0.7329101562,        0.3115234375,        0.0576171875,       31.4178466797,       -4.3182373047,      -44.1894531250
1494036590.3067948818,       -0.7329101562,        0.3115234375,        0.0576171875,       32.3638916016,       -3.8452148438,      -43.7316894531
1494036590.3093440533,       -0.7329101562,        0.3115234375,        0.0576171875,       32.3638916016,       -3.8452148438,      -43.7316894531
1494036590.3119060993,       -0.7119140625,        0.3139648438,        0.0585937500,       34.0576171875,       -3.7536621094,      -43.0908203125
1494036590.3144700527,       -0.7119140625,        0.3139648438,        0.0585937500,       34.0576171875,       -3.7536621094,      -43.0908203125
1494036590.3170330524,       -0.7119140625,        0.3139648438,        0.0585937500,       35.8276367188,       -3.5400390625,      -42.2668457031
1494036590.3195810318,       -0.7119140625,        0.3139648438,        0.0585937500,       35.8276367188,       -3.5400390625,      -42.2668457031
1494036590.3221371174,       -0.6748046875,        0.2666015625,        0.0961914062,       35.8276367188,       -4.1809082031,      -41.0919189453
1494036590.3248770237,       -0.6748046875,        0.2666015625,        0.0961914062,       37.6434326172,       -4.1809082031,      -41.0919189453
1494036590.3274350166,       -0.6748046875,        0.2666015625,        0.0961914062,       37.6434326172,       -4.1809082031,      -39.2150878906
1494036590.3299889565,       -0.6748046875,        0.2666015625,        0.0961914062,       41.0003662109,       -5.4016113281,      -39.2150878906
1494036590.3325479031,       -0.6630859375,        0.2319335938,        0.1186523438,       41.0003662109,       -5.4016113281,      -37.0178222656
1494036590.3352210522,       -0.6630859375,        0.2319335938,        0.1186523438,       44.1284179688,       -6.1187744141,      -37.0178222656
1494036590.3379220963,       -0.6630859375,        0.2319335938,        0.1186523438,       44.1284179688,       -6.1187744141,      -35.0189208984
1494036590.3407380581,       -0.6630859375,        0.2319335938,        0.0551757812,       47.3175048828,       -6.3018798828,      -35.0189208984
1494036590.3438639641,       -0.6987304688,        0.1767578125,        0.0551757812,       47.3175048828,       -6.7138671875,      -33.0505371094
1494036590.3465700150,       -0.6987304688,        0.1767578125,        0.0551757812,       49.7894287109,       -6.7138671875,      -33.0505371094
1494036590.3492660522,       -0.6987304688,        0.1767578125,        0.0551757812,       49.7894287109,       -7.3547363281,      -30.3344726562
1494036590.3519721031,       -0.6762695312,        0.1308593750,        0.0024414062,       50.8422851562,       -7.3547363281,      -30.3344726562
1494036590.3547170162,       -0.6762695312,        0.1308593750,        0.0024414062,       50.8422851562,       -8.2550048828,      -26.4434814453
1494036590.3572759628,       -0.6762695312,        0.1308593750,        0.0024414062,       49.4995117188,       -8.2550048828,      -26.4434814453
1494036590.3598361015,       -0.6762695312,        0.1308593750,        0.0024414062,       49.4995117188,       -8.2550048828,      -23.0102539062
1494036590.3623979092,       -0.6718750000,        0.1152343750,       -0.0180664062,       45.9747314453,       -8.1787109375,      -23.0102539062
1494036590.3650989532,       -0.6718750000,        0.1152343750,       -0.0180664062,       45.9747314453,       -8.1787109375,      -20.0042724609
1494036590.3678019047,       -0.6718750000,        0.1152343750,       -0.0180664062,       42.9382324219,       -7.7667236328,      -20.0042724609
1494036590.3704979420,       -0.6718750000,        0.1152343750,       -0.0180664062,       42.9382324219,       -7.7667236328,      -16.9067382812
1494036590.3732049465,       -0.6689453125,        0.1425781250,       -0.0820312500,       39.2913818359,       -7.1258544922,      -16.9067382812
1494036590.3757600784,       -0.6689453125,        0.1425781250,       -0.0820312500,       39.2913818359,       -7.1258544922,      -16.9067382812
1494036590.3783190250,       -0.6689453125,        0.1425781250,       -0.0820312500,       35.7818603516,       -6.5765380859,      -13.1835937500
1494036590.3808810711,       -0.6689453125,        0.1425781250,       -0.0820312500,       35.7818603516,       -6.5765380859,      -13.1835937500
1494036590.3834810257,       -0.6635742188,        0.2099609375,       -0.1059570312,       31.9213867188,       -5.2642822266,       -9.4909667969
1494036590.3860330582,       -0.6635742188,        0.2099609375,       -0.1059570312,       31.9213867188,       -5.2642822266,       -9.4909667969
1494036590.3885910511,       -0.6635742188,        0.2099609375,       -0.1059570312,       30.5786132812,       -3.0975341797,       -6.2866210938
1494036590.3911330700,       -0.6635742188,        0.2099609375,       -0.0444335938,       30.5786132812,       -3.0975341797,       -6.2866210938
1494036590.3937909603,       -0.6909179688,        0.2431640625,       -0.0444335938,       31.3720703125,       -2.1820068359,       -3.6926269531
1494036590.3963379860,       -0.6909179688,        0.2431640625,       -0.0444335938,       31.3720703125,       -2.1820068359,       -3.6926269531
1494036590.3988909721,       -0.6909179688,        0.2431640625,       -0.0444335938,       30.2276611328,       -2.4414062500,       -1.1901855469
1494036590.4014480114,       -0.6909179688,        0.2431640625,       -0.0161132812,       30.2276611328,       -2.4414062500,       -1.1901855469
1494036590.4041509628,       -0.7382812500,        0.2138671875,       -0.0161132812,       27.3284912109,       -4.4250488281,        1.8310546875
1494036590.4067029953,       -0.7382812500,        0.2138671875,       -0.0161132812,       27.3284912109,       -4.4250488281,        1.8310546875
1494036590.4092578888,       -0.7382812500,        0.2138671875,       -0.0161132812,       27.3284912109,       -6.3934326172,        4.9896240234
1494036590.4118030071,       -0.7382812500,        0.2348632812,        0.0126953125,       25.9552001953,       -6.3934326172,        4.9896240234
1494036590.4144699574,       -0.7670898438,        0.2348632812,        0.0126953125,       25.9552001953,       -6.3934326172,        7.9498291016
1494036590.4171619415,       -0.7670898438,        0.2348632812,        0.0126953125,       27.4505615234,       -7.0037841797,        7.9498291016
1494036590.4198529720,       -0.7670898438,        0.2348632812,        0.0126953125,       27.4505615234,       -7.0037841797,        9.6435546875
1494036590.4225490093,       -0.7978515625,        0.2602539062,        0.0429687500,       29.1748046875,       -5.5389404297,        9.6435546875
1494036590.4252829552,       -0.7978515625,        0.2602539062,        0.0429687500,       29.1748046875,       -5.5389404297,       11.2304687500
1494036590.4280850887,       -0.7978515625,        0.2602539062,        0.0429687500,       29.9377441406,       -3.9672851562,       11.2304687500
1494036590.4307849407,       -0.7978515625,        0.2602539062,        0.0429687500,       29.9377441406,       -0.0610351562,       11.9781494141
1494036590.4334750175,       -0.8217773438,        0.2465820312,        0.1621093750,       29.7698974609,       -1.7852783203,       11.9781494141
1494036590.4360361099,       -0.8217773438,        0.2465820312,        0.1621093750,       29.7698974609,       -1.7852783203,       12.0544433594
1494036590.4385859966,       -0.8217773438,        0.2465820312,        0.1621093750,       30.8227539062,        0.9918212891,       12.0544433594
1494036590.4411408901,       -0.8217773438,        0.2465820312,        0.1621093750,       30.8227539062,        0.9918212891,        8.1481933594
1494036590.4438390732,       -0.8222656250,        0.3383789062,        0.1396484375,       31.4178466797,        2.2277832031,       11.6729736328
1494036590.4463961124,       -0.8222656250,        0.3383789062,        0.1396484375,       31.4178466797,        2.2277832031,       11.6729736328
1494036590.4489519596,       -0.8222656250,        0.3383789062,        0.1396484375,       37.7807617188,        2.4719238281,       10.0402832031
1494036590.4515099525,       -0.8222656250,        0.3383789062,        0.0146484375,       37.7807617188,        2.4719238281,       10.0402832031
1494036590.4541330338,       -0.8745117188,        0.3764648438,        0.0834960938,       44.5098876953,        3.1738281250,        8.1634521484
1494036590.4568290710,       -0.8745117188,        0.3764648438,        0.0834960938,       44.5098876953,        3.1738281250,        8.1634521484
1494036590.4597508907,       -0.8745117188,        0.3764648438,        0.0834960938,       47.6837158203,        4.6386718750,        5.9967041016
1494036590.4624290466,       -0.9995117188,        0.2851562500,        0.0278320312,       47.6837158203,        4.6386718750,        5.9967041016
1494036590.4653050900,       -0.9145507812,        0.2851562500,        0.0278320312,       51.3763427734,        7.6751708984,        3.3874511719
1494036590.4679989815,       -0.9145507812,        0.2851562500,        0.0278320312,       51.3763427734,        7.6751708984,        3.3874511719
1494036590.4706981182,       -0.9145507812,        0.2851562500,        0.0278320312,       46.3714599609,       11.9934082031,        0.3967285156
1494036590.4734449387,       -0.9160156250,        0.3715820312,        0.0024414062,       46.3714599609,       11.9934082031,        0.3967285156
1494036590.4761409760,       -0.9160156250,        0.3715820312,        0.0024414062,       35.8123779297,       15.7318115234,       -1.3580322266
1494036590.4788429737,       -0.9160156250,        0.3715820312,        0.0024414062,       35.8123779297,       15.7318115234,       -1.3580322266
1494036590.4815349579,       -0.9160156250,        0.3715820312,        0.0024414062,       31.4025878906,       16.9982910156,       -2.4414062500
1494036590.4842751026,       -0.9345703125,        0.4624023438,        0.0346679688,       31.4025878906,       16.9982910156,       -2.4414062500
1494036590.4869699478,       -0.9345703125,        0.4624023438,        0.0346679688,       30.1818847656,       17.1356201172,       -4.1809082031
1494036590.4896678925,       -0.9345703125,        0.4624023438,        0.0346679688,       30.1818847656,       17.1356201172,       -4.1809082031
1494036590.4923679829,       -0.9345703125,        0.4624023438,        0.1147460938,       34.8815917969,       17.0898437500,       -5.9814453125
1494036590.4949810505,       -0.9594726562,        0.4526367188,        0.1147460938,       34.8815917969,       17.0898437500,       -5.9814453125
1494036590.4975299835,       -0.9594726562,        0.4526367188,        0.1147460938,       40.3594970703,       16.2353515625,       -7.5225830078
1494036590.5001869202,       -0.9594726562,        0.4526367188,        0.1147460938,       40.3594970703,       16.2353515625,       -7.5225830078
1494036590.5027430058,       -1.0844726562,        0.3593750000,        0.0327148438,       44.7082519531,       14.9993896484,       -8.0261230469
1494036590.5053369999,       -1.0834960938,        0.3593750000,        0.0327148438,       44.7082519531,       14.9993896484,       -8.0261230469
1494036590.5078849792,       -1.0834960938,        0.3593750000,        0.0327148438,       51.7425537109,       11.6271972656,       -8.4838867188
1494036590.5104351044,       -1.0834960938,        0.3593750000,        0.0327148438,       51.7425537109,       11.6271972656,       -8.4838867188
1494036590.5129959583,       -1.3334960938,        0.2299804688,        0.0112304688,       56.7321777344,        7.0343017578,       -9.2620849609
1494036590.5156979561,       -1.3139648438,        0.2299804688,        0.0112304688,       56.7321777344,        7.0343017578,       -9.2620849609
1494036590.5182440281,       -1.3139648438,        0.2299804688,        0.0112304688,       60.6384277344,        4.3029785156,       -9.1400146484
1494036590.5207960606,       -1.3139648438,        0.2299804688,        0.0112304688,       59.1735839844,        4.3029785156,       -9.1400146484
1494036590.5235030651,       -1.5400390625,        0.1171875000,       -0.1718750000,       59.1735839844,        3.8604736328,       -7.4157714844
1494036590.5261919498,       -1.5400390625,        0.1171875000,       -0.1718750000,       60.3942871094,        3.8604736328,       -7.4157714844
1494036590.5288848877,       -1.5400390625,        0.1171875000,       -0.1718750000,       60.3942871094,        2.3651123047,       -4.2724609375
1494036590.5315709114,       -1.5400390625,        0.1171875000,       -0.1718750000,       62.6068115234,        2.3651123047,       -4.2724609375
1494036590.5342741013,       -1.5937500000,        0.1381835938,       -0.2885742188,       62.6068115234,        0.0610351562,       -0.2899169922
1494036590.5369589329,       -1.5937500000,        0.1381835938,       -0.2885742188,       65.3228759766,        0.0610351562,       -0.2899169922
1494036590.5396490097,       -1.5937500000,        0.1381835938,       -0.2885742188,       65.3228759766,       -3.8452148438,        4.1503906250
1494036590.5423419476,       -1.5937500000,        0.1381835938,       -0.4008789062,       68.8171386719,       -2.1514892578,        4.1503906250
1494036590.5449790955,       -1.6660156250,       -0.0014648438,       -0.4008789062,       68.8171386719,       -2.1514892578,        8.8806152344
1494036590.5475280285,       -1.6660156250,       -0.0014648438,       -0.4008789062,       75.4394531250,       -2.6397705078,        8.8806152344
1494036590.5500829220,       -1.6660156250,       -0.0014648438,       -0.4008789062,       75.4394531250,       -2.6397705078,       12.7868652344
1494036590.5526340008,       -1.6660156250,       -0.0014648438,       -0.3398437500,       83.8775634766,       -0.8697509766,       13.6413574219
1494036590.5553328991,       -1.8862304688,       -0.4384765625,       -0.3398437500,       83.8775634766,       -0.8697509766,       21.4538574219
1494036590.5580270290,       -1.8862304688,       -0.4384765625,       -0.3398437500,       85.6018066406,        1.0375976562,       20.0958251953
1494036590.5607190132,       -1.8862304688,       -0.4384765625,       -0.3398437500,       85.6018066406,        1.0375976562,       20.0958251953
1494036590.5634560585,       -1.7612304688,       -0.7319335938,       -0.1787109375,       79.1778564453,        3.1127929688,       25.3143310547
1494036590.5661439896,       -1.8374023438,       -0.7319335938,       -0.1787109375,       79.1778564453,        3.1127929688,       25.3143310547
1494036590.5688331127,       -1.8374023438,       -0.7319335938,       -0.1787109375,       67.3522949219,        5.0201416016,       31.6467285156
1494036590.5715301037,       -1.8374023438,       -0.7319335938,       -0.1787109375,       67.3522949219,        5.0201416016,       31.6467285156
1494036590.5743849277,       -1.5810546875,       -1.0947265625,       -0.0385742188,       48.5382080078,        9.4757080078,       39.4287109375
1494036590.5770850182,       -1.5810546875,       -1.0947265625,       -0.0385742188,       48.5382080078,        9.4757080078,       51.1474609375
1494036590.5797939301,       -1.5810546875,       -1.0947265625,       -0.0385742188,       25.1464843750,       18.5241699219,       53.8177490234
1494036590.5824770927,       -1.5810546875,       -1.0947265625,       -0.0385742188,       25.1464843750,       18.5241699219,       81.1614990234
1494036590.5853409767,       -1.3842773438,       -0.8095703125,        0.2358398438,       -4.5928955078,       30.4107666016,       80.3527832031
1494036590.5880429745,       -1.3842773438,       -0.8095703125,        0.2358398438,       -4.5928955078,       30.4107666016,      119.4152832031
1494036590.5907480717,       -1.3842773438,       -0.8095703125,        0.2358398438,      -42.0837402344,       36.8041992188,      118.7591552734
1494036590.5934801102,       -1.3842773438,        0.0253906250,        0.5185546875,      -42.0837402344,       36.8041992188,      118.7591552734
1494036590.5960419178,       -1.5361328125,        0.0253906250,        0.5185546875,      -89.9963378906,       31.7687988281,      161.8499755859
1494036590.5986020565,       -1.5361328125,        0.0253906250,        0.5185546875,      -89.9963378906,       31.7687988281,      161.8499755859
1494036590.6011600494,       -1.5361328125,        0.0253906250,        0.5185546875,     -135.1928710938,       25.4974365234,      201.9805908203
1494036590.6037590504,       -2.1611328125,        0.7138671875,        0.4946289062,     -135.1928710938,       25.4974365234,      201.9805908203
1494036590.6064560413,       -2.1503906250,        0.7138671875,        0.4946289062,     -160.5377197266,       18.6462402344,      236.2823486328
1494036590.6091539860,       -2.1503906250,        0.7138671875,        0.4946289062,     -160.5377197266,       18.6462402344,      236.2823486328
1494036590.6118500233,       -2.1503906250,        0.7138671875,        0.4946289062,     -175.0946044922,       19.3328857422,      277.6031494141
1494036590.6144979000,       -2.6069335938,        2.2138671875,        0.3544921875,     -175.0946044922,       19.3328857422,      277.6031494141
1494036590.6170530319,       -2.6069335938,        2.2138671875,        0.3544921875,     -182.9528808594,       25.2990722656,      321.6857910156
1494036590.6196160316,       -2.6069335938,        2.2138671875,        0.3544921875,     -182.9528808594,       25.2990722656,      321.6857910156
1494036590.6221740246,       -2.6069335938,        2.2138671875,        0.3544921875,     -171.9360351562,       22.3236083984,      345.0469970703
1494036590.6247389317,       -2.7480468750,        2.6699218750,        0.6508789062,     -171.9360351562,       22.3236083984,      345.0469970703
1494036590.6272990704,       -2.7480468750,        2.6699218750,        0.6508789062,     -128.5247802734,        5.1116943359,      346.3439941406
1494036590.6298480034,       -2.7480468750,        2.6699218750,        0.6508789062,     -128.5247802734,        5.1116943359,      346.3439941406
1494036590.6324069500,       -2.7480468750,        2.6699218750,        0.6508789062,      -62.1185302734,      -14.0686035156,      350.8911132812
1494036590.6351370811,       -2.6777343750,        2.1669921875,        0.6372070312,      -61.2182617188,      -14.0686035156,      350.8911132812
1494036590.6376950741,       -2.6777343750,        2.1669921875,        0.6372070312,      -61.2182617188,      -29.6936035156,      364.0899658203
1494036590.6402580738,       -2.6777343750,        2.1669921875,        0.6372070312,      -34.1949462891,      -29.2816162109,      364.0899658203
1494036590.6428170204,       -2.6777343750,        2.1669921875,        0.6372070312,      -34.1949462891,      -29.2816162109,      366.6229248047
1494036590.6455090046,       -2.5131835938,        1.3833007812,        0.6616210938,      -32.6843261719,      -35.5834960938,      366.6229248047
1494036590.6481781006,       -2.5131835938,        1.3833007812,        0.6616210938,      -32.6843261719,      -35.5834960938,      354.5989990234
1494036590.6507370472,       -2.5131835938,        1.3833007812,        0.6616210938,       -9.1552734375,      -34.8052978516,      354.5989990234
1494036590.6532969475,       -2.5131835938,        1.3833007812,        0.4116210938,       -9.1552734375,      -34.8052978516,      342.8802490234
1494036590.6559948921,       -2.3666992188,        0.8251953125,        0.4160156250,       20.7061767578,      -30.9295654297,      340.8660888672
1494036590.6586940289,       -2.3666992188,        0.8251953125,        0.4160156250,       20.7061767578,      -30.9295654297,      340.8660888672
1494036590.6613969803,       -2.3666992188,        0.8251953125,        0.4160156250,       38.4521484375,      -23.7579345703,      329.8950195312
1494036590.6641008854,       -2.3666992188,        0.5268554688,        0.2163085938,       38.4521484375,      -23.7579345703,      329.8950195312
1494036590.6668019295,       -2.2231445312,        0.5268554688,        0.2163085938,       42.7856445312,      -16.5557861328,      317.4591064453
1494036590.6694979668,       -2.2231445312,        0.5268554688,        0.2163085938,       42.7856445312,      -16.5557861328,      317.4591064453
1494036590.6721880436,       -2.2231445312,        0.5268554688,        0.2163085938,       39.7033691406,      -13.7023925781,      300.8422851562
1494036590.6748909950,       -1.8662109375,        0.0639648438,        0.1298828125,       39.7033691406,      -13.7023925781,      300.8422851562
1494036590.6775889397,       -1.8662109375,        0.0639648438,        0.1298828125,       35.4766845703,      -15.6707763672,      281.4788818359
1494036590.6802799702,       -1.8662109375,        0.0639648438,        0.1298828125,       35.4766845703,      -15.6707763672,      281.4788818359
1494036590.6829829216,       -1.8662109375,        0.0639648438,        0.1298828125,       28.3050537109,      -18.2952880859,      263.0004882812
1494036590.6856799126,       -1.2456054688,       -0.4291992188,        0.0336914062,       28.3050537109,      -18.2952880859,      263.0004882812
1494036590.6882441044,       -1.2456054688,       -0.4291992188,        0.0336914062,       17.8222656250,      -22.0794677734,      242.4316406250
1494036590.6907970905,       -1.2456054688,       -0.4291992188,        0.0336914062,       17.8222656250,      -22.0794677734,      242.4316406250
1494036590.6934309006,       -1.2456054688,       -0.4291992188,        0.0336914062,        9.1857910156,      -25.3906250000,      217.3156738281
1494036590.6961309910,       -0.6831054688,       -0.8168945312,       -0.0961914062,        9.1857910156,      -25.3906250000,      217.3156738281
1494036590.6988248825,       -0.6831054688,       -0.8168945312,       -0.0961914062,        6.0424804688,      -27.1148681641,      189.3005371094
1494036590.7015979290,       -0.6831054688,       -0.8168945312,       -0.0961914062,        6.0424804688,      -27.1148681641,      189.3005371094
1494036590.7046229839,       -0.1831054688,       -1.0615234375,       -0.2622070312,        3.0975341797,      -28.5644531250,      162.0483398438
1494036590.7073209286,       -0.2143554688,       -1.0615234375,       -0.2622070312,        3.0975341797,      -28.5644531250,      162.0483398438
1494036590.7100179195,       -0.2143554688,       -1.0615234375,       -0.2622070312,       -1.4038085938,      -30.1818847656,      136.2152099609
1494036590.7127161026,       -0.2143554688,       -1.0615234375,       -0.2622070312,       -1.4038085938,      -30.1818847656,      136.2152099609
1494036590.7154119015,        0.0673828125,       -1.3593750000,       -0.3686523438,       -8.5144042969,      -33.0200195312,      110.1837158203
1494036590.7181100845,        0.0673828125,       -1.3593750000,       -0.3686523438,       -8.5144042969,      -33.0200195312,      110.1837158203
1494036590.7209050655,        0.0673828125,       -1.3593750000,       -0.3686523438,      -17.7612304688,      -35.0341796875,       82.9772949219
1494036590.7235949039,        0.0673828125,       -1.3593750000,       -0.3686523438,      -17.7612304688,      -35.0341796875,       82.9772949219
1494036590.7261490822,       -0.0048828125,       -1.5078125000,       -0.4067382812,      -29.2053222656,      -34.7137451172,       53.4973144531
1494036590.7287058830,       -0.0048828125,       -1.5078125000,       -0.4067382812,      -29.2053222656,      -34.7137451172,       53.4973144531
1494036590.7312688828,       -0.0048828125,       -1.5078125000,       -0.4067382812,      -43.8995361328,      -32.5622558594,       24.5208740234
1494036590.7339420319,       -0.0048828125,       -1.5078125000,       -0.4067382812,      -43.8995361328,      -32.5622558594,       24.5208740234
1494036590.7364969254,       -0.1293945312,       -1.5200195312,       -0.3427734375,      -60.5468750000,      -29.8004150391,       -2.5482177734
1494036590.7390580177,       -0.1293945312,       -1.5200195312,       -0.3427734375,      -60.5468750000,      -29.8004150391,       -2.5482177734
1494036590.7416129112,       -0.1293945312,       -1.5200195312,       -0.3427734375,      -77.1179199219,      -29.3884277344,      -29.7698974609
1494036590.7442290783,       -0.1293945312,       -1.5200195312,       -0.3427734375,      -77.1179199219,      -29.3884277344,      -29.7698974609
1494036590.7467861176,        0.0410156250,       -1.4887695312,       -0.3076171875,      -92.7429199219,      -28.2897949219,      -59.2498779297
1494036590.7493441105,        0.0410156250,       -1.4887695312,       -0.3076171875,      -91.9036865234,      -28.2897949219,      -59.2498779297
1494036590.7519021034,        0.0410156250,       -1.4887695312,       -0.3076171875,      -91.9036865234,      -24.3835449219,      -89.8895263672
1494036590.7545619011,        0.0410156250,       -1.4887695312,       -0.2817382812,     -102.7374267578,      -24.1394042969,      -89.8895263672
1494036590.7571160793,        0.2519531250,       -1.4082031250,       -0.2817382812,     -102.7374267578,      -24.1394042969,     -118.3013916016
1494036590.7596778870,        0.2519531250,       -1.4082031250,       -0.2817382812,     -108.5510253906,      -17.5476074219,     -118.3013916016
1494036590.7622399330,        0.2519531250,       -1.4082031250,       -0.2817382812,     -108.5510253906,      -17.5476074219,     -145.6451416016
1494036590.7650249004,        0.2519531250,       -1.3857421875,       -0.2036132812,     -110.5041503906,       -9.5520019531,     -145.0347900391
1494036590.7677190304,        0.2778320312,       -1.3857421875,       -0.2036132812,     -110.5041503906,       -9.5520019531,     -168.4722900391
1494036590.7704100609,        0.2778320312,       -1.3857421875,       -0.2036132812,     -111.3739013672,       -2.1820068359,     -170.2880859375
1494036590.7731089592,        0.2778320312,       -1.3857421875,       -0.2036132812,     -111.3739013672,       -2.1820068359,     -170.2880859375
1494036590.7756659985,        0.1538085938,       -1.2412109375,       -0.1513671875,     -110.5957031250,        4.8370361328,     -192.9473876953
1494036590.7782220840,        0.1538085938,       -1.2412109375,       -0.1513671875,     -110.5957031250,        4.8370361328,     -192.9473876953
1494036590.7807810307,        0.1538085938,       -1.2412109375,       -0.1513671875,     -106.5368652344,       13.2141113281,     -214.9200439453
1494036590.7833468914,        0.1538085938,       -1.2412109375,       -0.1513671875,     -106.5368652344,       13.2141113281,     -214.9200439453
1494036590.7860519886,        0.1821289062,       -1.0019531250,       -0.1157226562,      -98.4649658203,       20.6604003906,     -236.3281250000
1494036590.7887508869,        0.1821289062,       -1.0019531250,       -0.1157226562,      -98.4649658203,       20.6604003906,     -236.3281250000
1494036590.7914540768,        0.1821289062,       -1.0019531250,       -0.1157226562,      -84.9151611328,       27.0996093750,     -256.7138671875
1494036590.7942430973,        0.1821289062,       -1.0019531250,       -0.1157226562,      -84.9151611328,       27.0996093750,     -256.7138671875
1494036590.7968049049,        0.3105468750,       -0.7744140625,       -0.0600585938,      -66.0552978516,       31.9366455078,     -276.7486572266
1494036590.7993619442,        0.3105468750,       -0.7744140625,       -0.0600585938,      -66.0552978516,       31.9366455078,     -276.7486572266
1494036590.8019220829,        0.3105468750,       -0.7744140625,       -0.0600585938,      -44.8303222656,       35.6445312500,     -295.1202392578
1494036590.8045859337,        0.3105468750,       -0.7744140625,       -0.0600585938,      -44.8303222656,       35.6445312500,     -295.1202392578
1494036590.8071498871,        0.3183593750,       -0.6176757812,       -0.0048828125,      -24.7497558594,       38.0249023438,     -311.1419677734
1494036590.8097140789,        0.3183593750,       -0.6176757812,       -0.0048828125,      -24.7497558594,       38.0249023438,     -311.1419677734
1494036590.8122770786,        0.3183593750,       -0.6176757812,       -0.0048828125,       -5.8441162109,       37.8265380859,     -321.8841552734
1494036590.8149359226,        0.3183593750,       -0.6176757812,        0.0034179688,       -5.8441162109,       37.8265380859,     -321.8841552734
1494036590.8174901009,        0.3613281250,       -0.4985351562,        0.0034179688,       -5.8441162109,       34.5916748047,     -327.5604248047
1494036590.8202610016,        0.3613281250,       -0.4985351562,        0.0034179688,       10.8642578125,       34.5916748047,     -327.5604248047
1494036590.8228249550,        0.3613281250,       -0.4985351562,        0.0034179688,       30.3955078125,       30.3802490234,     -329.1778564453
1494036590.8257501125,        0.3613281250,       -0.1625976562,       -0.0346679688,       28.9764404297,       30.3802490234,     -329.1778564453
1494036590.8284559250,        0.3066406250,       -0.1625976562,       -0.0346679688,       44.6014404297,       26.8249511719,     -328.8421630859
1494036590.8311550617,        0.3066406250,       -0.1625976562,       -0.0346679688,       46.5698242188,       26.8249511719,     -328.8421630859
1494036590.8338689804,        0.3066406250,       -0.1625976562,       -0.0346679688,       66.1010742188,       23.9257812500,     -327.1636962891
1494036590.8365709782,        0.3706054688,        0.1660156250,       -0.1220703125,       63.8427734375,       23.9257812500,     -327.1636962891
1494036590.8392729759,        0.3706054688,        0.1660156250,       -0.1220703125,       79.4677734375,       22.3846435547,     -323.7304687500
1494036590.8419768810,        0.3706054688,        0.1660156250,       -0.1220703125,       80.1391601562,       22.3846435547,     -323.7304687500
1494036590.8446929455,        0.3706054688,        0.1660156250,       -0.1220703125,       87.9516601562,       23.4222412109,     -319.6258544922
1494036590.8473939896,        0.3422851562,        0.4184570312,       -0.1616210938,       88.6840820312,       23.4222412109,     -319.6258544922
1494036590.8500978947,        0.3422851562,        0.4184570312,       -0.1616210938,       88.6840820312,       25.4669189453,     -314.3768310547
1494036590.8527901173,        0.3422851562,        0.4184570312,       -0.1616210938,       76.8737792969,       25.4669189453,     -314.3768310547
1494036590.8553869724,        0.3422851562,        0.4184570312,       -0.2329101562,       76.8737792969,       29.3731689453,     -306.4575195312
1494036590.8579480648,        0.3510742188,        0.5903320312,       -0.2329101562,       37.8417968750,       29.0069580078,     -306.4575195312
1494036590.8605010509,        0.3510742188,        0.5903320312,       -0.2329101562,       37.8417968750,       29.0069580078,     -293.1823730469
1494036590.8630650043,        0.3510742188,        0.5903320312,       -0.2329101562,      -15.8081054688,       32.6232910156,     -293.1823730469
1494036590.8656458855,        0.3510742188,        1.0903320312,       -0.0908203125,      -15.8081054688,       32.6232910156,     -293.1823730469
1494036590.8683180809,        0.2192382812,        1.0048828125,       -0.0908203125,      -66.5283203125,       37.9943847656,     -273.7121582031
1494036590.8708889484,        0.2192382812,        1.0048828125,       -0.0908203125,      -66.5283203125,       37.9943847656,     -273.7121582031
1494036590.8736119270,        0.2192382812,        1.0048828125,       -0.0908203125,     -104.0496826172,       44.7845458984,     -250.9918212891
1494036590.8761711121,        0.2192382812,        1.8105468750,        0.2446289062,     -104.0496826172,       44.7845458984,     -250.9918212891
1494036590.8787329197,        0.1557617188,        1.8105468750,        0.2446289062,     -118.8354492188,       50.0946044922,     -227.7069091797
1494036590.8812859058,        0.1557617188,        1.8105468750,        0.2446289062,     -118.8354492188,       50.0946044922,     -227.7069091797
1494036590.8840150833,        0.1557617188,        1.8105468750,        0.2446289062,     -112.6251220703,       52.5207519531,     -205.0323486328
1494036590.8867158890,        0.1860351562,        2.5097656250,        0.6137695312,     -112.6251220703,       52.5207519531,     -205.0323486328
1494036590.8894159794,        0.1860351562,        2.5097656250,        0.6137695312,      -94.9554443359,       49.5147705078,     -183.7768554688
1494036590.8921160698,        0.1860351562,        2.5097656250,        0.6137695312,      -94.9554443359,       49.5147705078,     -183.7768554688
1494036590.8948171139,        0.1860351562,        2.5097656250,        0.6137695312,      -67.6879882812,       39.9932861328,     -163.5284423828
1494036590.8975169659,        0.2846679688,        2.5834960938,        0.6225585938,      -67.6879882812,       39.9932861328,     -163.5284423828
1494036590.9002199173,        0.2846679688,        2.5834960938,        0.6225585938,      -36.6363525391,       29.4342041016,     -144.4091796875
1494036590.9029369354,        0.2846679688,        2.5834960938,        0.6225585938,      -36.6363525391,       29.4342041016,     -144.4091796875
1494036590.9056859016,        0.2846679688,        2.5834960938,        0.7353515625,      -10.5285644531,       22.1405029297,     -127.1209716797
1494036590.9083819389,        0.4409179688,        1.9887695312,        0.7353515625,      -10.5285644531,       22.1405029297,     -127.1209716797
1494036590.9110820293,        0.4409179688,        1.9887695312,        0.7353515625,      -22.3236083984,        6.6528320312,     -113.7390136719
1494036590.9137599468,        0.4409179688,        1.9887695312,        0.7353515625,      -22.3236083984,        6.6528320312,     -113.7390136719
1494036590.9163129330,        0.4409179688,        6.2622070312,        2.3686523438,      -61.8896484375,      -27.7862548828,      -60.7757568359
1494036590.9188599586,        0.5283203125,        6.2622070312,        2.3686523438,      -61.8896484375,      -27.7862548828,      -60.7757568359
1494036590.9214169979,        0.5283203125,        6.2622070312,        2.3686523438,      -43.1213378906,      -95.9320068359,      115.2801513672
1494036590.9240670204,        0.5283203125,        6.2622070312,        2.3686523438,      -43.1213378906,      -95.9320068359,      115.2801513672
1494036590.9267721176,       -4.7216796875,        9.2792968750,        0.3388671875,     -113.4796142578,      -66.3757324219,      233.7188720703
1494036590.9294700623,       -4.6811523438,        9.2792968750,        0.3388671875,     -113.4796142578,      -66.3757324219,      233.7188720703
1494036590.9321699142,       -4.6811523438,        9.2792968750,        0.3388671875,       -0.7171630859,       64.7888183594,       97.7630615234
1494036590.9348831177,       -4.6811523438,        9.2792968750,        0.3388671875,       -0.7171630859,       64.7888183594,       97.7630615234
1494036590.9375760555,       -1.8847656250,       -2.4951171875,       -2.2338867188,      198.2727050781,       37.7655029297,       26.5350341797
1494036590.9405078888,       -1.8847656250,       -2.4951171875,       -2.2338867188,      198.2727050781,       37.7655029297,       26.5350341797
1494036590.9435880184,       -1.8847656250,       -2.4951171875,       -2.2338867188,      217.2393798828,       -9.5672607422,       31.2805175781
1494036590.9462881088,       -1.8847656250,       -2.4951171875,       -1.1606445312,      217.2393798828,       -9.5672607422,       31.2805175781
1494036590.9489829540,       -0.2587890625,       -3.2163085938,       -1.1606445312,       80.7800292969,       -0.9765625000,       61.3861083984
1494036590.9516789913,       -0.2587890625,       -3.2163085938,       -1.1606445312,       80.7800292969,       -0.9765625000,       61.3861083984
1494036590.9543840885,       -0.2587890625,       -3.2163085938,       -1.1606445312,      -43.1671142578,       16.4184570312,       83.4960937500
1494036590.9570810795,       -0.6337890625,       -0.1835937500,        0.3305664062,      -43.1671142578,       16.4184570312,       83.4960937500
1494036590.9597799778,       -0.7119140625,       -0.1835937500,        0.3305664062,      -67.3980712891,       36.5142822266,       81.7871093750
1494036590.9624810219,       -0.7119140625,       -0.1835937500,        0.3305664062,      -67.3980712891,       36.5142822266,       81.7871093750
1494036590.9650969505,       -0.7119140625,       -0.1835937500,        0.3305664062,     -116.5924072266,       41.2902832031,       73.5473632812
1494036590.9676630497,       -0.6210937500,        2.3046875000,        1.2607421875,     -116.5924072266,       41.2902832031,       73.5473632812
1494036590.9702260494,       -0.6210937500,        2.3046875000,        1.2607421875,     -147.2167968750,       33.9965820312,       65.9179687500
1494036590.9727830887,       -0.6210937500,        2.3046875000,        1.2607421875,     -147.2167968750,       33.9965820312,       65.9179687500
1494036590.9753859043,       -0.6210937500,        2.3046875000,        1.2607421875,      -88.6230468750,       33.1268310547,       51.8035888672
1494036590.9779469967,        0.4067382812,        1.5263671875,        0.1884765625,      -88.1042480469,       33.1268310547,       51.8035888672
1494036590.9804999828,        0.4067382812,        1.5263671875,        0.1884765625,      -88.1042480469,       21.4080810547,       37.0941162109
1494036590.9830660820,        0.4067382812,        1.5263671875,        0.1884765625,      -38.8793945312,       20.4010009766,       37.0941162109
1494036590.9856319427,        0.4067382812,        1.5263671875,        0.1884765625,      -38.8793945312,       20.4010009766,       21.4691162109
1494036590.9881920815,       -0.1953125000,        0.4028320312,       -0.1298828125,      -41.3970947266,        9.7503662109,       20.7214355469
1494036590.9907510281,       -0.1953125000,        0.4028320312,       -0.1298828125,      -41.3970947266,        9.7503662109,       20.7214355469
1494036590.9934339523,       -0.1953125000,        0.4028320312,       -0.1298828125,      -33.2794189453,       16.5557861328,        7.7056884766
1494036590.9960050583,       -0.1953125000,        0.4028320312,       -0.1298828125,      -33.2794189453,       16.5557861328,        7.7056884766
1494036590.9985671043,       -0.8950195312,        0.3339843750,        0.2548828125,        3.5095214844,       28.0456542969,        7.9193115234
1494036591.0011210442,       -0.8950195312,        0.3339843750,        0.2548828125,        3.5095214844,       28.0456542969,        7.9193115234
1494036591.0038049221,       -0.8950195312,        0.3339843750,        0.2548828125,       35.2630615234,       22.4761962891,        7.2326660156
1494036591.0064959526,       -0.8950195312,        0.3339843750,        0.0048828125,       35.2630615234,       22.4761962891,        7.2326660156
1494036591.0091850758,       -1.0302734375,        0.4365234375,        0.0361328125,       38.2995605469,        9.9334716797,        0.8392333984
1494036591.0118811131,       -1.0302734375,        0.4365234375,        0.0361328125,       38.2995605469,        9.9334716797,        0.8392333984
1494036591.0146219730,       -1.0302734375,        0.4365234375,        0.0361328125,       24.4140625000,        4.3792724609,       -5.0048828125
1494036591.0171730518,       -1.0302734375,        0.5615234375,       -0.2314453125,       24.4140625000,        4.3792724609,       -5.0048828125
1494036591.0197279453,       -0.8857421875,        0.6210937500,       -0.2314453125,       13.8397216797,        5.7373046875,       -7.4462890625
1494036591.0222790241,       -0.8857421875,        0.6210937500,       -0.2314453125,       13.8397216797,        5.7373046875,       -7.4462890625
1494036591.0249431133,       -0.8857421875,        0.6210937500,       -0.2314453125,        7.1105957031,        5.4168701172,       -9.6435546875
1494036591.0276250839,       -0.5107421875,        0.4316406250,       -0.1181640625,        7.1105957031,        5.4168701172,       -9.6435546875
1494036591.0303111076,       -0.5078125000,        0.4316406250,       -0.1181640625,       -0.2441406250,        1.2512207031,      -12.8631591797
1494036591.0330119133,       -0.5078125000,        0.4316406250,       -0.1181640625,       -0.2441406250,        1.2512207031,      -12.8631591797
1494036591.0355830193,       -0.5078125000,        0.4316406250,       -0.1181640625,       -7.1411132812,       -1.0681152344,      -16.5863037109
1494036591.0381319523,       -0.6157226562,        0.3217773438,        0.0161132812,       -7.1411132812,       -1.0681152344,      -16.5863037109
1494036591.0406899452,       -0.6157226562,        0.3217773438,        0.0161132812,       -7.1411132812,       -1.4038085938,      -19.2871093750
1494036591.0432300568,       -0.6157226562,        0.3217773438,        0.0161132812,       -9.9182128906,       -1.4038085938,      -19.2871093750
1494036591.0459280014,       -0.6157226562,        0.3217773438,        0.0161132812,       -9.9182128906,       -1.9836425781,      -20.0042724609
1494036591.0486218929,       -0.7363281250,        0.4125976562,       -0.0385742188,       -9.2620849609,       -1.9836425781,      -20.0042724609
1494036591.0513110161,       -0.7363281250,        0.4125976562,       -0.0385742188,       -9.2620849609,       -1.9836425781,      -19.6075439453
1494036591.0540111065,       -0.7363281250,        0.4125976562,       -0.0385742188,       -6.1492919922,       -3.7689208984,      -19.6075439453
1494036591.0566949844,       -0.7363281250,        0.4125976562,       -0.0385742188,       -6.1492919922,       -7.6751708984,      -20.1110839844
1494036591.0595169067,       -0.7338867188,        0.4555664062,       -0.0488281250,       -1.8463134766,       -5.3253173828,      -20.1110839844
1494036591.0621991158,       -0.7338867188,        0.4555664062,       -0.0488281250,       -1.8463134766,       -6.8206787109,      -21.7132568359
1494036591.0651381016,       -0.7338867188,        0.4555664062,       -0.0488281250,        3.0364990234,       -6.8206787109,      -21.7132568359
1494036591.0676939487,       -0.7338867188,        0.5126953125,        0.0107421875,        3.0364990234,      -10.7269287109,      -23.8647460938
1494036591.0702500343,       -0.6909179688,        0.5126953125,        0.0107421875,       10.0860595703,       -8.0718994141,      -23.8647460938
1494036591.0728099346,       -0.6909179688,        0.5126953125,        0.0107421875,       10.0860595703,       -8.0718994141,      -24.8565673828
1494036591.0755441189,       -0.6909179688,        0.5126953125,        0.0107421875,       18.6462402344,       -9.8724365234,      -24.8565673828
1494036591.0782439709,       -0.6333007812,        0.4931640625,        0.0395507812,       18.6462402344,       -9.8724365234,      -24.5361328125
1494036591.0809390545,       -0.6333007812,        0.4931640625,        0.0395507812,       27.5421142578,      -12.2070312500,      -24.5361328125
1494036591.0836849213,       -0.6333007812,        0.4931640625,        0.0395507812,       27.5421142578,      -12.2070312500,      -24.0325927734
1494036591.0863831043,       -0.6333007812,        0.4931640625,        0.0395507812,       36.4990234375,      -14.1296386719,      -24.0325927734
1494036591.0892000198,       -0.6577148438,        0.3671875000,        0.0336914062,       36.4990234375,      -14.1296386719,      -23.5900878906
1494036591.0918989182,       -0.6577148438,        0.3671875000,        0.0336914062,       44.6929931641,      -14.8162841797,      -23.5900878906
1494036591.0945320129,       -0.6577148438,        0.3671875000,        0.0336914062,       44.6929931641,      -14.8162841797,      -23.3154296875
1494036591.0970900059,       -0.6577148438,        0.3671875000,        0.0336914062,       49.0264892578,      -15.1367187500,      -23.3154296875
1494036591.0996448994,       -0.7124023438,        0.2075195312,        0.0166015625,       49.0264892578,      -15.1367187500,      -23.3154296875
1494036591.1022069454,       -0.7124023438,        0.2075195312,        0.0166015625,       49.9420166016,      -16.1437988281,      -23.1781005859
1494036591.1048099995,       -0.7124023438,        0.2075195312,        0.0166015625,       49.9420166016,      -16.1437988281,      -23.1781005859
1494036591.1073670387,       -0.7124023438,        0.2075195312,        0.0166015625,       49.9114990234,      -17.9290771484,      -22.4761962891
1494036591.1099269390,       -0.7558593750,        0.1411132812,        0.0161132812,       49.9114990234,      -17.9290771484,      -22.4761962891
1494036591.1124858856,       -0.7558593750,        0.1411132812,        0.0161132812,       49.5758056641,      -19.6533203125,      -20.6146240234
1494036591.1151480675,       -0.7558593750,        0.1411132812,        0.0161132812,       49.5758056641,      -19.6533203125,      -20.6146240234
1494036591.1177060604,       -0.7558593750,        0.1411132812,       -0.0219726562,       49.6063232422,      -20.8892822266,      -19.1192626953
1494036591.1202650070,       -0.8056640625,        0.0717773438,       -0.0219726562,       49.6063232422,      -20.8892822266,      -19.1192626953
1494036591.1228230000,       -0.8056640625,        0.0717773438,       -0.0219726562,       49.0722656250,      -22.0184326172,      -17.4560546875
1494036591.1256289482,       -0.8056640625,        0.0717773438,       -0.0219726562,       49.0722656250,      -22.0184326172,      -17.4560546875
1494036591.1283309460,       -0.8056640625,        0.0112304688,        0.0361328125,       48.2330322266,      -24.9786376953,      -15.3045654297
1494036591.1310288906,       -0.7939453125,        0.0112304688,        0.0361328125,       48.2330322266,      -24.9786376953,      -15.3045654297
1494036591.1337389946,       -0.7939453125,        0.0112304688,        0.0361328125,       47.8515625000,      -27.9388427734,      -12.3138427734
1494036591.1364428997,       -0.7939453125,        0.0112304688,        0.0361328125,       47.8515625000,      -27.9388427734,      -12.3138427734
1494036591.1391429901,       -0.7353515625,        0.0922851562,        0.1040039062,       49.1333007812,      -29.1290283203,       -8.2855224609
1494036591.1418399811,       -0.7353515625,        0.0922851562,        0.1040039062,       49.1333007812,      -29.1290283203,       -8.2855224609
1494036591.1445569992,       -0.7353515625,        0.0922851562,        0.1040039062,       50.0946044922,      -29.3731689453,       -4.6539306641
1494036591.1472539902,       -0.7353515625,        0.0922851562,        0.1040039062,       50.0946044922,      -29.3731689453,       -4.6539306641
1494036591.1499459743,       -0.6914062500,        0.1416015625,        0.0717773438,       51.2390136719,      -29.1595458984,       -1.6632080078
1494036591.1526420116,       -0.6914062500,        0.1416015625,        0.0717773438,       51.2390136719,      -29.1595458984,       -1.6632080078
1494036591.1552460194,       -0.6914062500,        0.1416015625,        0.0717773438,       52.0019531250,      -28.7933349609,       -0.1983642578
1494036591.1578049660,       -0.6914062500,        0.1416015625,        0.0717773438,       52.0019531250,      -28.7933349609,       -0.1983642578
1494036591.1604630947,       -0.6430664062,        0.1582031250,        0.0942382812,       52.0019531250,      -29.1290283203,        1.8920898438
1494036591.1630229950,       -0.6430664062,        0.1582031250,        0.0942382812,       52.6580810547,      -29.1290283203,        1.8920898438
1494036591.1656188965,       -0.6430664062,        0.1582031250,        0.0942382812,       52.6580810547,      -29.1290283203,        4.7302246094
1494036591.1681749821,       -0.6430664062,        0.1582031250,        0.1259765625,       52.9174804688,      -28.2897949219,        4.7302246094
1494036591.1707289219,       -0.6044921875,        0.2353515625,        0.1259765625,       52.9174804688,      -28.2897949219,        7.8582763672
1494036591.1732909679,       -0.6044921875,        0.2353515625,        0.1259765625,       54.0161132812,      -26.1688232422,        7.8582763672
1494036591.1759819984,       -0.6044921875,        0.2353515625,        0.1259765625,       54.0161132812,      -26.1688232422,        7.8582763672
1494036591.1786739826,       -0.6044921875,        0.3603515625,        0.0717773438,       52.3986816406,      -24.2614746094,       10.4217529297
