time_stamp before, Acceleration x, Acceleration y, Acceleration z, Gyro x, Gyro y, Gyro z
1494036499.0129261017,       -0.5317382812,       -0.0351562500,       -0.0234375000,       28.2897949219,      -38.7725830078,      -81.0699462891
1494036499.0275650024,       -0.5317382812,       -0.0351562500,       -0.0234375000,       25.8331298828,      -39.8712158203,      -81.6345214844
1494036499.0313150883,       -0.5820312500,       -0.0073242188,       -0.0498046875,       22.7355957031,      -40.4357910156,      -86.5936279297
1494036499.0340778828,       -0.5820312500,       -0.0073242188,       -0.0498046875,       22.7355957031,      -40.4357910156,      -86.5936279297
1494036499.0367710590,       -0.5820312500,       -0.0073242188,       -0.0498046875,       19.0887451172,      -40.8325195312,      -91.5832519531
1494036499.0394620895,       -0.5820312500,       -0.0073242188,       -0.0791015625,       19.0887451172,      -40.8325195312,      -91.5832519531
1494036499.0421640873,       -0.6137695312,        0.0410156250,       -0.0791015625,       16.4337158203,      -41.1376953125,      -96.0540771484
1494036499.0447840691,       -0.6137695312,        0.0410156250,       -0.0791015625,       16.4337158203,      -41.1376953125,      -96.0540771484
1494036499.0473399162,       -0.6137695312,        0.0410156250,       -0.0791015625,       16.4337158203,      -41.5344238281,      -99.4262695312
1494036499.0498819351,       -0.6137695312,        0.0410156250,       -0.1049804688,       14.2822265625,      -41.5344238281,      -99.4262695312
1494036499.0524339676,       -0.6435546875,        0.1186523438,       -0.1049804688,       14.2822265625,      -41.5344238281,     -102.0507812500
1494036499.0550289154,       -0.6435546875,        0.1186523438,       -0.1049804688,       13.5803222656,      -41.5802001953,     -102.0507812500
1494036499.0575830936,       -0.6435546875,        0.1186523438,       -0.1049804688,       13.5803222656,      -41.5802001953,     -102.0507812500
1494036499.0601348877,       -0.6435546875,        0.1601562500,       -0.1137695312,       13.5498046875,      -41.2902832031,     -103.7445068359
1494036499.0626940727,       -0.6865234375,        0.1601562500,       -0.1137695312,       13.5498046875,      -41.2902832031,     -103.7445068359
1494036499.0653579235,       -0.6865234375,        0.1601562500,       -0.1137695312,       13.6566162109,      -41.3818359375,     -105.5297851562
1494036499.0679109097,       -0.6865234375,        0.1601562500,       -0.1137695312,       13.6566162109,      -41.3818359375,     -105.5297851562
1494036499.0704538822,       -0.6865234375,        0.1733398438,       -0.0942382812,       14.2669677734,      -41.8548583984,     -107.0861816406
1494036499.0730059147,       -0.7167968750,        0.1733398438,       -0.0942382812,       14.2669677734,      -41.8548583984,     -107.0861816406
1494036499.0758609772,       -0.7167968750,        0.1733398438,       -0.0942382812,       14.4500732422,      -41.3665771484,     -108.9019775391
1494036499.0785610676,       -0.7167968750,        0.1733398438,       -0.0942382812,       14.4500732422,      -41.3665771484,     -108.9019775391
1494036499.0812590122,       -0.7304687500,        0.1748046875,       -0.0996093750,       15.1214599609,      -41.0156250000,     -110.3668212891
1494036499.0839838982,       -0.7304687500,        0.1748046875,       -0.0996093750,       15.1214599609,      -41.0156250000,     -110.3668212891
1494036499.0866880417,       -0.7304687500,        0.1748046875,       -0.0996093750,       15.7775878906,      -39.9627685547,     -111.3586425781
1494036499.0893990993,       -0.7304687500,        0.1748046875,       -0.0996093750,       15.7775878906,      -39.9627685547,     -111.3586425781
1494036499.0921010971,       -0.7426757812,        0.1948242188,       -0.1181640625,       14.6179199219,      -38.8031005859,     -112.0758056641
1494036499.0948140621,       -0.7426757812,        0.1948242188,       -0.1181640625,       14.6179199219,      -38.8031005859,     -112.0758056641
1494036499.0975179672,       -0.7426757812,        0.1948242188,       -0.1181640625,       13.1225585938,      -37.5671386719,     -112.8082275391
1494036499.1003770828,       -0.7426757812,        0.2167968750,       -0.1293945312,       13.1225585938,      -37.5671386719,     -112.8082275391
1494036499.1030819416,       -0.7617187500,        0.2167968750,       -0.1293945312,       10.9405517578,      -36.5905761719,     -112.8692626953
1494036499.1056740284,       -0.7617187500,        0.2167968750,       -0.1293945312,       10.9405517578,      -36.5905761719,     -112.8692626953
1494036499.1082360744,       -0.7617187500,        0.2167968750,       -0.1293945312,        8.2244873047,      -35.0952148438,     -112.7929687500
1494036499.1108000278,       -0.7617187500,        0.2539062500,       -0.1206054688,        8.2244873047,      -35.0952148438,     -112.7929687500
1494036499.1134378910,       -0.7543945312,        0.2539062500,       -0.1206054688,        6.1187744141,      -33.8134765625,     -111.9537353516
1494036499.1159889698,       -0.7543945312,        0.2539062500,       -0.1206054688,        6.1187744141,      -33.8134765625,     -111.9537353516
1494036499.1185479164,       -0.7543945312,        0.2539062500,       -0.1206054688,        3.8299560547,      -32.6080322266,     -110.6414794922
1494036499.1211071014,       -0.7490234375,        0.2773437500,       -0.1250000000,        3.8299560547,      -32.6080322266,     -110.6414794922
1494036499.1237161160,       -0.7490234375,        0.2773437500,       -0.1250000000,        3.8299560547,      -31.6619873047,     -108.7646484375
1494036499.1264200211,       -0.7490234375,        0.2773437500,       -0.1250000000,        1.9378662109,      -31.6619873047,     -108.7646484375
1494036499.1291110516,       -0.7490234375,        0.2773437500,       -0.1250000000,        1.2359619141,      -30.1666259766,     -106.4147949219
1494036499.1319959164,       -0.7397460938,        0.3051757812,       -0.1201171875,        1.2359619141,      -30.1666259766,     -106.4147949219
1494036499.1361510754,       -0.7397460938,        0.3051757812,       -0.1201171875,        1.0833740234,      -28.0609130859,     -104.0496826172
1494036499.1388518810,       -0.7397460938,        0.3051757812,       -0.1201171875,        1.0833740234,      -28.0609130859,     -104.0496826172
1494036499.1415491104,       -0.7348632812,        0.2988281250,       -0.1166992188,        0.3814697266,      -25.9704589844,     -100.9216308594
1494036499.1442899704,       -0.7348632812,        0.2988281250,       -0.1166992188,        0.3814697266,      -25.9704589844,     -100.9216308594
1494036499.1469879150,       -0.7348632812,        0.2988281250,       -0.1166992188,       -1.2512207031,      -24.5666503906,      -97.8851318359
1494036499.1496810913,       -0.7348632812,        0.2988281250,       -0.1166992188,       -1.2512207031,      -24.5666503906,      -97.8851318359
1494036499.1523699760,       -0.7426757812,        0.2797851562,       -0.1274414062,       -3.7536621094,      -23.3306884766,      -95.7336425781
1494036499.1550679207,       -0.7426757812,        0.2797851562,       -0.1274414062,       -3.7536621094,      -23.3306884766,      -95.7336425781
1494036499.1577579975,       -0.7426757812,        0.2797851562,       -0.1274414062,       -7.3089599609,      -21.1486816406,      -93.5211181641
1494036499.1604540348,       -0.7426757812,        0.2797851562,       -0.1186523438,       -7.3089599609,      -21.1486816406,      -93.5211181641
1494036499.1631889343,       -0.7377929688,        0.3032226562,       -0.1186523438,       -9.9792480469,      -19.2108154297,      -90.6677246094
1494036499.1657431126,       -0.7377929688,        0.3032226562,       -0.1186523438,       -9.9792480469,      -19.2108154297,      -90.6677246094
1494036499.1682980061,       -0.7377929688,        0.3032226562,       -0.1186523438,      -12.2222900391,      -17.2729492188,      -87.6312255859
1494036499.1708500385,       -0.7377929688,        0.3032226562,       -0.1108398438,      -12.2222900391,      -17.2729492188,      -87.6312255859
1494036499.1735749245,       -0.7084960938,        0.3051757812,       -0.1108398438,      -14.7552490234,      -15.1062011719,      -84.3658447266
1494036499.1761310101,       -0.7084960938,        0.3051757812,       -0.1108398438,      -14.7552490234,      -15.1062011719,      -84.3658447266
1494036499.1786870956,       -0.7084960938,        0.3051757812,       -0.1108398438,      -17.1508789062,      -12.6953125000,      -81.0546875000
1494036499.1812429428,       -0.7084960938,        0.3183593750,       -0.1059570312,      -17.1508789062,      -12.6953125000,      -81.0546875000
1494036499.1839709282,       -0.6918945312,        0.3183593750,       -0.1059570312,      -18.8903808594,      -11.0321044922,      -77.2705078125
1494036499.1865289211,       -0.6918945312,        0.3183593750,       -0.1059570312,      -18.8903808594,      -11.0321044922,      -77.2705078125
1494036499.1890859604,       -0.6918945312,        0.3183593750,       -0.1059570312,      -22.7966308594,       -9.4757080078,      -73.3642578125
1494036499.1916439533,       -0.6791992188,        0.3129882812,       -0.0756835938,      -20.2941894531,       -9.4757080078,      -73.3642578125
1494036499.1943941116,       -0.6791992188,        0.3129882812,       -0.0756835938,      -20.2941894531,       -8.0108642578,      -69.9310302734
1494036499.1970939636,       -0.6791992188,        0.3129882812,       -0.0756835938,      -21.4233398438,       -8.0108642578,      -69.9310302734
1494036499.1997900009,       -0.6791992188,        0.3129882812,       -0.0756835938,      -21.4233398438,       -7.2937011719,      -66.5435791016
1494036499.2024860382,       -0.6777343750,        0.3232421875,       -0.0629882812,      -22.5219726562,       -7.2937011719,      -66.5435791016
1494036499.2050960064,       -0.6777343750,        0.3232421875,       -0.0629882812,      -22.5219726562,       -7.2937011719,      -62.4389648438
1494036499.2076520920,       -0.6777343750,        0.3232421875,       -0.0629882812,      -23.0560302734,       -6.7901611328,      -62.4389648438
1494036499.2102079391,       -0.6777343750,        0.3232421875,       -0.0629882812,      -23.0560302734,       -6.7901611328,      -58.7158203125
1494036499.2127580643,       -0.6777343750,        0.3300781250,       -0.0493164062,      -22.9644775391,       -7.0495605469,      -58.7158203125
1494036499.2154819965,       -0.6777343750,        0.3300781250,       -0.0493164062,      -22.9644775391,       -7.0495605469,      -55.3741455078
1494036499.2181739807,       -0.6777343750,        0.3300781250,       -0.0493164062,      -23.2391357422,       -6.3018798828,      -55.3741455078
1494036499.2208690643,       -0.6777343750,        0.3300781250,       -0.0493164062,      -23.2391357422,       -6.3018798828,      -51.4678955078
1494036499.2235751152,       -0.6669921875,        0.3188476562,       -0.0488281250,      -23.7426757812,       -5.7830810547,      -52.6428222656
1494036499.2262670994,       -0.6669921875,        0.3188476562,       -0.0488281250,      -23.7426757812,       -5.7830810547,      -48.7365722656
1494036499.2289650440,       -0.6669921875,        0.3188476562,       -0.0488281250,      -24.1851806641,       -5.3710937500,      -49.5147705078
1494036499.2316610813,       -0.6669921875,        0.2963867188,       -0.0458984375,      -24.1851806641,       -5.3710937500,      -45.6085205078
1494036499.2343709469,       -0.6484375000,        0.2963867188,       -0.0458984375,      -25.5889892578,       -5.7678222656,      -46.4935302734
1494036499.2370679379,       -0.6484375000,        0.2963867188,       -0.0458984375,      -25.5889892578,       -5.7678222656,      -46.4935302734
1494036499.2397649288,       -0.6484375000,        0.2963867188,       -0.0458984375,      -25.8178710938,       -6.3629150391,      -43.7164306641
1494036499.2424619198,       -0.6499023438,        0.2827148438,       -0.0532226562,      -25.8178710938,       -6.3629150391,      -43.7164306641
1494036499.2450759411,       -0.6499023438,        0.2827148438,       -0.0532226562,      -25.2685546875,       -6.5917968750,      -41.1987304688
1494036499.2477440834,       -0.6499023438,        0.2827148438,       -0.0532226562,      -25.2685546875,       -6.5917968750,      -41.1987304688
1494036499.2503681183,       -0.6499023438,        0.2827148438,       -0.0532226562,      -25.1464843750,       -6.8664550781,      -38.5131835938
1494036499.2529320717,       -0.6455078125,        0.2597656250,       -0.0751953125,      -25.1464843750,       -6.8664550781,      -38.5131835938
1494036499.2556281090,       -0.6455078125,        0.2597656250,       -0.0751953125,      -24.7802734375,       -6.7138671875,      -35.7971191406
1494036499.2583320141,       -0.6455078125,        0.2597656250,       -0.0751953125,      -24.7802734375,       -6.7138671875,      -35.7971191406
1494036499.2610321045,       -0.6455078125,        0.2597656250,       -0.0751953125,      -24.8260498047,       -5.9967041016,      -32.9284667969
1494036499.2637329102,       -0.6416015625,        0.2304687500,       -0.0834960938,      -24.8260498047,       -5.9967041016,      -32.9284667969
1494036499.2664389610,       -0.6416015625,        0.2304687500,       -0.0834960938,      -25.0854492188,       -4.8675537109,      -30.8074951172
1494036499.2691349983,       -0.6416015625,        0.2304687500,       -0.0834960938,      -25.0854492188,       -4.8675537109,      -30.8074951172
1494036499.2718350887,       -0.6416015625,        0.2304687500,       -0.0849609375,      -25.3601074219,       -4.4555664062,      -28.1066894531
1494036499.2745499611,       -0.6440429688,        0.1987304688,       -0.0849609375,      -25.3601074219,       -4.4555664062,      -28.1066894531
1494036499.2772500515,       -0.6440429688,        0.1987304688,       -0.0849609375,      -26.0314941406,       -4.0740966797,      -25.5889892578
1494036499.2799530029,       -0.6440429688,        0.1987304688,       -0.0849609375,      -26.0314941406,       -4.0740966797,      -25.5889892578
1494036499.2826418877,       -0.6689453125,        0.1645507812,       -0.1088867188,      -27.7404785156,       -2.6245117188,      -23.4222412109
1494036499.2852470875,       -0.6689453125,        0.1645507812,       -0.1088867188,      -27.7404785156,       -2.6245117188,      -23.4222412109
1494036499.2878110409,       -0.6689453125,        0.1645507812,       -0.1088867188,      -30.3649902344,       -0.9307861328,      -21.0876464844
1494036499.2903699875,       -0.6689453125,        0.1645507812,       -0.1088867188,      -30.3649902344,       -0.9307861328,      -21.0876464844
1494036499.2929289341,       -0.6821289062,        0.1259765625,       -0.1069335938,      -34.0270996094,        1.4038085938,      -19.0277099609
1494036499.2955338955,       -0.6821289062,        0.1259765625,       -0.1069335938,      -34.0270996094,        1.4038085938,      -19.0277099609
1494036499.2980930805,       -0.6821289062,        0.1259765625,       -0.1069335938,      -39.1693115234,        2.9144287109,      -17.5323486328
1494036499.3006529808,       -0.6821289062,        0.1259765625,       -0.1069335938,      -39.1693115234,        2.9144287109,      -17.5323486328
1494036499.3033139706,       -0.6831054688,        0.1010742188,       -0.1064453125,      -43.0755615234,        4.6081542969,      -15.7928466797
1494036499.3060131073,       -0.6831054688,        0.1010742188,       -0.1064453125,      -44.0063476562,        4.6081542969,      -15.7928466797
1494036499.3087151051,       -0.6831054688,        0.1010742188,       -0.1064453125,      -47.9125976562,        6.7749023438,      -14.3127441406
1494036499.3114120960,       -0.6831054688,        0.1010742188,       -0.1064453125,      -49.6215820312,        6.7749023438,      -14.3127441406
1494036499.3141169548,       -0.6894531250,        0.0893554688,       -0.1040039062,      -57.4340820312,        8.3160400391,      -12.7105712891
1494036499.3168179989,       -0.6894531250,        0.0893554688,       -0.1040039062,      -55.1910400391,        8.3160400391,      -12.7105712891
1494036499.3195140362,       -0.6894531250,        0.0893554688,       -0.1040039062,      -55.1910400391,       10.3149414062,      -11.3372802734
1494036499.3223249912,       -0.6894531250,        0.0883789062,       -0.1035156250,      -60.1654052734,       10.3149414062,      -11.3372802734
1494036499.3250710964,       -0.7001953125,        0.0883789062,       -0.1035156250,      -64.0716552734,       12.4053955078,      -10.0250244141
1494036499.3277640343,       -0.7001953125,        0.0883789062,       -0.1035156250,      -65.5517578125,       12.4053955078,      -10.0250244141
1494036499.3304660320,       -0.7001953125,        0.0883789062,       -0.1035156250,      -73.3642578125,       13.4887695312,       -8.8500976562
1494036499.3332018852,       -0.6938476562,        0.0795898438,       -0.0927734375,      -71.3348388672,       13.4887695312,       -8.8500976562
1494036499.3357570171,       -0.6938476562,        0.0795898438,       -0.0927734375,      -71.3348388672,       13.4887695312,       -7.6141357422
1494036499.3383131027,       -0.6938476562,        0.0795898438,       -0.0927734375,      -77.3162841797,       15.0146484375,       -7.6141357422
1494036499.3408710957,       -0.6938476562,        0.0795898438,       -0.0927734375,      -77.3162841797,       15.0146484375,       -6.6680908203
1494036499.3434839249,       -0.7084960938,        0.0732421875,       -0.0898437500,      -83.5266113281,       16.1132812500,       -6.6680908203
1494036499.3461809158,       -0.7084960938,        0.0732421875,       -0.0898437500,      -83.5266113281,       16.1132812500,       -6.6680908203
1494036499.3487389088,       -0.7084960938,        0.0732421875,       -0.0898437500,      -89.5996093750,       17.1813964844,       -6.4086914062
1494036499.3513059616,       -0.7084960938,        0.0732421875,       -0.0898437500,      -89.5996093750,       17.1813964844,       -6.4086914062
1494036499.3540399075,       -0.7080078125,        0.0590820312,       -0.0834960938,      -96.1608886719,       17.9901123047,       -6.5612792969
1494036499.3566958904,       -0.7080078125,        0.0590820312,       -0.0834960938,      -96.1608886719,       17.9901123047,       -6.5612792969
1494036499.3594529629,       -0.7080078125,        0.0590820312,       -0.0834960938,     -102.2491455078,       18.3563232422,       -6.5612792969
1494036499.3625059128,       -0.7080078125,        0.0590820312,       -0.0615234375,     -102.2491455078,       18.3563232422,       -6.8054199219
1494036499.3652100563,       -0.7055664062,        0.0522460938,       -0.0615234375,     -108.1848144531,       18.7683105469,       -6.8054199219
1494036499.3679070473,       -0.7055664062,        0.0522460938,       -0.0615234375,     -108.1848144531,       18.7683105469,       -6.9885253906
1494036499.3705980778,       -0.7055664062,        0.0522460938,       -0.0615234375,     -112.7624511719,       18.9819335938,       -6.9885253906
1494036499.3733050823,       -0.6840820312,        0.0590820312,       -0.0400390625,     -112.7624511719,       18.9819335938,       -7.3699951172
1494036499.3760058880,       -0.6840820312,        0.0590820312,       -0.0400390625,     -116.0583496094,       19.4854736328,       -7.3699951172
1494036499.3787031174,       -0.6840820312,        0.0590820312,       -0.0400390625,     -116.0583496094,       19.4854736328,      -11.2762451172
1494036499.3814110756,       -0.6840820312,        0.0590820312,       -0.0400390625,     -116.3635253906,       19.8211669922,       -7.9345703125
1494036499.3840780258,       -0.6665039062,        0.0742187500,       -0.0297851562,     -116.3635253906,       19.8211669922,       -7.9345703125
1494036499.3866379261,       -0.6665039062,        0.0742187500,       -0.0297851562,     -115.4022216797,       19.4854736328,       -8.6059570312
1494036499.3891959190,       -0.6665039062,        0.0742187500,       -0.0297851562,     -115.4022216797,       19.4854736328,       -8.6059570312
1494036499.3917539120,       -0.6665039062,        0.0742187500,       -0.0297851562,     -112.9455566406,       18.6157226562,       -9.3841552734
1494036499.3944339752,       -0.6640625000,        0.0800781250,       -0.0341796875,     -112.9455566406,       18.6157226562,       -9.3841552734
1494036499.3969969749,       -0.6640625000,        0.0800781250,       -0.0341796875,     -109.0087890625,       18.4326171875,      -10.1470947266
1494036499.3995549679,       -0.6640625000,        0.0800781250,       -0.0341796875,     -109.0087890625,       18.4326171875,      -10.1470947266
1494036499.4021151066,       -0.6640625000,        0.0800781250,       -0.0341796875,     -103.6376953125,       18.0206298828,      -11.2304687500
1494036499.4047610760,       -0.6591796875,        0.1196289062,       -0.0410156250,     -103.6376953125,       18.0206298828,      -11.2304687500
1494036499.4073228836,       -0.6591796875,        0.1196289062,       -0.0410156250,      -96.0845947266,       17.2424316406,      -11.8865966797
1494036499.4098820686,       -0.6591796875,        0.1196289062,       -0.0410156250,      -96.0845947266,       17.2424316406,      -11.8865966797
1494036499.4124419689,       -0.6591796875,        0.1196289062,       -0.0410156250,      -86.2731933594,       15.2435302734,      -12.4816894531
1494036499.4151270390,       -0.6616210938,        0.1791992188,       -0.0449218750,      -86.2731933594,       15.2435302734,      -12.4816894531
1494036499.4176850319,       -0.6616210938,        0.1791992188,       -0.0449218750,      -74.5544433594,       13.6871337891,      -12.4969482422
1494036499.4202411175,       -0.6616210938,        0.1791992188,       -0.0449218750,      -74.5239257812,       13.6871337891,      -12.4969482422
1494036499.4227969646,       -0.6616210938,        0.1791992188,       -0.0454101562,      -74.5239257812,       11.7034912109,      -12.0391845703
1494036499.4255149364,       -0.6684570312,        0.2265625000,       -0.0454101562,      -61.5692138672,       11.7034912109,      -12.0391845703
1494036499.4282159805,       -0.6684570312,        0.2265625000,       -0.0454101562,      -61.5692138672,       11.7034912109,      -11.3983154297
1494036499.4309151173,       -0.6684570312,        0.2265625000,       -0.0454101562,      -49.1790771484,        9.5214843750,      -11.3983154297
1494036499.4335949421,       -0.6684570312,        0.2587890625,       -0.0141601562,      -49.1790771484,        5.6152343750,      -10.4827880859
1494036499.4361510277,       -0.6542968750,        0.2587890625,       -0.0141601562,      -37.1093750000,        6.9274902344,      -10.4827880859
1494036499.4387059212,       -0.6542968750,        0.2587890625,       -0.0141601562,      -37.1093750000,        6.9274902344,      -10.4827880859
1494036499.4412589073,       -0.6542968750,        0.2587890625,       -0.0141601562,      -25.0701904297,        3.9520263672,       -9.3383789062
1494036499.4438838959,       -0.6298828125,        0.2807617188,        0.0053710938,      -25.0701904297,        3.9520263672,       -5.4321289062
1494036499.4465770721,       -0.6298828125,        0.2807617188,        0.0053710938,      -13.6260986328,        0.3356933594,       -7.4462890625
1494036499.4492669106,       -0.6298828125,        0.2807617188,        0.0053710938,      -13.6260986328,        0.3356933594,       -7.4462890625
1494036499.4519619942,       -0.6298828125,        0.2807617188,        0.0053710938,       -3.6621093750,       -2.8381347656,       -5.9204101562
1494036499.4546649456,       -0.6323242188,        0.2485351562,       -0.0097656250,       -3.6621093750,       -2.8381347656,       -5.9204101562
1494036499.4573559761,       -0.6323242188,        0.2485351562,       -0.0097656250,        4.2877197266,       -5.5694580078,       -4.5318603516
1494036499.4600389004,       -0.6323242188,        0.2485351562,       -0.0097656250,        4.2877197266,       -5.5694580078,       -4.5318603516
1494036499.4627289772,       -0.6323242188,        0.2485351562,       -0.0097656250,       10.7727050781,       -7.9345703125,       -2.8686523438
1494036499.4653620720,       -0.6420898438,        0.1962890625,       -0.0234375000,       10.7727050781,       -7.9345703125,       -2.8686523438
1494036499.4680199623,       -0.6420898438,        0.1962890625,       -0.0234375000,       15.2435302734,       -9.5520019531,       -1.5869140625
1494036499.4707429409,       -0.6420898438,        0.1962890625,       -0.0234375000,       15.2435302734,       -9.5520019531,       -1.5869140625
1494036499.4736950397,       -0.6420898438,        0.1333007812,       -0.0463867188,       18.1274414062,      -11.6424560547,       -1.3275146484
1494036499.4763970375,       -0.6391601562,        0.1333007812,       -0.0463867188,       18.1274414062,      -11.6424560547,       -1.3275146484
1494036499.4790968895,       -0.6391601562,        0.1333007812,       -0.0463867188,       20.9197998047,      -13.1683349609,       -0.3967285156
1494036499.4817969799,       -0.6391601562,        0.1333007812,       -0.0463867188,       20.9197998047,      -13.1683349609,       -0.3967285156
1494036499.4844460487,       -0.6293945312,        0.1337890625,       -0.0839843750,       24.1699218750,      -14.7857666016,        0.8087158203
1494036499.4869999886,       -0.6293945312,        0.1337890625,       -0.0839843750,       24.1699218750,      -14.7857666016,        0.8087158203
1494036499.4895548820,       -0.6293945312,        0.1337890625,       -0.0839843750,       29.0069580078,      -16.0064697266,        2.4566650391
1494036499.4921119213,       -0.6293945312,        0.1337890625,       -0.0839843750,       29.0069580078,      -16.0064697266,        2.4566650391
1494036499.4947640896,       -0.6303710938,        0.1430664062,       -0.1240234375,       32.6538085938,      -16.7083740234,        4.4555664062
1494036499.4974670410,       -0.6303710938,        0.1430664062,       -0.1240234375,       32.6538085938,      -16.7083740234,        4.4555664062
1494036499.5001649857,       -0.6303710938,        0.1430664062,       -0.1240234375,       35.3698730469,      -17.1661376953,        6.3934326172
1494036499.5028619766,       -0.6303710938,        0.1430664062,       -0.1240234375,       35.3698730469,      -17.1661376953,        6.3934326172
1494036499.5054490566,       -0.6381835938,        0.1733398438,       -0.1557617188,       38.0859375000,      -16.4337158203,        8.5601806641
1494036499.5080070496,       -0.6381835938,        0.1733398438,       -0.1557617188,       38.0859375000,      -16.4337158203,        8.5601806641
1494036499.5105528831,       -0.6381835938,        0.1733398438,       -0.1557617188,       42.4499511719,      -16.7083740234,       14.5111083984
1494036499.5131080151,       -0.6381835938,        0.1733398438,       -0.1557617188,       42.4499511719,      -16.7083740234,       14.5111083984
1494036499.5156679153,       -0.9638671875,        1.1337890625,       -0.1196289062,       34.6374511719,      -18.3258056641,       38.6810302734
1494036499.5182249546,       -0.9638671875,        1.1337890625,       -0.1196289062,       33.1268310547,      -18.3258056641,       38.6810302734
1494036499.5207779408,       -0.9638671875,        1.1337890625,       -0.1196289062,       33.1268310547,      -18.3258056641,       64.7277832031
1494036499.5234060287,       -0.9638671875,        1.1337890625,        0.3803710938,       10.8184814453,      -16.7846679688,       64.7277832031
1494036499.5259799957,       -0.3583984375,        1.5830078125,        0.4033203125,       10.8184814453,      -16.7846679688,       75.6988525391
1494036499.5285379887,       -0.3583984375,        1.5830078125,        0.4033203125,       -6.6223144531,      -17.1661376953,       75.6988525391
1494036499.5310950279,       -0.3583984375,        1.5830078125,        0.4033203125,       -6.6223144531,      -17.1661376953,       91.3238525391
1494036499.5337901115,       -0.3583984375,        1.5830078125,        0.0576171875,       -7.4005126953,      -16.3574218750,       92.2088623047
1494036499.5363481045,       -0.5854492188,        1.6069335938,        0.0576171875,       -7.4005126953,      -16.3574218750,       92.2088623047
1494036499.5389049053,       -0.5854492188,        1.6069335938,        0.0576171875,      -12.7410888672,       -9.7961425781,      116.5618896484
1494036499.5415709019,       -0.5854492188,        1.6069335938,        0.0576171875,      -12.7410888672,       -9.7961425781,      116.5618896484
1494036499.5441908836,       -0.5854492188,        0.5004882812,        0.2207031250,      -10.0708007812,       -6.3476562500,      130.8593750000
1494036499.5468940735,       -0.8784179688,        0.5004882812,        0.2207031250,      -10.0708007812,       -6.3476562500,      130.8593750000
1494036499.5495879650,       -0.8784179688,        0.5004882812,        0.2207031250,        8.3770751953,      -13.7786865234,      119.5678710938
1494036499.5522820950,       -0.8784179688,        0.5004882812,        0.2207031250,        8.3770751953,      -13.7786865234,      119.5678710938
1494036499.5549919605,       -1.1699218750,       -1.0512695312,        0.0532226562,       26.9775390625,      -24.0936279297,       98.3123779297
1494036499.5576930046,       -1.1699218750,       -1.0512695312,        0.0532226562,       26.9775390625,      -24.0936279297,       98.3123779297
1494036499.5603940487,       -1.1699218750,       -1.0512695312,        0.0532226562,       26.0925292969,      -25.8026123047,       82.0922851562
1494036499.5630910397,       -1.1699218750,       -1.0512695312,        0.0532226562,       26.0925292969,      -25.8026123047,       82.0922851562
1494036499.5656700134,       -1.3261718750,       -1.3100585938,       -0.0590820312,        9.5214843750,      -20.9197998047,       71.5026855469
1494036499.5682289600,       -1.3261718750,       -1.3100585938,       -0.0590820312,        9.5214843750,      -20.9197998047,       71.5026855469
1494036499.5707800388,       -1.3261718750,       -1.3100585938,       -0.0590820312,        5.5236816406,      -13.2904052734,       68.1457519531
1494036499.5733869076,       -1.3261718750,       -1.3100585938,       -0.0590820312,        5.5236816406,      -13.2904052734,       68.1457519531
1494036499.5759580135,       -1.1899414062,       -0.0903320312,        0.0708007812,        1.2512207031,      -11.6424560547,       72.8759765625
1494036499.5785140991,       -1.1899414062,       -0.0903320312,        0.0708007812,        1.2512207031,      -11.6424560547,       72.8759765625
1494036499.5810730457,       -1.1899414062,       -0.0903320312,        0.0708007812,       -4.8370361328,      -13.8549804688,       81.3598632812
1494036499.5836899281,       -1.1899414062,       -0.0903320312,        0.0708007812,       -4.8370361328,      -13.8549804688,       81.3598632812
1494036499.5862441063,       -1.2924804688,        0.4194335938,        0.0913085938,       -4.8370361328,      -17.2576904297,       87.4176025391
1494036499.5888009071,       -1.2924804688,        0.4194335938,        0.0913085938,       -5.8898925781,      -17.2576904297,       87.4176025391
1494036499.5915489197,       -1.2924804688,        0.4194335938,        0.0913085938,       -5.8898925781,      -17.2576904297,       85.6018066406
1494036499.5943269730,       -1.2924804688,        0.4194335938,       -0.2705078125,        0.6408691406,      -19.2108154297,       85.6018066406
1494036499.5970270634,       -1.2866210938,       -0.1884765625,       -0.2705078125,        0.6408691406,      -21.4996337891,       77.4383544922
1494036499.5997259617,       -1.2866210938,       -0.1884765625,       -0.2705078125,       -0.9613037109,      -21.4996337891,       77.4383544922
1494036499.6024179459,       -1.2866210938,       -0.1884765625,       -0.2705078125,       -0.9613037109,      -21.4996337891,       73.6541748047
1494036499.6051230431,       -1.2866210938,       -0.3500976562,       -0.3642578125,      -14.6789550781,      -21.1334228516,       73.6541748047
1494036499.6078228951,       -1.2514648438,       -0.3500976562,       -0.3642578125,      -14.6789550781,      -17.2271728516,       74.5849609375
1494036499.6105229855,       -1.2514648438,       -0.3500976562,       -0.3642578125,      -27.4047851562,      -18.1579589844,       74.5849609375
1494036499.6133320332,       -1.2514648438,       -0.3500976562,       -0.3642578125,      -27.4047851562,      -17.9595947266,       72.8454589844
1494036499.6160330772,       -1.2709960938,       -0.0205078125,       -0.0131835938,      -27.9998779297,      -17.9595947266,       72.8454589844
1494036499.6187269688,       -1.2709960938,       -0.0205078125,       -0.0131835938,      -27.9998779297,      -21.8658447266,       75.1495361328
1494036499.6214170456,       -1.2709960938,       -0.0205078125,       -0.0131835938,      -25.9704589844,      -22.9949951172,       75.1495361328
1494036499.6240870953,       -1.2709960938,       -0.0205078125,       -0.0131835938,      -25.9704589844,      -22.9949951172,       76.3702392578
1494036499.6266419888,       -1.5200195312,        0.1499023438,       -0.0273437500,      -31.6009521484,      -25.8789062500,       76.3702392578
1494036499.6291968822,       -1.5200195312,        0.1499023438,       -0.0273437500,      -31.6009521484,      -25.8789062500,       72.4639892578
1494036499.6317560673,       -1.5200195312,        0.1499023438,       -0.0273437500,      -22.5677490234,      -24.3377685547,       71.7315673828
1494036499.6344170570,       -1.5200195312,        0.1499023438,       -0.1523437500,      -22.5677490234,      -24.3377685547,       71.7315673828
1494036499.6369779110,       -1.2783203125,        0.2783203125,       -0.1669921875,      -11.6119384766,      -25.1312255859,       69.8394775391
1494036499.6395399570,       -1.2783203125,        0.2783203125,       -0.1669921875,      -11.6119384766,      -25.1312255859,       69.8394775391
1494036499.6420969963,       -1.2783203125,        0.2783203125,       -0.1669921875,       -5.2032470703,      -25.5737304688,       67.7795410156
1494036499.6448149681,       -1.2783203125,        0.2783203125,       -0.0029296875,       -5.2032470703,      -25.5737304688,       67.7795410156
1494036499.6473710537,       -0.7797851562,        0.3496093750,       -0.0029296875,       -3.5858154297,      -22.9034423828,       62.8509521484
1494036499.6499249935,       -0.7797851562,        0.3496093750,       -0.0029296875,       -3.5858154297,      -22.9034423828,       62.8509521484
1494036499.6524820328,       -0.7797851562,        0.3496093750,       -0.0029296875,       -6.4239501953,      -22.2473144531,       56.4422607422
1494036499.6552419662,       -0.7797851562,        0.3710937500,        0.0854492188,       -6.4239501953,      -22.2473144531,       56.4422607422
1494036499.6579380035,       -0.4531250000,        0.3710937500,        0.0854492188,      -11.6271972656,      -22.1099853516,       49.4537353516
1494036499.6606400013,       -0.4531250000,        0.3710937500,        0.0854492188,      -11.6271972656,      -22.1099853516,       49.4537353516
1494036499.6633379459,       -0.4531250000,        0.3710937500,        0.0854492188,      -15.9606933594,      -20.7977294922,       42.3431396484
1494036499.6660399437,       -0.3002929688,        0.4243164062,        0.2011718750,      -15.9606933594,      -20.7977294922,       42.3431396484
1494036499.6687409878,       -0.3002929688,        0.4243164062,        0.2011718750,      -18.7225341797,      -19.1040039062,       35.6292724609
1494036499.6714389324,       -0.3002929688,        0.4243164062,        0.2011718750,      -18.7225341797,      -19.1040039062,       35.6292724609
1494036499.6741468906,       -0.3002929688,        0.4243164062,        0.2011718750,      -18.2495117188,      -18.2189941406,       28.3355712891
1494036499.6768479347,       -0.3437500000,        0.5024414062,        0.2900390625,      -18.2495117188,      -18.2189941406,       28.3355712891
1494036499.6795508862,       -0.3437500000,        0.5024414062,        0.2900390625,      -13.3819580078,      -17.5170898438,       19.1497802734
1494036499.6822528839,       -0.3437500000,        0.5024414062,        0.2900390625,      -13.3819580078,      -17.5170898438,       19.1497802734
1494036499.6848831177,       -0.3437500000,        0.5024414062,        0.1650390625,       -6.5765380859,      -16.7388916016,       10.9558105469
1494036499.6875500679,       -0.5839843750,        0.4252929688,        0.2045898438,       -6.5765380859,      -16.7388916016,       10.9558105469
1494036499.6901130676,       -0.5839843750,        0.4252929688,        0.2045898438,       -1.9226074219,      -14.1601562500,        5.4321289062
1494036499.6926639080,       -0.5839843750,        0.4252929688,        0.2045898438,       -1.9226074219,      -14.1601562500,        5.4321289062
1494036499.6954159737,       -0.5839843750,        0.3002929688,        0.0971679688,       -0.9307861328,       -9.5367431641,        2.5482177734
1494036499.6979670525,       -0.8032226562,        0.2768554688,        0.0971679688,       -0.9307861328,       -9.5367431641,        2.5482177734
1494036499.7005109787,       -0.8032226562,        0.2768554688,        0.0971679688,       -0.9307861328,       -5.1422119141,        1.0375976562
1494036499.7030649185,       -0.8032226562,        0.2768554688,        0.0971679688,       -4.5471191406,       -5.1422119141,        1.0375976562
1494036499.7058079243,       -0.8032226562,        0.1630859375,        0.0400390625,       -4.5471191406,       -1.2359619141,        0.0152587891
1494036499.7084789276,       -0.8867187500,        0.1630859375,        0.0400390625,      -12.1459960938,       -1.8920898438,        0.0152587891
1494036499.7113549709,       -0.8867187500,        0.1630859375,        0.0400390625,      -12.1459960938,        0.7476806641,       -0.4272460938
1494036499.7142009735,       -0.8867187500,        0.1630859375,        0.0400390625,      -21.4538574219,        0.7476806641,       -0.4272460938
1494036499.7168989182,       -0.8945312500,        0.1113281250,        0.0498046875,      -29.2663574219,        2.6550292969,       -0.7476806641
1494036499.7195909023,       -0.8945312500,        0.1113281250,        0.0498046875,      -29.2205810547,        2.6550292969,       -0.7476806641
1494036499.7222859859,       -0.8945312500,        0.1113281250,        0.0498046875,      -29.2205810547,        5.3710937500,       -0.1220703125
1494036499.7249910831,       -0.8945312500,        0.1113281250,        0.0498046875,      -33.7524414062,        5.3710937500,       -0.1220703125
1494036499.7276868820,       -0.8520507812,        0.1499023438,        0.0112304688,      -33.7524414062,        7.4920654297,        1.0833740234
1494036499.7303810120,       -0.8520507812,        0.1499023438,        0.0112304688,      -36.3922119141,        7.4920654297,        1.0833740234
1494036499.7330720425,       -0.8520507812,        0.1499023438,        0.0112304688,      -36.3922119141,        8.5601806641,        1.9073486328
1494036499.7357749939,       -0.8520507812,        0.1499023438,        0.0468750000,      -37.0178222656,        8.5601806641,        1.9073486328
1494036499.7384719849,       -0.7651367188,        0.1806640625,        0.0468750000,      -37.0178222656,        4.6539306641,        2.3651123047
1494036499.7411580086,       -0.7651367188,        0.1806640625,        0.0468750000,      -36.6821289062,        7.2784423828,        2.3651123047
1494036499.7438409328,       -0.7651367188,        0.1806640625,        0.0468750000,      -36.6821289062,        7.2784423828,        2.7313232422
1494036499.7463910580,       -0.6401367188,        0.2197265625,        0.0473632812,      -34.9578857422,        5.1574707031,        2.7313232422
1494036499.7489449978,       -0.7045898438,        0.2197265625,        0.0473632812,      -34.9578857422,        5.1574707031,        2.7313232422
1494036499.7514920235,       -0.7045898438,        0.2197265625,        0.0473632812,      -30.8990478516,        3.2196044922,        3.2806396484
1494036499.7540719509,       -0.7045898438,        0.2197265625,        0.0473632812,      -30.8990478516,        3.2196044922,        3.2806396484
1494036499.7566289902,       -0.7021484375,        0.2329101562,        0.0170898438,      -26.2145996094,        1.0528564453,        4.4555664062
1494036499.7591819763,       -0.7021484375,        0.2329101562,        0.0170898438,      -26.2145996094,        1.0528564453,        4.4555664062
1494036499.7618420124,       -0.7021484375,        0.2329101562,        0.0170898438,      -21.2860107422,       -0.5340576172,        4.7912597656
1494036499.7645540237,       -0.7021484375,        0.2329101562,        0.0170898438,      -21.2860107422,       -0.5340576172,        4.7912597656
1494036499.7671039104,       -0.7104492188,        0.2265625000,       -0.0039062500,      -16.0827636719,       -1.5869140625,        5.0354003906
1494036499.7696599960,       -0.7104492188,        0.2265625000,       -0.0039062500,      -16.0827636719,       -1.5869140625,        5.0354003906
1494036499.7722129822,       -0.7104492188,        0.2265625000,       -0.0039062500,      -12.7716064453,       -3.1280517578,        5.4473876953
1494036499.7749910355,       -0.7104492188,        0.2265625000,       -0.0039062500,      -12.7716064453,       -3.1280517578,        5.4473876953
1494036499.7776811123,       -0.7163085938,        0.1923828125,       -0.0087890625,      -12.1765136719,       -4.7302246094,        5.7983398438
1494036499.7803759575,       -0.7163085938,        0.1923828125,       -0.0087890625,      -12.1765136719,       -4.7302246094,        5.7983398438
1494036499.7830588818,       -0.7163085938,        0.1923828125,       -0.0087890625,      -12.4053955078,       -5.3100585938,        5.8441162109
1494036499.7856369019,       -0.7163085938,        0.1923828125,       -0.0087890625,      -12.4053955078,       -5.3100585938,        5.8441162109
1494036499.7881889343,       -0.7250976562,        0.1816406250,        0.0092773438,      -13.5040283203,       -5.6762695312,        6.4849853516
1494036499.7907369137,       -0.7250976562,        0.1816406250,        0.0092773438,      -13.5040283203,       -5.6762695312,        6.4849853516
1494036499.7932929993,       -0.7250976562,        0.1816406250,        0.0092773438,      -14.4195556641,       -5.8135986328,        6.6070556641
1494036499.7959890366,       -0.7250976562,        0.1816406250,        0.0131835938,      -14.4195556641,       -5.8135986328,        6.6070556641
1494036499.7986810207,       -0.7192382812,        0.2011718750,        0.0131835938,      -14.4195556641,       -5.6915283203,        6.9122314453
1494036499.8013730049,       -0.7192382812,        0.2011718750,        0.0131835938,      -14.4348144531,       -5.6915283203,        6.9122314453
1494036499.8040730953,       -0.7192382812,        0.2011718750,        0.0131835938,      -14.4348144531,       -6.1645507812,        7.1411132812
1494036499.8067679405,       -0.7192382812,        0.2202148438,       -0.0292968750,      -13.4582519531,       -6.1645507812,        7.1411132812
1494036499.8094620705,       -0.7153320312,        0.2202148438,       -0.0292968750,       -9.5520019531,       -7.3089599609,        6.7291259766
1494036499.8121519089,       -0.7153320312,        0.2202148438,       -0.0292968750,      -10.3912353516,       -7.3089599609,        6.7291259766
1494036499.8148880005,       -0.7153320312,        0.2202148438,       -0.0292968750,       -6.4849853516,       -8.4533691406,        6.6986083984
1494036499.8175780773,       -0.7250976562,        0.2680664062,       -0.0444335938,       -6.0577392578,       -8.4533691406,        6.6986083984
1494036499.8202691078,       -0.7250976562,        0.2680664062,       -0.0444335938,       -6.0577392578,       -9.7656250000,        6.8206787109
1494036499.8229560852,       -0.7250976562,        0.2680664062,       -0.0444335938,       -2.4261474609,       -9.7656250000,        6.8206787109
1494036499.8255701065,       -0.7250976562,        0.2680664062,       -0.0444335938,       -2.4261474609,      -13.6718750000,        6.8206787109
1494036499.8281209469,       -0.7338867188,        0.2094726562,       -0.0693359375,       -0.2441406250,      -12.1917724609,        6.8206787109
1494036499.8308498859,       -0.7338867188,        0.2094726562,       -0.0693359375,       -0.2441406250,      -12.1917724609,        6.7749023438
1494036499.8339600563,       -0.7338867188,        0.2094726562,       -0.0693359375,        1.3275146484,      -14.6179199219,        6.7749023438
1494036499.8366560936,       -0.7338867188,        0.2094726562,       -0.0410156250,        1.3275146484,      -17.1661376953,        6.4849853516
1494036499.8393530846,       -0.7119140625,        0.2031250000,       -0.0410156250,        1.8310546875,      -17.1661376953,        6.4849853516
1494036499.8420488834,       -0.7119140625,        0.2031250000,       -0.0410156250,        1.8310546875,      -19.0429687500,        6.6375732422
1494036499.8447480202,       -0.7119140625,        0.2031250000,       -0.0410156250,        1.7547607422,      -19.0429687500,        6.6375732422
1494036499.8474459648,       -0.7026367188,        0.2480468750,       -0.0317382812,        1.7547607422,      -20.7977294922,        6.8969726562
1494036499.8501369953,       -0.7026367188,        0.2480468750,       -0.0317382812,        2.7618408203,      -20.7977294922,        6.8969726562
1494036499.8528280258,       -0.7026367188,        0.2480468750,       -0.0317382812,        2.7618408203,      -21.8505859375,        6.5002441406
1494036499.8555350304,       -0.7026367188,        0.2480468750,       -0.0317382812,        3.9215087891,      -21.8505859375,        6.5002441406
1494036499.8582279682,       -0.7036132812,        0.2690429688,       -0.0307617188,        3.9215087891,      -21.8505859375,        6.8206787109
1494036499.8609230518,       -0.7036132812,        0.2690429688,       -0.0307617188,        4.6234130859,      -22.6135253906,        6.8206787109
1494036499.8636410236,       -0.7036132812,        0.2690429688,       -0.0307617188,        4.6234130859,      -22.6135253906,        7.4462890625
1494036499.8661949635,       -0.7036132812,        0.2690429688,       -0.0307617188,        4.4250488281,      -23.3612060547,        7.4462890625
1494036499.8687489033,       -0.7070312500,        0.2685546875,        0.0126953125,        4.4250488281,      -23.3612060547,        7.4462890625
1494036499.8712968826,       -0.7070312500,        0.2685546875,        0.0126953125,        4.7760009766,      -23.8037109375,        7.7514648438
1494036499.8738861084,       -0.7070312500,        0.2685546875,        0.0126953125,        4.7760009766,      -23.8037109375,        7.7514648438
1494036499.8764441013,       -0.7070312500,        0.2685546875,        0.0126953125,        5.3100585938,      -24.1088867188,        8.2550048828
1494036499.8789958954,       -0.7153320312,        0.2475585938,        0.0693359375,        5.3100585938,      -24.1088867188,        8.2550048828
1494036499.8815469742,       -0.7153320312,        0.2475585938,        0.0693359375,        6.3323974609,      -24.1241455078,        9.5214843750
1494036499.8842079639,       -0.7153320312,        0.2475585938,        0.0693359375,        6.3323974609,      -24.1241455078,        9.5214843750
1494036499.8867580891,       -0.7153320312,        0.2475585938,        0.1010742188,        8.2092285156,      -23.6663818359,       10.7116699219
1494036499.8893110752,       -0.6948242188,        0.2080078125,        0.1010742188,        8.2092285156,      -23.6663818359,       10.7116699219
1494036499.8918681145,       -0.6948242188,        0.2080078125,        0.1010742188,        9.0484619141,      -23.7579345703,       11.4288330078
1494036499.8946130276,       -0.6948242188,        0.2080078125,        0.1010742188,        9.0484619141,      -23.7579345703,       11.4288330078
1494036499.8973109722,       -0.6948242188,        0.2045898438,        0.1152343750,        9.6740722656,      -23.3612060547,       11.5356445312
1494036499.9000029564,       -0.6884765625,        0.2045898438,        0.1152343750,        9.6740722656,      -23.3612060547,       11.5356445312
1494036499.9026989937,       -0.6884765625,        0.2045898438,        0.1152343750,       12.0544433594,      -22.7661132812,       12.8326416016
1494036499.9054069519,       -0.6884765625,        0.2045898438,        0.1152343750,       12.0544433594,      -22.7661132812,       12.8326416016
1494036499.9082250595,       -0.6860351562,        0.2416992188,        0.0883789062,       15.9759521484,      -22.0642089844,       14.7857666016
1494036499.9109330177,       -0.6860351562,        0.2416992188,        0.0883789062,       15.9759521484,      -22.0642089844,       14.7857666016
1494036499.9136550426,       -0.6860351562,        0.2416992188,        0.0883789062,       18.2037353516,      -22.3388671875,       15.9149169922
1494036499.9162099361,       -0.6860351562,        0.2416992188,        0.0883789062,       18.2037353516,      -22.3388671875,       15.9149169922
1494036499.9187688828,       -0.7246093750,        0.1992187500,        0.0385742188,       19.8974609375,      -22.9187011719,       16.4947509766
1494036499.9213299751,       -0.7246093750,        0.1992187500,        0.0385742188,       19.8974609375,      -22.9187011719,       16.4947509766
1494036499.9238920212,       -0.7246093750,        0.1992187500,        0.0385742188,       19.8974609375,      -22.2625732422,       16.8304443359
1494036499.9264459610,       -0.7246093750,        0.1992187500,        0.0385742188,       20.5688476562,      -22.2625732422,       16.8304443359
1494036499.9290020466,       -0.7558593750,        0.1748046875,        0.0190429688,       20.5688476562,      -22.2625732422,       18.3563232422
1494036499.9315600395,       -0.7558593750,        0.1748046875,        0.0190429688,       19.7448730469,      -20.6451416016,       18.3563232422
1494036499.9342610836,       -0.7558593750,        0.1748046875,        0.0190429688,       19.7448730469,      -20.6451416016,       19.7296142578
1494036499.9368250370,       -0.7558593750,        0.1748046875,        0.0190429688,       16.6320800781,      -19.8059082031,       19.7296142578
1494036499.9393870831,       -0.7456054688,        0.1547851562,        0.0253906250,       16.6320800781,      -19.8059082031,       19.7296142578
1494036499.9419450760,       -0.7456054688,        0.1547851562,        0.0253906250,       12.9852294922,      -18.8903808594,       20.7061767578
1494036499.9446470737,       -0.7456054688,        0.1547851562,        0.0253906250,       12.9852294922,      -18.8903808594,       20.7061767578
1494036499.9473149776,       -0.7456054688,        0.1547851562,        0.0517578125,        9.0637207031,      -18.2800292969,       20.4315185547
1494036499.9501769543,       -0.7231445312,        0.1762695312,        0.0517578125,        9.0637207031,      -18.2800292969,       20.4315185547
1494036499.9532830715,       -0.7231445312,        0.1762695312,        0.0517578125,        5.1422119141,      -16.9677734375,       20.7977294922
1494036499.9559869766,       -0.7231445312,        0.1762695312,        0.0517578125,        5.1422119141,      -16.9677734375,       21.7285156250
1494036499.9586820602,       -0.6826171875,        0.2407226562,        0.0712890625,        2.9144287109,      -15.4113769531,       21.7285156250
1494036499.9613740444,       -0.6826171875,        0.2407226562,        0.0712890625,        2.9144287109,      -15.4113769531,       21.7895507812
1494036499.9640390873,       -0.6826171875,        0.2407226562,        0.0712890625,        0.9765625000,      -14.6331787109,       21.7895507812
1494036499.9665920734,       -0.6826171875,        0.2407226562,        0.0712890625,        0.9765625000,      -14.6331787109,       21.7895507812
1494036499.9691450596,       -0.6655273438,        0.2734375000,        0.1289062500,       -1.1138916016,      -13.2751464844,       21.3165283203
1494036499.9716999531,       -0.6655273438,        0.2734375000,        0.1289062500,       -1.1138916016,      -13.2751464844,       21.3165283203
1494036499.9743170738,       -0.6655273438,        0.2734375000,        0.1289062500,       -1.7700195312,      -12.3596191406,       20.6604003906
1494036499.9770119190,       -0.6655273438,        0.2734375000,        0.1289062500,       -1.7700195312,      -12.3596191406,       20.6604003906
1494036499.9797079563,       -0.6728515625,        0.2509765625,        0.1303710938,       -2.4261474609,      -12.1154785156,       20.3704833984
1494036499.9825160503,       -0.6728515625,        0.2509765625,        0.1303710938,       -2.4261474609,      -12.1154785156,       20.3704833984
1494036499.9851140976,       -0.6728515625,        0.2509765625,        0.1303710938,       -1.4190673828,      -11.6271972656,       19.9890136719
1494036499.9876689911,       -0.6728515625,        0.2509765625,        0.1342773438,       -1.4190673828,      -11.6271972656,       19.9890136719
1494036499.9902229309,       -0.6777343750,        0.2475585938,        0.1342773438,        0.2441406250,      -11.4135742188,       20.1721191406
1494036499.9927790165,       -0.6777343750,        0.2475585938,        0.1342773438,        0.2441406250,      -11.4135742188,       20.1721191406
1494036499.9953770638,       -0.6777343750,        0.2475585938,        0.1342773438,        1.9989013672,      -10.5895996094,       20.2026367188
1494036499.9979279041,       -0.6777343750,        0.2475585938,        0.1289062500,        1.9989013672,      -10.5895996094,       20.2026367188
1494036500.0004820824,       -0.6870117188,        0.2426757812,        0.1289062500,        2.8991699219,       -9.9945068359,       20.2484130859
1494036500.0030341148,       -0.6870117188,        0.2426757812,        0.1289062500,        2.8991699219,       -9.9945068359,       20.2484130859
1494036500.0057029724,       -0.6870117188,        0.2426757812,        0.1289062500,        2.7008056641,       -9.0026855469,       19.9127197266
1494036500.0082499981,       -0.6870117188,        0.2695312500,        0.1215820312,        2.7008056641,       -9.0026855469,       19.9127197266
1494036500.0107979774,       -0.6782226562,        0.2695312500,        0.1215820312,        2.7008056641,       -8.5601806641,       20.3704833984
1494036500.0135068893,       -0.6782226562,        0.2695312500,        0.1215820312,        2.8686523438,       -8.5601806641,       20.3704833984
1494036500.0160570145,       -0.6782226562,        0.2695312500,        0.1215820312,        2.8686523438,       -8.5601806641,       20.5841064453
1494036500.0186059475,       -0.6782226562,        0.2719726562,        0.0825195312,        3.1433105469,       -8.1176757812,       20.5841064453
1494036500.0211570263,       -0.6801757812,        0.2719726562,        0.0825195312,        3.1433105469,       -8.1176757812,       20.5841064453
1494036500.0237479210,       -0.6801757812,        0.2719726562,        0.0825195312,        2.8686523438,       -7.9803466797,       20.3704833984
1494036500.0264410973,       -0.6801757812,        0.2719726562,        0.0825195312,        2.8686523438,       -7.9803466797,       20.3704833984
1494036500.0291290283,       -0.6816406250,        0.2534179688,        0.0634765625,        2.1362304688,       -7.6599121094,       20.1110839844
1494036500.0318160057,       -0.6816406250,        0.2534179688,        0.0634765625,        2.1362304688,       -7.6599121094,       20.1110839844
1494036500.0345160961,       -0.6816406250,        0.2534179688,        0.0634765625,       -0.2441406250,       -5.9204101562,       19.8516845703
1494036500.0372049809,       -0.6816406250,        0.2534179688,        0.0634765625,       -0.2441406250,       -5.9204101562,       19.8516845703
1494036500.0399050713,       -0.6738281250,        0.2416992188,        0.1230468750,       -2.3803710938,       -3.2348632812,       19.8669433594
1494036500.0425989628,       -0.6738281250,        0.2416992188,        0.1230468750,       -2.3803710938,       -3.2348632812,       19.8669433594
1494036500.0453031063,       -0.6738281250,        0.2416992188,        0.1230468750,       -4.8217773438,       -2.3956298828,       19.7448730469
1494036500.0479919910,       -0.6738281250,        0.2416992188,        0.2480468750,       -4.8217773438,       -2.3956298828,       19.7448730469
1494036500.0506761074,       -0.6660156250,        0.2343750000,        0.1596679688,       -6.7901611328,       -3.3569335938,       20.0500488281
1494036500.0535230637,       -0.6660156250,        0.2343750000,        0.1596679688,       -6.7901611328,       -3.3569335938,       20.0500488281
1494036500.0562160015,       -0.6660156250,        0.2343750000,        0.1596679688,       -7.2326660156,       -2.8533935547,       20.7519531250
1494036500.0589098930,       -0.6660156250,        0.2475585938,        0.1645507812,       -7.2326660156,       -2.8533935547,       20.7519531250
1494036500.0616030693,       -0.6738281250,        0.2475585938,        0.1645507812,       -6.7291259766,       -2.6855468750,       21.3928222656
1494036500.0642580986,       -0.6738281250,        0.2475585938,        0.1645507812,       -6.7291259766,       -2.6855468750,       21.3928222656
1494036500.0668110847,       -0.6738281250,        0.2475585938,        0.1645507812,       -5.2032470703,       -2.4871826172,       22.3236083984
1494036500.0694699287,       -0.6816406250,        0.2416992188,        0.1367187500,       -5.2032470703,       -2.4871826172,       22.3236083984
1494036500.0721359253,       -0.6816406250,        0.2416992188,        0.1367187500,       -4.1503906250,       -3.3111572266,       23.1475830078
1494036500.0751130581,       -0.6816406250,        0.2416992188,        0.1367187500,       -4.1503906250,       -3.3111572266,       23.1475830078
1494036500.0778050423,       -0.6816406250,        0.2416992188,        0.1367187500,       -5.0354003906,       -4.3487548828,       24.4903564453
1494036500.0804939270,       -0.7133789062,        0.1997070312,        0.1098632812,       -5.0354003906,       -4.3487548828,       24.4903564453
1494036500.0831921101,       -0.7133789062,        0.1997070312,        0.1098632812,       -5.0201416016,       -4.1809082031,       25.9399414062
1494036500.0858869553,       -0.7133789062,        0.1997070312,        0.1098632812,       -5.0201416016,       -4.1809082031,       25.9399414062
1494036500.0885810852,       -0.7133789062,        0.1997070312,        0.1210937500,       -6.2103271484,       -3.4942626953,       27.3437500000
1494036500.0912749767,       -0.7221679688,        0.1943359375,        0.1210937500,       -6.2103271484,       -3.4942626953,       27.3437500000
1494036500.0939741135,       -0.7221679688,        0.1943359375,        0.1210937500,       -7.8582763672,       -2.8381347656,       28.6407470703
1494036500.0966649055,       -0.7221679688,        0.1943359375,        0.1210937500,       -7.8582763672,       -2.8381347656,       28.6407470703
1494036500.0993549824,       -0.7221679688,        0.2236328125,        0.0913085938,       -8.8348388672,       -2.8686523438,       30.4870605469
1494036500.1020400524,       -0.7119140625,        0.2236328125,        0.0913085938,       -8.8348388672,       -2.8686523438,       30.4870605469
1494036500.1046750546,       -0.7119140625,        0.2236328125,        0.0913085938,       -9.3078613281,       -2.0751953125,       31.5246582031
1494036500.1072309017,       -0.7119140625,        0.2236328125,        0.0913085938,       -9.3078613281,       -2.0751953125,       31.5246582031
1494036500.1097829342,       -0.7089843750,        0.2529296875,        0.0756835938,       -9.7656250000,       -1.6632080078,       32.1807861328
1494036500.1123309135,       -0.7089843750,        0.2529296875,        0.0756835938,       -9.7656250000,       -1.6632080078,       32.1807861328
1494036500.1148889065,       -0.7089843750,        0.2529296875,        0.0756835938,       -9.5062255859,       -1.6174316406,       32.9132080078
1494036500.1174390316,       -0.7089843750,        0.2529296875,        0.0756835938,       -9.5062255859,       -1.6174316406,       32.9132080078
1494036500.1199889183,       -0.6992187500,        0.2719726562,        0.0507812500,       -7.9498291016,       -1.7547607422,       34.4696044922
1494036500.1225450039,       -0.6992187500,        0.2719726562,        0.0507812500,       -7.9498291016,       -1.7547607422,       34.4696044922
1494036500.1251530647,       -0.6992187500,        0.2719726562,        0.0507812500,       -7.9498291016,       -2.0446777344,       35.5987548828
1494036500.1278231144,       -0.6992187500,        0.2719726562,        0.0507812500,       -6.9580078125,       -2.0446777344,       35.5987548828
1494036500.1303761005,       -0.6757812500,        0.3208007812,        0.0693359375,       -6.9580078125,       -2.0446777344,       35.9039306641
1494036500.1329278946,       -0.6757812500,        0.3208007812,        0.0693359375,       -6.6070556641,       -2.4566650391,       35.9039306641
1494036500.1356289387,       -0.6757812500,        0.3208007812,        0.0693359375,       -6.6070556641,       -2.4566650391,       36.1328125000
1494036500.1383230686,       -0.6757812500,        0.3208007812,        0.0693359375,       -5.2185058594,       -2.7618408203,       36.1328125000
1494036500.1410079002,       -0.6616210938,        0.3208007812,        0.0532226562,       -5.2185058594,       -2.7618408203,       36.3006591797
1494036500.1437079906,       -0.6616210938,        0.3208007812,        0.0532226562,       -3.4484863281,       -2.8839111328,       36.3006591797
1494036500.1463980675,       -0.6616210938,        0.3208007812,        0.0532226562,       -3.4484863281,       -2.8839111328,       36.8957519531
1494036500.1490910053,       -0.6616210938,        0.3208007812,        0.0664062500,       -1.9836425781,       -2.9602050781,       36.8957519531
1494036500.1517839432,       -0.6577148438,        0.3212890625,        0.0664062500,       -1.9836425781,       -2.9602050781,       37.3687744141
1494036500.1544909477,       -0.6577148438,        0.3212890625,        0.0664062500,       -1.1291503906,       -2.6092529297,       37.3687744141
1494036500.1571860313,       -0.6577148438,        0.3212890625,        0.0664062500,       -1.1291503906,       -2.6092529297,       37.5976562500
1494036500.1598780155,       -0.6577148438,        0.3286132812,        0.0517578125,       -0.4882812500,       -3.3874511719,       37.5976562500
1494036500.1625618935,       -0.6538085938,        0.3286132812,        0.0517578125,       -0.4882812500,       -3.3874511719,       37.5976562500
1494036500.1651580334,       -0.6538085938,        0.3286132812,        0.0517578125,        0.3051757812,       -3.2958984375,       37.7044677734
1494036500.1677050591,       -0.6538085938,        0.3286132812,        0.0517578125,        0.3051757812,       -3.2958984375,       37.7044677734
1494036500.1702520847,       -0.6538085938,        0.3491210938,        0.0761718750,       -0.0152587891,       -2.9754638672,       38.4521484375
1494036500.1728029251,       -0.6538085938,        0.3491210938,        0.0761718750,       -0.0152587891,       -2.9754638672,       38.4521484375
1494036500.1755199432,       -0.6538085938,        0.3491210938,        0.0761718750,       -0.3814697266,       -3.1738281250,       38.9862060547
1494036500.1782050133,       -0.6538085938,        0.3491210938,        0.0761718750,       -0.3814697266,       -3.1738281250,       38.9862060547
1494036500.1808969975,       -0.6650390625,        0.3403320312,        0.0810546875,       -0.2593994141,       -3.7384033203,       39.3524169922
1494036500.1835999489,       -0.6650390625,        0.3403320312,        0.0810546875,       -0.2593994141,       -3.7384033203,       39.3524169922
1494036500.1862940788,       -0.6650390625,        0.3403320312,        0.0810546875,        1.1291503906,       -4.3945312500,       40.1916503906
1494036500.1889829636,       -0.6650390625,        0.3403320312,        0.0810546875,        1.1291503906,       -4.3945312500,       40.1916503906
1494036500.1917901039,       -0.6938476562,        0.2714843750,        0.0830078125,        2.4566650391,       -4.5318603516,       41.2139892578
1494036500.1948149204,       -0.6938476562,        0.2714843750,        0.0830078125,        2.4566650391,       -4.5318603516,       41.2139892578
1494036500.1975030899,       -0.6938476562,        0.2714843750,        0.0830078125,        2.9449462891,       -4.6691894531,       42.6483154297
1494036500.2001879215,       -0.6938476562,        0.2880859375,        0.0751953125,        2.9449462891,       -4.6691894531,       42.6483154297
1494036500.2029929161,       -0.6904296875,        0.2880859375,        0.0751953125,        3.5552978516,       -4.8828125000,       44.9371337891
1494036500.2056970596,       -0.6904296875,        0.2880859375,        0.0751953125,        3.5552978516,       -4.8828125000,       44.9371337891
1494036500.2083859444,       -0.6904296875,        0.2880859375,        0.0751953125,        2.9144287109,       -5.2795410156,       46.0052490234
1494036500.2110788822,       -0.6962890625,        0.3354492188,        0.0625000000,        2.9144287109,       -5.2795410156,       46.0052490234
1494036500.2137560844,       -0.6962890625,        0.3354492188,        0.0625000000,        2.8839111328,       -5.9814453125,       46.8444824219
1494036500.2163100243,       -0.6962890625,        0.3354492188,        0.0625000000,        2.8839111328,       -5.9814453125,       46.8444824219
1494036500.2188570499,       -0.6962890625,        0.3354492188,        0.0625000000,        4.9896240234,       -6.1035156250,       48.3551025391
1494036500.2214040756,       -0.7226562500,        0.3017578125,        0.0244140625,        4.9896240234,       -6.1035156250,       48.3551025391
1494036500.2239599228,       -0.7226562500,        0.3017578125,        0.0244140625,        8.0566406250,       -5.9814453125,       50.3540039062
1494036500.2265110016,       -0.7226562500,        0.3017578125,        0.0244140625,        8.0566406250,       -5.9814453125,       50.3540039062
1494036500.2290630341,       -0.7226562500,        0.3017578125,        0.0244140625,        8.7432861328,       -6.1798095703,       52.2613525391
1494036500.2316169739,       -0.6704101562,        0.2841796875,        0.0537109375,        8.7432861328,       -6.1798095703,       52.2613525391
1494036500.2342200279,       -0.6704101562,        0.2841796875,        0.0537109375,        4.8370361328,       -5.5389404297,       53.6041259766
1494036500.2367689610,       -0.6704101562,        0.2841796875,        0.0537109375,        6.8817138672,       -5.5389404297,       53.6041259766
1494036500.2393209934,       -0.6704101562,        0.2841796875,        0.0537109375,        6.8817138672,       -5.5389404297,       54.7332763672
1494036500.2418699265,       -0.6440429688,        0.3276367188,        0.0864257812,        3.6926269531,       -4.9896240234,       54.7332763672
1494036500.2445580959,       -0.6440429688,        0.3276367188,        0.0864257812,        3.6926269531,       -4.9896240234,       54.6722412109
1494036500.2471060753,       -0.6440429688,        0.3276367188,        0.0864257812,        1.8615722656,       -5.0659179688,       54.6722412109
1494036500.2496581078,       -0.6440429688,        0.3276367188,        0.0864257812,        1.8615722656,       -5.0659179688,       58.5784912109
1494036500.2522060871,       -0.6406250000,        0.3383789062,        0.0771484375,        2.4566650391,       -5.0506591797,       55.0994873047
1494036500.2549889088,       -0.6406250000,        0.3383789062,        0.0771484375,        2.4566650391,       -5.0506591797,       55.0994873047
1494036500.2576770782,       -0.6406250000,        0.3383789062,        0.0771484375,        3.0364990234,       -4.4555664062,       56.2133789062
1494036500.2603669167,       -0.6406250000,        0.3793945312,        0.1025390625,        3.0364990234,       -4.4555664062,       56.2133789062
1494036500.2630550861,       -0.6059570312,        0.3793945312,        0.1025390625,        3.1433105469,       -3.7078857422,       56.4727783203
1494036500.2656219006,       -0.6059570312,        0.3793945312,        0.1025390625,        3.1433105469,       -3.7078857422,       56.4727783203
1494036500.2681720257,       -0.6059570312,        0.3793945312,        0.1025390625,        1.8310546875,       -2.7008056641,       56.2438964844
1494036500.2707219124,       -0.6059570312,        0.4287109375,        0.1254882812,        1.8310546875,       -2.7008056641,       56.2438964844
1494036500.2734351158,       -0.5869140625,        0.4287109375,        0.1254882812,        1.0986328125,       -2.1820068359,       55.3588867188
1494036500.2761349678,       -0.5869140625,        0.4287109375,        0.1254882812,        1.0986328125,       -2.1820068359,       55.3588867188
1494036500.2788200378,       -0.5869140625,        0.4287109375,        0.1254882812,        2.3803710938,       -2.9449462891,       54.8095703125
1494036500.2815148830,       -0.6079101562,        0.4208984375,        0.1171875000,        2.3803710938,       -2.9449462891,       54.8095703125
1494036500.2842099667,       -0.6079101562,        0.4208984375,        0.1171875000,        5.1116943359,       -4.2419433594,       54.2297363281
1494036500.2868978977,       -0.6079101562,        0.4208984375,        0.1171875000,        5.1116943359,       -4.2419433594,       54.2297363281
1494036500.2895889282,       -0.6079101562,        0.4208984375,        0.1171875000,        7.4462890625,       -4.5928955078,       54.6722412109
1494036500.2922759056,       -0.6083984375,        0.3598632812,        0.1132812500,        7.4462890625,       -4.5928955078,       54.6722412109
1494036500.2949790955,       -0.6083984375,        0.3598632812,        0.1132812500,        8.4228515625,       -3.9825439453,       55.3436279297
1494036500.2976710796,       -0.6083984375,        0.3598632812,        0.1132812500,        8.4228515625,       -3.9825439453,       55.3436279297
1494036500.3003540039,       -0.6083984375,        0.3598632812,        0.1235351562,        6.5002441406,       -3.7841796875,       55.8624267578
1494036500.3030400276,       -0.5986328125,        0.3979492188,        0.1235351562,        6.5002441406,       -3.7841796875,       55.8624267578
1494036500.3056170940,       -0.5986328125,        0.3979492188,        0.1235351562,        3.8146972656,       -4.1046142578,       55.5419921875
1494036500.3081679344,       -0.5986328125,        0.3979492188,        0.1235351562,        3.8146972656,       -4.1046142578,       55.5419921875
1494036500.3109378815,       -0.5986328125,        0.4130859375,        0.0942382812,        3.3416748047,       -4.7760009766,       55.6945800781
1494036500.3136410713,       -0.6230468750,        0.4130859375,        0.0942382812,        3.3416748047,       -4.7760009766,       55.6945800781
1494036500.3163540363,       -0.6230468750,        0.4130859375,        0.0942382812,        4.0435791016,       -5.0964355469,       56.3049316406
1494036500.3190500736,       -0.6230468750,        0.4130859375,        0.0942382812,        4.0435791016,       -5.0964355469,       56.3049316406
1494036500.3217420578,       -0.6621093750,        0.3881835938,        0.0839843750,        5.4321289062,       -4.8980712891,       56.9000244141
1494036500.3244900703,       -0.6621093750,        0.3881835938,        0.0839843750,        5.4321289062,       -4.8980712891,       56.9000244141
1494036500.3271880150,       -0.6621093750,        0.3881835938,        0.0839843750,        4.7454833984,       -4.6081542969,       57.7545166016
1494036500.3298799992,       -0.6621093750,        0.3881835938,        0.0839843750,        4.7454833984,       -4.6081542969,       57.7545166016
1494036500.3325738907,       -0.6684570312,        0.3872070312,        0.0781250000,        3.7994384766,       -4.6691894531,       58.7463378906
1494036500.3352770805,       -0.6684570312,        0.3872070312,        0.0781250000,        3.7994384766,       -4.6691894531,       58.7463378906
1494036500.3379681110,       -0.6684570312,        0.3872070312,        0.0781250000,        3.6773681641,       -4.8980712891,       59.5703125000
1494036500.3406589031,       -0.6684570312,        0.3872070312,        0.0483398438,        3.6773681641,       -4.8980712891,       59.5703125000
1494036500.3433830738,       -0.6752929688,        0.3823242188,        0.0483398438,        4.2724609375,       -4.1198730469,       60.5010986328
1494036500.3459339142,       -0.6752929688,        0.3823242188,        0.0483398438,        4.2724609375,       -4.1198730469,       60.5010986328
1494036500.3485980034,       -0.6752929688,        0.3823242188,        0.0483398438,        3.6163330078,       -3.3721923828,       60.9588623047
1494036500.3511490822,       -0.6752929688,        0.3823242188,        0.0903320312,        3.6163330078,       -3.3721923828,       60.9588623047
1494036500.3537108898,       -0.6240234375,        0.4262695312,        0.0903320312,        3.6163330078,       -3.1585693359,       61.0351562500
1494036500.3562669754,       -0.6240234375,        0.4262695312,        0.0903320312,        1.9531250000,       -3.1585693359,       61.0351562500
1494036500.3588190079,       -0.6240234375,        0.4262695312,        0.0903320312,        1.9531250000,       -3.1585693359,       61.3403320312
1494036500.3613729477,       -0.6240234375,        0.4936523438,        0.1123046875,        0.6866455078,       -4.7607421875,       61.3403320312
1494036500.3640511036,       -0.5952148438,        0.4936523438,        0.1123046875,        0.6866455078,       -4.7607421875,       61.3403320312
1494036500.3666028976,       -0.5952148438,        0.4936523438,        0.1123046875,        2.0294189453,       -6.8054199219,       61.1572265625
1494036500.3691520691,       -0.5952148438,        0.4936523438,        0.1123046875,        2.0294189453,       -6.8054199219,       61.1572265625
1494036500.3716969490,       -0.7202148438,        0.4877929688,        0.1059570312,        4.9438476562,       -8.2855224609,       61.3555908203
1494036500.3744089603,       -0.6259765625,        0.4877929688,        0.1059570312,        4.9438476562,       -8.2855224609,       61.3555908203
1494036500.3771059513,       -0.6259765625,        0.4877929688,        0.1059570312,        8.7432861328,       -9.9792480469,       62.4542236328
1494036500.3798019886,       -0.6259765625,        0.4877929688,        0.1059570312,        8.7432861328,       -9.9792480469,       62.4542236328
1494036500.3824949265,       -0.6323242188,        0.4116210938,        0.0986328125,       12.6190185547,      -10.8795166016,       63.3697509766
1494036500.3851981163,       -0.6323242188,        0.4116210938,        0.0986328125,       12.6190185547,      -10.8795166016,       63.3697509766
1494036500.3878951073,       -0.6323242188,        0.4116210938,        0.0986328125,       15.6402587891,      -11.9781494141,       63.5986328125
1494036500.3905870914,       -0.6323242188,        0.4116210938,        0.0986328125,       15.6402587891,      -11.9781494141,       63.5986328125
1494036500.3932960033,       -0.5957031250,        0.4448242188,        0.1479492188,       14.8010253906,      -13.7176513672,       64.3463134766
1494036500.3959989548,       -0.5957031250,        0.4448242188,        0.1479492188,       14.8010253906,      -13.7176513672,       64.3463134766
1494036500.3987009525,       -0.5957031250,        0.4448242188,        0.1479492188,       15.6555175781,      -13.9617919922,       65.1245117188
1494036500.4014060497,       -0.5957031250,        0.5698242188,        0.1049804688,       15.6555175781,      -13.9617919922,       65.1245117188
1494036500.4040760994,       -0.5888671875,        0.5083007812,        0.1049804688,       18.2189941406,      -15.1824951172,       65.8111572266
1494036500.4066379070,       -0.5888671875,        0.5083007812,        0.1049804688,       18.2189941406,      -15.1824951172,       65.8111572266
1494036500.4092040062,       -0.5888671875,        0.5083007812,        0.1049804688,       20.6451416016,      -16.4794921875,       65.9179687500
1494036500.4117610455,       -0.5888671875,        0.4770507812,        0.0839843750,       20.6451416016,      -16.4794921875,       65.9179687500
1494036500.4144160748,       -0.5932617188,        0.4770507812,        0.0839843750,       20.5688476562,      -17.6544189453,       66.2841796875
1494036500.4174730778,       -0.5932617188,        0.4770507812,        0.0839843750,       20.5688476562,      -17.6544189453,       66.2841796875
1494036500.4206039906,       -0.5932617188,        0.4770507812,        0.0839843750,       20.1873779297,      -18.1732177734,       66.7114257812
1494036500.4234259129,       -0.6147460938,        0.4580078125,        0.0668945312,       20.1873779297,      -18.1732177734,       66.7114257812
1494036500.4260990620,       -0.6147460938,        0.4580078125,        0.0668945312,       19.5770263672,      -17.7459716797,       67.3828125000
1494036500.4287741184,       -0.6147460938,        0.4580078125,        0.0668945312,       15.6707763672,      -17.7612304688,       68.1762695312
1494036500.4331309795,       -0.6103515625,        0.4790039062,        0.0390625000,       18.3715820312,      -17.7612304688,       68.1762695312
1494036500.4358870983,       -0.6103515625,        0.4790039062,        0.0390625000,       17.3492431641,      -18.4936523438,       69.2749023438
1494036500.4385900497,       -0.6103515625,        0.4790039062,        0.0390625000,       17.3492431641,      -18.4936523438,       69.2749023438
1494036500.4412848949,       -0.6103515625,        0.4790039062,        0.0390625000,       16.7694091797,      -18.3868408203,       70.2514648438
1494036500.4439918995,       -0.6289062500,        0.4750976562,        0.0375976562,       16.7694091797,      -18.3868408203,       70.2514648438
1494036500.4466929436,       -0.6289062500,        0.4750976562,        0.0375976562,       14.5568847656,      -17.2271728516,       71.1517333984
1494036500.4493920803,       -0.6289062500,        0.4750976562,        0.0375976562,       14.5568847656,      -17.2271728516,       71.1517333984
1494036500.4520869255,       -0.6289062500,        0.4785156250,        0.0527343750,       12.7716064453,      -16.7083740234,       72.5402832031
1494036500.4547960758,       -0.6562500000,        0.4785156250,        0.0527343750,       12.7716064453,      -16.7083740234,       72.5402832031
1494036500.4574930668,       -0.6562500000,        0.4785156250,        0.0527343750,       11.4898681641,      -16.8914794922,       73.9746093750
1494036500.4601941109,       -0.6562500000,        0.4785156250,        0.0527343750,       11.4898681641,      -16.8914794922,       73.9746093750
1494036500.4628970623,       -0.6591796875,        0.4785156250,        0.0698242188,       10.6201171875,      -16.9525146484,       75.2868652344
1494036500.4654669762,       -0.6591796875,        0.4785156250,        0.0698242188,       10.6201171875,      -16.9525146484,       75.2868652344
1494036500.4680280685,       -0.6591796875,        0.4785156250,        0.0698242188,       10.6201171875,      -16.8457031250,       77.2857666016
1494036500.4708249569,       -0.6591796875,        0.4785156250,        0.0698242188,        9.6588134766,      -16.8457031250,       77.2857666016
1494036500.4742920399,       -0.6279296875,        0.4653320312,        0.0810546875,        9.0332031250,      -16.9677734375,       79.2541503906
1494036500.4768509865,       -0.6279296875,        0.4653320312,        0.0810546875,        9.0332031250,      -16.9677734375,       79.2541503906
1494036500.4794139862,       -0.6279296875,        0.4653320312,        0.0810546875,        9.0789794922,      -16.7236328125,       80.7952880859
1494036500.4819669724,       -0.6279296875,        0.4653320312,        0.0805664062,        9.0789794922,      -16.7236328125,       80.7952880859
1494036500.4846279621,       -0.5708007812,        0.4912109375,        0.0805664062,        7.9345703125,      -16.4184570312,       81.6497802734
1494036500.4873280525,       -0.5708007812,        0.4912109375,        0.0805664062,        7.9345703125,      -16.4184570312,       81.6497802734
1494036500.4900269508,       -0.5708007812,        0.4912109375,        0.0805664062,        4.0283203125,      -16.6625976562,       82.5805664062
1494036500.4927229881,       -0.5708007812,        0.5190429688,        0.0639648438,        7.5378417969,      -16.6625976562,       82.5805664062
1494036500.4954600334,       -0.5058593750,        0.5190429688,        0.0639648438,       11.4440917969,      -17.0593261719,       83.3740234375
1494036500.4982659817,       -0.5058593750,        0.5190429688,        0.0639648438,        8.7585449219,      -17.0593261719,       83.3740234375
1494036500.5009629726,       -0.5058593750,        0.5190429688,        0.0639648438,        9.3231201172,      -17.1508789062,       84.5489501953
1494036500.5036549568,       -0.4340820312,        0.5415039062,        0.0556640625,        9.3231201172,      -17.1508789062,       84.5489501953
1494036500.5062150955,       -0.4340820312,        0.5415039062,        0.0556640625,        9.3231201172,      -18.0053710938,       84.9914550781
1494036500.5087699890,       -0.4340820312,        0.5415039062,        0.0556640625,        9.3841552734,      -18.0053710938,       84.9914550781
1494036500.5113270283,       -0.4340820312,        0.5415039062,        0.0556640625,        9.3841552734,      -18.0053710938,       84.6405029297
1494036500.5139958858,       -0.4301757812,        0.5795898438,        0.0825195312,        9.0026855469,      -18.8293457031,       84.6405029297
1494036500.5165569782,       -0.4301757812,        0.5795898438,        0.0825195312,        9.0026855469,      -18.8293457031,       83.9080810547
1494036500.5191099644,       -0.4301757812,        0.5795898438,        0.0825195312,        9.2163085938,      -18.6767578125,       83.9080810547
1494036500.5216610432,       -0.4301757812,        0.5795898438,        0.0825195312,        9.2163085938,      -18.6767578125,       83.9080810547
1494036500.5244190693,       -0.4780273438,        0.5419921875,        0.0673828125,        9.4451904297,      -18.6309814453,       83.8623046875
1494036500.5271160603,       -0.4780273438,        0.5419921875,        0.0673828125,        9.4451904297,      -18.6309814453,       83.8623046875
1494036500.5298120975,       -0.4780273438,        0.5419921875,        0.0673828125,        9.8571777344,      -19.4244384766,       84.3811035156
1494036500.5325028896,       -0.4780273438,        0.4169921875,        0.0727539062,        9.8571777344,      -19.4244384766,       84.3811035156
1494036500.5352020264,       -0.4794921875,        0.4809570312,        0.0727539062,        8.9721679688,      -18.8751220703,       84.7930908203
1494036500.5378971100,       -0.4794921875,        0.4809570312,        0.0727539062,        8.9721679688,      -18.8751220703,       84.7930908203
1494036500.5408339500,       -0.4794921875,        0.4809570312,        0.0727539062,        6.1035156250,      -18.8446044922,       84.5794677734
1494036500.5439019203,       -0.4501953125,        0.5717773438,        0.0815429688,        6.1035156250,      -18.8446044922,       84.0301513672
1494036500.5466039181,       -0.4501953125,        0.5717773438,        0.0815429688,        3.2196044922,      -18.8293457031,       84.0301513672
1494036500.5493071079,       -0.4501953125,        0.5717773438,        0.0815429688,        3.2196044922,      -18.8293457031,       83.3587646484
1494036500.5520040989,       -0.4501953125,        0.5717773438,        0.0815429688,        2.2277832031,      -19.3634033203,       83.3587646484
1494036500.5546429157,       -0.4746093750,        0.5849609375,        0.0678710938,        2.2277832031,      -19.3634033203,       83.9385986328
1494036500.5572049618,       -0.4746093750,        0.5849609375,        0.0678710938,        3.6621093750,      -19.1040039062,       83.9385986328
1494036500.5597651005,       -0.4746093750,        0.5849609375,        0.0678710938,        3.6621093750,      -19.1040039062,       83.9385986328
1494036500.5623240471,       -0.4746093750,        0.5849609375,        0.0678710938,        5.1116943359,      -18.6920166016,       84.6252441406
1494036500.5649840832,       -0.4453125000,        0.5200195312,        0.0493164062,        5.1116943359,      -18.6920166016,       84.6252441406
1494036500.5676829815,       -0.4453125000,        0.5200195312,        0.0493164062,        4.9438476562,      -18.5546875000,       85.1745605469
1494036500.5703790188,       -0.4453125000,        0.5200195312,        0.0493164062,        4.9438476562,      -18.5546875000,       85.1745605469
1494036500.5732018948,       -0.4453125000,        0.5590820312,        0.0571289062,        3.6468505859,      -18.1427001953,       85.8459472656
1494036500.5757629871,       -0.3886718750,        0.5590820312,        0.0571289062,        3.6468505859,      -18.1427001953,       85.8459472656
1494036500.5783181190,       -0.3886718750,        0.5590820312,        0.0571289062,        2.2735595703,      -18.1732177734,       86.7614746094
1494036500.5808799267,       -0.3886718750,        0.5590820312,        0.0571289062,        2.2735595703,      -18.1732177734,       86.7614746094
1494036500.5834770203,       -0.3886718750,        0.6171875000,        0.0908203125,        2.7160644531,      -18.8903808594,       87.5244140625
1494036500.5860350132,       -0.4033203125,        0.6171875000,        0.0908203125,        2.7160644531,      -18.8903808594,       87.5244140625
1494036500.5885870457,       -0.4033203125,        0.6171875000,        0.0908203125,        4.0435791016,      -19.6685791016,       88.9129638672
1494036500.5911400318,       -0.4033203125,        0.6171875000,        0.0908203125,        4.0435791016,      -19.6685791016,       88.9129638672
1494036500.5938088894,       -0.4726562500,        0.5737304688,        0.1025390625,        6.2408447266,      -20.4925537109,       90.6219482422
1494036500.5963699818,       -0.4726562500,        0.5737304688,        0.1025390625,        6.2408447266,      -20.4925537109,       90.6219482422
1494036500.5989279747,       -0.4726562500,        0.5737304688,        0.1025390625,        6.2408447266,      -20.7977294922,       92.7734375000
1494036500.6014809608,       -0.4726562500,        0.5737304688,        0.1025390625,        6.0424804688,      -20.7977294922,       92.7734375000
1494036500.6041688919,       -0.5214843750,        0.5615234375,        0.1406250000,        6.0424804688,      -21.3775634766,       93.8262939453
1494036500.6067280769,       -0.5214843750,        0.5615234375,        0.1406250000,        3.8909912109,      -21.3775634766,       93.8262939453
1494036500.6092870235,       -0.5214843750,        0.5615234375,        0.1406250000,        3.8909912109,      -21.3775634766,       94.5281982422
1494036500.6118409634,       -0.5214843750,        0.5615234375,        0.1406250000,        1.6174316406,      -21.4843750000,       94.5281982422
1494036500.6145000458,       -0.5805664062,        0.6401367188,        0.1547851562,        1.6174316406,      -21.4843750000,       94.7265625000
1494036500.6171889305,       -0.5805664062,        0.6401367188,        0.1547851562,        0.0915527344,      -21.1791992188,       94.7265625000
1494036500.6198720932,       -0.5805664062,        0.6401367188,        0.1547851562,        0.0915527344,      -21.1791992188,       94.3756103516
1494036500.6225590706,       -0.5805664062,        0.6401367188,        0.1547851562,        0.1678466797,      -20.7519531250,       94.3756103516
1494036500.6252789497,       -0.6337890625,        0.7226562500,        0.1245117188,        0.1678466797,      -20.7519531250,       94.0399169922
1494036500.6279690266,       -0.6337890625,        0.7226562500,        0.1245117188,        1.3580322266,      -19.9127197266,       94.0399169922
1494036500.6306519508,       -0.6337890625,        0.7226562500,        0.1245117188,        1.3580322266,      -19.9127197266,       90.1336669922
1494036500.6333289146,       -0.6337890625,        0.7226562500,        0.1083984375,        2.8533935547,      -18.1274414062,       92.8192138672
1494036500.6358909607,       -0.7119140625,        0.7158203125,        0.1083984375,        2.8533935547,      -18.1274414062,       92.8192138672
1494036500.6384429932,       -0.7119140625,        0.7158203125,        0.1083984375,        5.2185058594,      -15.3656005859,       92.2698974609
1494036500.6410140991,       -0.7119140625,        0.7158203125,        0.1083984375,        5.2185058594,      -15.3656005859,       92.2698974609
1494036500.6437849998,       -0.7119140625,        0.6445312500,        0.0654296875,        6.9274902344,      -11.5814208984,       91.8426513672
1494036500.6464619637,       -0.7495117188,        0.6445312500,        0.0654296875,        6.9274902344,      -11.5814208984,       91.8426513672
1494036500.6490240097,       -0.7495117188,        0.6445312500,        0.0654296875,        7.6904296875,       -6.5155029297,       91.1254882812
1494036500.6515750885,       -0.7495117188,        0.6445312500,        0.0654296875,        7.6904296875,       -6.5155029297,       91.1254882812
1494036500.6542289257,       -0.7495117188,        0.6250000000,        0.0507812500,        6.1798095703,       -2.0751953125,       90.0573730469
1494036500.6567730904,       -0.6503906250,        0.6250000000,        0.0507812500,        6.1798095703,       -2.0751953125,       90.0573730469
1494036500.6594159603,       -0.6503906250,        0.6250000000,        0.0507812500,        2.3803710938,        1.7547607422,       87.8753662109
1494036500.6619880199,       -0.6503906250,        0.6250000000,        0.0507812500,        2.3803710938,        1.7547607422,       87.8753662109
1494036500.6650660038,       -0.5854492188,        0.6733398438,        0.0727539062,       -0.9765625000,        5.7678222656,       84.3658447266
1494036500.6677639484,       -0.5854492188,        0.6733398438,        0.0727539062,       -0.9765625000,        5.7678222656,       84.3658447266
1494036500.6704568863,       -0.5854492188,        0.6733398438,        0.0727539062,       -1.6174316406,        9.2010498047,       81.5734863281
1494036500.6731910706,       -0.5854492188,        0.6733398438,        0.0727539062,       -1.6174316406,        9.2010498047,       81.5734863281
1494036500.6758871078,       -0.4912109375,        0.6704101562,        0.0893554688,       -0.6866455078,       11.8865966797,       79.3914794922
1494036500.6785819530,       -0.4912109375,        0.6704101562,        0.0893554688,       -0.6866455078,       11.8865966797,       79.3914794922
1494036500.6812820435,       -0.4912109375,        0.6704101562,        0.0893554688,        0.8544921875,       13.6871337891,       76.7059326172
1494036500.6839840412,       -0.4912109375,        0.5454101562,        0.1381835938,        0.8544921875,       13.6871337891,       76.7059326172
1494036500.6866788864,       -0.4018554688,        0.6093750000,        0.1381835938,        1.6174316406,       15.1977539062,       73.9440917969
1494036500.6893761158,       -0.4018554688,        0.6093750000,        0.1381835938,        1.6174316406,       15.1977539062,       73.9440917969
1494036500.6920740604,       -0.4018554688,        0.6093750000,        0.1381835938,        1.4343261719,       17.1051025391,       70.8312988281
1494036500.6947090626,       -0.3120117188,        0.6225585938,        0.1591796875,        1.4343261719,       17.1051025391,       70.8312988281
1494036500.6972630024,       -0.3120117188,        0.6225585938,        0.1591796875,        0.6561279297,       19.2871093750,       66.7419433594
1494036500.6998200417,       -0.3120117188,        0.6225585938,        0.1591796875,        0.6561279297,       19.2871093750,       66.7419433594
1494036500.7023720741,       -0.3120117188,        0.6225585938,        0.1591796875,        1.4038085938,       21.4843750000,       61.9659423828
1494036500.7049739361,       -0.2275390625,        0.6845703125,        0.1713867188,        1.4038085938,       21.4843750000,       61.9659423828
1494036500.7075250149,       -0.2275390625,        0.6845703125,        0.1713867188,        1.4038085938,       25.3906250000,       57.0831298828
1494036500.7100799084,       -0.2275390625,        0.6845703125,        0.1713867188,        4.3029785156,       23.5595703125,       57.0831298828
1494036500.7126340866,       -0.2275390625,        0.6845703125,        0.1713867188,        4.3029785156,       23.5595703125,       52.3986816406
1494036500.7153429985,       -0.2255859375,        0.7216796875,        0.1835937500,       10.9252929688,       24.5056152344,       52.3986816406
1494036500.7180039883,       -0.2255859375,        0.7216796875,        0.1835937500,       10.9252929688,       24.5056152344,       47.0733642578
1494036500.7205660343,       -0.2255859375,        0.7216796875,        0.1835937500,       15.6707763672,       25.1922607422,       47.0733642578
1494036500.7231249809,       -0.2255859375,        0.7216796875,        0.1835937500,       15.6707763672,       25.1922607422,       39.2608642578
1494036500.7258369923,       -0.2045898438,        0.7402343750,        0.2299804688,       14.7705078125,       24.4140625000,       41.0766601562
1494036500.7285270691,       -0.2045898438,        0.7402343750,        0.2299804688,       14.7705078125,       24.4140625000,       37.1704101562
1494036500.7312130928,       -0.2045898438,        0.7402343750,        0.2299804688,       16.1743164062,       23.2849121094,       37.4450683594
1494036500.7339050770,       -0.2045898438,        0.7402343750,        0.2299804688,       16.1743164062,       23.2849121094,       37.4450683594
1494036500.7365660667,       -0.2583007812,        0.8974609375,        0.2485351562,       21.4080810547,       21.1029052734,       35.8276367188
1494036500.7392239571,       -0.2583007812,        0.8974609375,        0.2485351562,       21.4080810547,       21.1029052734,       35.8276367188
1494036500.7418820858,       -0.2583007812,        0.8974609375,        0.2485351562,       27.1148681641,       18.0206298828,       34.5916748047
1494036500.7445690632,       -0.2583007812,        0.7724609375,        0.2724609375,       27.1148681641,       18.0206298828,       34.5916748047
1494036500.7472670078,       -0.3320312500,        0.8330078125,        0.2724609375,       35.2325439453,       14.2364501953,       31.5704345703
1494036500.7499659061,       -0.3320312500,        0.8330078125,        0.2724609375,       35.2325439453,       14.2364501953,       31.5704345703
1494036500.7526650429,       -0.3320312500,        0.8330078125,        0.2724609375,       44.2047119141,       10.6964111328,       28.9306640625
1494036500.7552669048,       -0.3276367188,        0.7182617188,        0.2573242188,       44.2047119141,       10.6964111328,       28.9306640625
1494036500.7578220367,       -0.3276367188,        0.7182617188,        0.2573242188,       49.4384765625,        7.2631835938,       28.2440185547
1494036500.7603759766,       -0.3276367188,        0.7182617188,        0.2573242188,       49.4384765625,        7.2631835938,       28.2440185547
1494036500.7629289627,       -0.3276367188,        0.7182617188,        0.2573242188,       49.5910644531,        3.8757324219,       28.5034179688
1494036500.7656230927,       -0.2788085938,        0.6508789062,        0.2255859375,       49.5910644531,        3.8757324219,       28.5034179688
1494036500.7683210373,       -0.2788085938,        0.6508789062,        0.2255859375,       45.6542968750,       -0.3662109375,       27.4963378906
1494036500.7710139751,       -0.2788085938,        0.6508789062,        0.2255859375,       45.6542968750,       -0.3662109375,       27.4963378906
1494036500.7737169266,       -0.2788085938,        0.6508789062,        0.2255859375,       36.1785888672,       -5.2490234375,       24.7650146484
1494036500.7764129639,       -0.2363281250,        0.5893554688,        0.2255859375,       36.1785888672,       -5.2490234375,       24.7650146484
1494036500.7791039944,       -0.2363281250,        0.5893554688,        0.2255859375,       24.5513916016,       -7.7362060547,       21.3775634766
1494036500.7819991112,       -0.2363281250,        0.5893554688,        0.2255859375,       24.5513916016,       -7.7362060547,       21.3775634766
1494036500.7850260735,       -0.2363281250,        0.6459960938,        0.1127929688,       15.5792236328,       -8.2550048828,       19.1345214844
1494036500.7877290249,       -0.2490234375,        0.6459960938,        0.1127929688,       15.5792236328,       -8.2550048828,       19.1345214844
1494036500.7904279232,       -0.2490234375,        0.6459960938,        0.1127929688,        9.4757080078,       -8.6822509766,       19.1497802734
1494036500.7932379246,       -0.2490234375,        0.6459960938,        0.1127929688,        9.4757080078,       -8.6822509766,       19.1497802734
1494036500.7959399223,       -0.2304687500,        0.7456054688,        0.0952148438,        7.2937011719,      -10.6964111328,       19.9432373047
1494036500.7986369133,       -0.2304687500,        0.7456054688,        0.0952148438,        7.2937011719,      -10.6964111328,       19.9432373047
1494036500.8013310432,       -0.2304687500,        0.7456054688,        0.0952148438,        7.8430175781,      -13.9312744141,       19.8669433594
1494036500.8040320873,       -0.2304687500,        0.7456054688,        0.0952148438,        7.8430175781,      -13.9312744141,       19.8669433594
1494036500.8065850735,       -0.1962890625,        0.7197265625,        0.1396484375,       10.6201171875,      -17.2271728516,       19.6685791016
1494036500.8091421127,       -0.1962890625,        0.7197265625,        0.1396484375,       10.6201171875,      -17.2271728516,       19.6685791016
1494036500.8116989136,       -0.1962890625,        0.7197265625,        0.1396484375,       14.2822265625,      -19.1802978516,       18.9208984375
1494036500.8142669201,       -0.1962890625,        0.7197265625,        0.1396484375,       14.2822265625,      -19.1802978516,       18.9208984375
1494036500.8168230057,       -0.1611328125,        0.6523437500,        0.0961914062,       18.5241699219,      -19.5770263672,       18.8903808594
1494036500.8193790913,       -0.1611328125,        0.6523437500,        0.0961914062,       18.5241699219,      -19.5770263672,       18.8903808594
1494036500.8219330311,       -0.1611328125,        0.6523437500,        0.0961914062,       18.5241699219,      -19.9279785156,       18.7072753906
1494036500.8244950771,       -0.1611328125,        0.6523437500,        0.0961914062,       21.3775634766,      -19.9279785156,       18.7072753906
1494036500.8270509243,       -0.1162109375,        0.5854492188,        0.0405273438,       21.3775634766,      -19.9279785156,       18.5546875000
1494036500.8296101093,       -0.1162109375,        0.5854492188,        0.0405273438,       23.3306884766,      -20.4010009766,       18.5546875000
1494036500.8321681023,       -0.1162109375,        0.5854492188,        0.0405273438,       23.3306884766,      -20.4010009766,       18.5546875000
1494036500.8347671032,       -0.1162109375,        0.5854492188,        0.0405273438,       25.3601074219,      -20.9960937500,       17.5018310547
1494036500.8373219967,       -0.0830078125,        0.5356445312,       -0.0244140625,       25.3601074219,      -20.9960937500,       17.5018310547
1494036500.8398790359,       -0.0830078125,        0.5356445312,       -0.0244140625,       31.2347412109,      -21.3623046875,       15.4418945312
1494036500.8424360752,       -0.0830078125,        0.5356445312,       -0.0244140625,       31.2347412109,      -21.3623046875,       15.4418945312
1494036500.8452239037,       -0.0830078125,        0.5356445312,       -0.0073242188,       38.8641357422,      -23.7731933594,        9.3078613281
1494036500.8479270935,       -0.1074218750,        0.1962890625,       -0.0073242188,       38.8641357422,      -23.7731933594,        9.3078613281
1494036500.8506278992,       -0.1074218750,        0.1962890625,       -0.0073242188,       43.8385009766,      -24.9786376953,       -0.5798339844
1494036500.8533239365,       -0.1074218750,        0.1962890625,       -0.0073242188,       43.8385009766,      -24.9786376953,       -0.5798339844
1494036500.8558759689,       -0.2324218750,       -0.0791015625,       -0.0332031250,       51.5289306641,      -25.2838134766,      -11.2609863281
1494036500.8584339619,       -0.2138671875,       -0.0791015625,       -0.0332031250,       51.5289306641,      -25.2838134766,      -11.2609863281
1494036500.8609900475,       -0.2138671875,       -0.0791015625,       -0.0332031250,       58.5479736328,      -25.8331298828,      -18.4478759766
1494036500.8636178970,       -0.2138671875,       -0.0791015625,       -0.0332031250,       58.5479736328,      -25.8331298828,      -18.4478759766
1494036500.8664278984,       -0.2905273438,        0.0795898438,       -0.1435546875,       62.9272460938,      -24.1546630859,      -21.2097167969
1494036500.8691229820,       -0.2905273438,        0.0795898438,       -0.1435546875,       62.9272460938,      -24.1546630859,      -21.2097167969
1494036500.8718190193,       -0.2905273438,        0.0795898438,       -0.1435546875,       65.5975341797,      -21.2707519531,      -24.5666503906
1494036500.8745260239,       -0.2905273438,        0.0795898438,       -0.1435546875,       65.5975341797,      -21.2707519531,      -24.5666503906
1494036500.8772211075,       -0.3349609375,        0.1416015625,       -0.1977539062,       63.8122558594,      -17.9595947266,      -31.3110351562
1494036500.8799180984,       -0.3349609375,        0.1416015625,       -0.1977539062,       63.8122558594,      -17.9595947266,      -31.3110351562
1494036500.8826169968,       -0.3349609375,        0.1416015625,       -0.1977539062,       60.4248046875,      -13.6566162109,      -40.5578613281
1494036500.8853220940,       -0.3349609375,        0.1416015625,       -0.1977539062,       60.4248046875,      -13.6566162109,      -40.5578613281
1494036500.8880219460,       -0.3120117188,        0.0576171875,       -0.1865234375,       56.2591552734,       -9.0789794922,      -49.3011474609
1494036500.8907139301,       -0.3120117188,        0.0576171875,       -0.1865234375,       56.2591552734,       -9.0789794922,      -49.3011474609
1494036500.8934540749,       -0.3120117188,        0.0576171875,       -0.1865234375,       49.8046875000,       -5.2642822266,      -56.1828613281
1494036500.8961489201,       -0.3120117188,        0.0659179688,       -0.1528320312,       49.8046875000,       -5.2642822266,      -56.1828613281
1494036500.8988440037,       -0.3061523438,        0.0659179688,       -0.1528320312,       41.2750244141,       -2.4108886719,      -63.1561279297
1494036500.9016261101,       -0.3061523438,        0.0659179688,       -0.1528320312,       41.2750244141,       -2.4108886719,      -63.1561279297
1494036500.9046111107,       -0.3061523438,        0.0659179688,       -0.1528320312,       33.7219238281,        0.2593994141,      -70.1751708984
1494036500.9071700573,       -0.2885742188,        0.0996093750,       -0.0815429688,       33.7219238281,        0.2593994141,      -70.1751708984
1494036500.9097280502,       -0.2885742188,        0.0996093750,       -0.0815429688,       28.6407470703,        2.3040771484,      -77.1942138672
1494036500.9122810364,       -0.2885742188,        0.0996093750,       -0.0815429688,       28.6407470703,        2.3040771484,      -77.1942138672
1494036500.9149389267,       -0.2885742188,        0.0996093750,       -0.0815429688,       26.9622802734,        3.8299560547,      -83.9691162109
1494036500.9176299572,       -0.2807617188,        0.1748046875,       -0.0493164062,       26.9622802734,        3.8299560547,      -83.9691162109
1494036500.9203178883,       -0.2807617188,        0.1748046875,       -0.0493164062,       27.7404785156,        5.6610107422,      -89.1265869141
1494036500.9230101109,       -0.2807617188,        0.1748046875,       -0.0493164062,       27.7404785156,        5.6610107422,      -89.1265869141
1494036500.9257109165,       -0.2807617188,        0.1748046875,       -0.0493164062,       29.6173095703,        7.3089599609,      -93.3227539062
1494036500.9284029007,       -0.2983398438,        0.2587890625,       -0.0117187500,       29.6173095703,        7.3089599609,      -93.3227539062
1494036500.9310929775,       -0.2983398438,        0.2587890625,       -0.0117187500,       33.0352783203,        7.5988769531,      -97.5036621094
1494036500.9337680340,       -0.2983398438,        0.2587890625,       -0.0117187500,       33.0352783203,        7.5988769531,      -97.5036621094
1494036500.9363238811,       -0.2983398438,        0.3442382812,       -0.0009765625,       36.9415283203,        7.9803466797,     -101.4556884766
1494036500.9389851093,       -0.3271484375,        0.3442382812,       -0.0009765625,       37.5366210938,        7.9803466797,     -101.4556884766
1494036500.9415409565,       -0.3271484375,        0.3442382812,       -0.0009765625,       37.5366210938,        7.9803466797,     -105.4534912109
1494036500.9440989494,       -0.3271484375,        0.3442382812,       -0.0009765625,       42.0227050781,        8.3312988281,     -105.4534912109
1494036500.9466528893,       -0.3271484375,        0.3862304688,       -0.0200195312,       42.0227050781,        8.3312988281,     -109.2681884766
1494036500.9492070675,       -0.3461914062,        0.3862304688,       -0.0200195312,       45.2575683594,        8.6059570312,     -109.2681884766
1494036500.9517591000,       -0.3461914062,        0.3862304688,       -0.0200195312,       45.2575683594,        8.6059570312,     -113.1744384766
1494036500.9544138908,       -0.3461914062,        0.3862304688,       -0.0200195312,       46.9818115234,        9.2163085938,     -112.3199462891
1494036500.9569709301,       -0.3676757812,        0.3872070312,       -0.0498046875,       46.9818115234,        9.2163085938,     -112.3199462891
1494036500.9595279694,       -0.3676757812,        0.3872070312,       -0.0498046875,       46.7987060547,       10.1776123047,     -114.9444580078
1494036500.9620931149,       -0.3676757812,        0.3872070312,       -0.0498046875,       46.7987060547,       10.1776123047,     -114.9444580078
1494036500.9649329185,       -0.3676757812,        0.3872070312,       -0.0498046875,       44.2810058594,       11.2304687500,     -117.5994873047
1494036500.9676370621,       -0.3808593750,        0.3828125000,       -0.0932617188,       44.2810058594,       11.2304687500,     -117.5994873047
1494036500.9703409672,       -0.3808593750,        0.3828125000,       -0.0932617188,       41.4123535156,       12.1154785156,     -119.9798583984
1494036500.9730410576,       -0.3808593750,        0.3828125000,       -0.0932617188,       41.4123535156,       12.1154785156,     -119.9798583984
1494036500.9757471085,       -0.3808593750,        0.3828125000,       -0.0932617188,       37.2467041016,       12.7105712891,     -121.7041015625
1494036500.9784479141,       -0.4165039062,        0.3852539062,       -0.0947265625,       37.2467041016,       12.7105712891,     -121.7041015625
1494036500.9811511040,       -0.4165039062,        0.3852539062,       -0.0947265625,       32.2113037109,       14.1754150391,     -123.3062744141
1494036500.9838919640,       -0.4165039062,        0.3852539062,       -0.0947265625,       32.2113037109,       14.1754150391,     -123.3062744141
1494036500.9865899086,       -0.4165039062,        0.3852539062,       -0.0825195312,       26.4739990234,       15.5639648438,     -125.2746582031
1494036500.9892849922,       -0.4243164062,        0.3940429688,       -0.0825195312,       26.4739990234,       15.5639648438,     -125.2746582031
1494036500.9919900894,       -0.4243164062,        0.3940429688,       -0.0825195312,       20.2636718750,       16.9067382812,     -127.4414062500
1494036500.9946279526,       -0.4243164062,        0.3940429688,       -0.0825195312,       20.2636718750,       16.9067382812,     -127.4414062500
1494036500.9971868992,       -0.4243164062,        0.4252929688,       -0.0620117188,       13.4887695312,       17.7459716797,     -129.7149658203
1494036500.9997439384,       -0.4462890625,        0.4252929688,       -0.0620117188,       13.4887695312,       17.7459716797,     -129.7149658203
1494036501.0023019314,       -0.4462890625,        0.4252929688,       -0.0620117188,        7.0037841797,       18.4478759766,     -131.9580078125
1494036501.0049760342,       -0.4462890625,        0.4252929688,       -0.0620117188,        7.0037841797,       18.4478759766,     -131.9580078125
1494036501.0075249672,       -0.4462890625,        0.4667968750,       -0.0263671875,        0.8392333984,       19.0124511719,     -134.1247558594
1494036501.0100739002,       -0.4462890625,        0.4667968750,       -0.0263671875,        0.8392333984,       19.0124511719,     -134.1247558594
1494036501.0127379894,       -0.4462890625,        0.4667968750,       -0.0263671875,       -3.5858154297,       18.8293457031,     -135.4675292969
1494036501.0154259205,       -0.4462890625,        0.4667968750,       -0.0263671875,       -3.5858154297,       18.8293457031,     -135.4675292969
1494036501.0181210041,       -0.4531250000,        0.4980468750,       -0.0024414062,       -6.2866210938,       17.1966552734,     -136.5509033203
1494036501.0209391117,       -0.4531250000,        0.4980468750,       -0.0024414062,       -6.2866210938,       17.1966552734,     -136.5509033203
1494036501.0236790180,       -0.4531250000,        0.4980468750,       -0.0024414062,       -9.0026855469,       16.0980224609,     -137.9547119141
1494036501.0264880657,       -0.4531250000,        0.4980468750,        0.1225585938,       -9.0026855469,       16.0980224609,     -137.9547119141
1494036501.0293889046,       -0.4746093750,        0.5083007812,        0.0224609375,      -10.3759765625,       15.4418945312,     -139.3585205078
1494036501.0320980549,       -0.4746093750,        0.5083007812,        0.0224609375,      -10.3759765625,       15.4418945312,     -139.3585205078
1494036501.0348060131,       -0.4746093750,        0.5083007812,        0.0224609375,      -10.2691650391,       15.0146484375,     -141.0064697266
1494036501.0375070572,       -0.4746093750,        0.5146484375,        0.0292968750,      -10.2691650391,       15.0146484375,     -141.0064697266
1494036501.0402059555,       -0.5000000000,        0.5146484375,        0.0292968750,      -10.8337402344,       15.0756835938,     -142.2882080078
1494036501.0429029465,       -0.5000000000,        0.5146484375,        0.0292968750,      -10.8337402344,       15.0756835938,     -142.2882080078
1494036501.0456070900,       -0.5000000000,        0.5146484375,        0.0292968750,      -11.3983154297,       14.6484375000,     -143.0664062500
1494036501.0483078957,       -0.5151367188,        0.5322265625,        0.0322265625,      -11.3983154297,       14.6484375000,     -143.0664062500
1494036501.0510048866,       -0.5151367188,        0.5322265625,        0.0322265625,      -11.4440917969,       14.0380859375,     -143.4020996094
1494036501.0537009239,       -0.5151367188,        0.5322265625,        0.0322265625,      -11.4440917969,       14.0380859375,     -143.4020996094
1494036501.0562579632,       -0.5151367188,        0.5322265625,        0.0322265625,      -11.2152099609,       13.3666992188,     -144.3328857422
1494036501.0588181019,       -0.5341796875,        0.5527343750,        0.0385742188,      -11.2152099609,       13.3666992188,     -144.3328857422
1494036501.0613789558,       -0.5341796875,        0.5527343750,        0.0385742188,      -11.2152099609,       12.4206542969,     -144.9432373047
1494036501.0639491081,       -0.5341796875,        0.5527343750,        0.0385742188,      -10.5743408203,       12.4206542969,     -144.9432373047
1494036501.0665159225,       -0.5341796875,        0.5527343750,        0.0385742188,      -10.5743408203,       12.4206542969,     -145.4315185547
1494036501.0690739155,       -0.5507812500,        0.5688476562,        0.0361328125,       -9.8571777344,       11.5203857422,     -145.4315185547
1494036501.0716319084,       -0.5507812500,        0.5688476562,        0.0361328125,       -9.8571777344,       11.5203857422,     -145.5993652344
1494036501.0743479729,       -0.5507812500,        0.5688476562,        0.0361328125,       -8.8958740234,       10.6506347656,     -145.5993652344
1494036501.0769000053,       -0.5507812500,        0.5688476562,        0.0361328125,       -8.8958740234,       10.6506347656,     -145.5993652344
1494036501.0794520378,       -0.5869140625,        0.5571289062,        0.0434570312,       -8.4991455078,        9.3688964844,     -145.9960937500
1494036501.0820000172,       -0.5869140625,        0.5571289062,        0.0434570312,       -8.4991455078,        9.3688964844,     -145.9960937500
1494036501.0847849846,       -0.5869140625,        0.5571289062,        0.0434570312,       -7.4462890625,        7.7819824219,     -146.5606689453
1494036501.0875880718,       -0.5869140625,        0.5571289062,        0.0419921875,       -7.4462890625,        7.7819824219,     -146.5606689453
1494036501.0902779102,       -0.6157226562,        0.5419921875,        0.0419921875,       -6.5460205078,        5.6304931641,     -147.0184326172
1494036501.0929729939,       -0.6157226562,        0.5419921875,        0.0419921875,       -6.5460205078,        5.6304931641,     -147.0184326172
1494036501.0956799984,       -0.6157226562,        0.5419921875,        0.0419921875,       -5.4931640625,        4.3487548828,     -147.4609375000
1494036501.0983700752,       -0.6347656250,        0.5380859375,        0.0322265625,       -5.4931640625,        4.3487548828,     -147.4609375000
1494036501.1010510921,       -0.6347656250,        0.5380859375,        0.0322265625,       -4.3182373047,        3.4942626953,     -148.1475830078
1494036501.1037321091,       -0.6347656250,        0.5380859375,        0.0322265625,       -4.3182373047,        3.4942626953,     -148.1475830078
1494036501.1062870026,       -0.6347656250,        0.5380859375,        0.0322265625,       -3.6468505859,        2.7313232422,     -149.0020751953
1494036501.1088380814,       -0.6479492188,        0.5683593750,        0.0224609375,       -3.6468505859,        2.7313232422,     -149.0020751953
1494036501.1113889217,       -0.6479492188,        0.5683593750,        0.0224609375,       -2.8839111328,        2.6550292969,     -149.4903564453
1494036501.1139891148,       -0.6479492188,        0.5683593750,        0.0224609375,       -2.8839111328,        2.6550292969,     -149.4903564453
1494036501.1166849136,       -0.6479492188,        0.5683593750,        0.0224609375,       -1.9378662109,        2.8686523438,     -149.4445800781
1494036501.1193709373,       -0.6357421875,        0.6176757812,        0.0161132812,       -1.9378662109,        2.8686523438,     -149.4445800781
1494036501.1220610142,       -0.6357421875,        0.6176757812,        0.0161132812,       -0.3967285156,        2.6855468750,     -148.9410400391
1494036501.1247649193,       -0.6357421875,        0.6176757812,        0.0161132812,       -0.3967285156,        2.6855468750,     -148.9410400391
1494036501.1274569035,       -0.6357421875,        0.6176757812,        0.0161132812,        0.8697509766,        2.0904541016,     -148.0560302734
1494036501.1301538944,       -0.6337890625,        0.6171875000,        0.0200195312,        0.8697509766,        2.0904541016,     -148.0560302734
1494036501.1328461170,       -0.6337890625,        0.6171875000,        0.0200195312,        1.7395019531,        1.0681152344,     -147.4304199219
1494036501.1355540752,       -0.6337890625,        0.6171875000,        0.0200195312,        1.7395019531,        1.0681152344,     -147.4304199219
1494036501.1382439137,       -0.6337890625,        0.5341796875,        0.0219726562,        1.9226074219,        0.3509521484,     -146.5759277344
1494036501.1410219669,       -0.6523437500,        0.5341796875,        0.0219726562,        1.9226074219,        0.3509521484,     -146.5759277344
1494036501.1440949440,       -0.6523437500,        0.5341796875,        0.0219726562,        0.7019042969,       -0.5493164062,     -146.4080810547
1494036501.1467969418,       -0.6523437500,        0.5341796875,        0.0219726562,        0.7019042969,       -0.5493164062,     -146.4080810547
1494036501.1494948864,       -0.6855468750,        0.4775390625,        0.0083007812,       -0.7171630859,       -0.7934570312,     -145.6298828125
1494036501.1521930695,       -0.6855468750,        0.4775390625,        0.0083007812,       -0.7171630859,       -0.7934570312,     -145.6298828125
1494036501.1548171043,       -0.6855468750,        0.4775390625,        0.0083007812,       -2.1057128906,       -1.5716552734,     -145.4315185547
1494036501.1573750973,       -0.6855468750,        0.4775390625,        0.0083007812,       -2.1057128906,       -1.5716552734,     -145.4315185547
1494036501.1600298882,       -0.7226562500,        0.4560546875,       -0.0097656250,       -3.5247802734,       -3.1738281250,     -144.9584960938
1494036501.1625890732,       -0.7226562500,        0.4560546875,       -0.0097656250,       -3.5247802734,       -3.1738281250,     -144.9584960938
1494036501.1653029919,       -0.7226562500,        0.4560546875,       -0.0097656250,       -5.4626464844,       -3.8146972656,     -143.9666748047
1494036501.1679990292,       -0.7226562500,        0.4560546875,       -0.0209960938,       -5.4626464844,       -3.8146972656,     -143.9666748047
1494036501.1706941128,       -0.7255859375,        0.4257812500,       -0.0209960938,       -8.9111328125,       -3.7231445312,     -143.6767578125
1494036501.1734299660,       -0.7255859375,        0.4257812500,       -0.0209960938,       -8.9111328125,       -3.7231445312,     -143.6767578125
1494036501.1759810448,       -0.7255859375,        0.4257812500,       -0.0209960938,      -13.3666992188,       -3.5400390625,     -143.7072753906
1494036501.1785399914,       -0.7255859375,        0.3911132812,       -0.0175781250,      -13.3666992188,       -3.5400390625,     -143.7072753906
