time_stamp before, Acceleration x, Acceleration y, Acceleration z, Gyro x, Gyro y, Gyro z
1494036469.0148069859,       -0.6923828125,        0.2065429688,       -0.0903320312,      -11.5051269531,       -6.7901611328,       42.8314208984
1494036469.0269920826,       -0.6923828125,        0.2065429688,       -0.0903320312,      -11.5051269531,       -6.6223144531,       42.3736572266
1494036469.0297219753,       -0.6923828125,        0.2065429688,       -0.0903320312,      -15.4418945312,       -6.6223144531,       42.3736572266
1494036469.0324139595,       -0.6811523438,        0.1342773438,       -0.0390625000,      -19.7601318359,       -6.1340332031,       41.6107177734
1494036469.0355670452,       -0.6811523438,        0.1342773438,       -0.0390625000,      -19.7601318359,       -6.1340332031,       41.6107177734
1494036469.0382559299,       -0.6811523438,        0.1342773438,       -0.0390625000,      -24.6429443359,       -5.4168701172,       40.6188964844
1494036469.0409460068,       -0.6811523438,        0.0942382812,        0.0156250000,      -24.6429443359,       -5.4168701172,       40.6188964844
1494036469.0436840057,       -0.6718750000,        0.0942382812,        0.0156250000,      -29.6936035156,       -5.1727294922,       40.4510498047
1494036469.0463800430,       -0.6718750000,        0.0942382812,        0.0156250000,      -29.6936035156,       -5.1727294922,       40.4510498047
1494036469.0490679741,       -0.6718750000,        0.0942382812,        0.0156250000,      -34.0270996094,       -4.6997070312,       40.9698486328
1494036469.0517559052,       -0.6752929688,        0.1826171875,        0.0517578125,      -34.0270996094,       -4.6997070312,       40.9698486328
1494036469.0544910431,       -0.6752929688,        0.1826171875,        0.0517578125,      -35.3851318359,       -5.4779052734,       41.9464111328
1494036469.0571799278,       -0.6752929688,        0.1826171875,        0.0517578125,      -35.3851318359,       -5.4779052734,       41.9464111328
1494036469.0598680973,       -0.6752929688,        0.1826171875,        0.0517578125,      -35.3851318359,       -6.0882568359,       43.2891845703
1494036469.0628459454,       -0.7133789062,        0.3134765625,        0.0332031250,      -35.2325439453,       -6.0882568359,       43.2891845703
1494036469.0654289722,       -0.7133789062,        0.3134765625,        0.0332031250,      -34.2559814453,       -6.1492919922,       44.0673828125
1494036469.0679819584,       -0.7133789062,        0.3134765625,        0.0332031250,      -34.2559814453,       -6.1492919922,       44.0673828125
1494036469.0705299377,       -0.7133789062,        0.3134765625,       -0.0117187500,      -34.2559814453,       -6.1492919922,       44.4793701172
1494036469.0730779171,       -0.7050781250,        0.3583984375,       -0.0117187500,      -32.6232910156,       -6.3323974609,       44.4793701172
1494036469.0757820606,       -0.7050781250,        0.3583984375,       -0.0117187500,      -32.6232910156,       -6.3323974609,       44.5404052734
1494036469.0784790516,       -0.7050781250,        0.3583984375,       -0.0117187500,      -30.8685302734,       -6.1798095703,       44.5404052734
1494036469.0811829567,       -0.7050781250,        0.3369140625,       -0.0498046875,      -30.8685302734,       -6.1798095703,       43.6859130859
1494036469.0838999748,       -0.6577148438,        0.3369140625,       -0.0498046875,      -28.7628173828,       -6.3476562500,       43.6859130859
1494036469.0865950584,       -0.6577148438,        0.3369140625,       -0.0498046875,      -28.7628173828,       -6.3476562500,       42.8314208984
1494036469.0892970562,       -0.6577148438,        0.3369140625,       -0.0498046875,      -27.0843505859,       -6.7596435547,       42.8314208984
1494036469.0919868946,       -0.6401367188,        0.2885742188,       -0.0498046875,      -27.0843505859,       -6.7596435547,       41.4886474609
1494036469.0946209431,       -0.6401367188,        0.2885742188,       -0.0498046875,      -26.1535644531,       -7.4920654297,       41.4886474609
1494036469.0971729755,       -0.6401367188,        0.2885742188,       -0.0498046875,      -26.1535644531,       -7.4920654297,       41.4886474609
1494036469.0998890400,       -0.6401367188,        0.2885742188,       -0.0498046875,      -25.4974365234,       -8.2855224609,       40.4357910156
1494036469.1024479866,       -0.6435546875,        0.2587890625,       -0.0322265625,      -25.4974365234,       -8.2855224609,       36.5295410156
1494036469.1051430702,       -0.6435546875,        0.2587890625,       -0.0322265625,      -25.0091552734,       -8.5449218750,       38.8946533203
1494036469.1077001095,       -0.6435546875,        0.2587890625,       -0.0322265625,      -25.0091552734,       -8.5449218750,       38.8946533203
1494036469.1102590561,       -0.6435546875,        0.2587890625,       -0.0322265625,      -24.4750976562,       -8.9263916016,       37.7807617188
1494036469.1128089428,       -0.6528320312,        0.2426757812,       -0.0092773438,      -24.4750976562,       -8.9263916016,       37.7807617188
1494036469.1154999733,       -0.6528320312,        0.2426757812,       -0.0092773438,      -24.5513916016,       -9.7656250000,       36.8041992188
1494036469.1180601120,       -0.6528320312,        0.2426757812,       -0.0092773438,      -24.5513916016,       -9.7656250000,       36.8041992188
1494036469.1206130981,       -0.6528320312,        0.2426757812,       -0.0092773438,      -25.8026123047,      -11.1694335938,       35.5224609375
1494036469.1232080460,       -0.6708984375,        0.2714843750,        0.0190429688,      -25.8026123047,      -11.1694335938,       35.5224609375
1494036469.1259090900,       -0.6708984375,        0.2714843750,        0.0190429688,      -26.1840820312,      -12.5122070312,       34.2559814453
1494036469.1286120415,       -0.6708984375,        0.2714843750,        0.0190429688,      -26.1840820312,      -12.5122070312,       34.2559814453
1494036469.1313149929,       -0.6708984375,        0.2714843750,       -0.0229492188,      -26.1535644531,      -12.4664306641,       32.2570800781
1494036469.1340160370,       -0.6967773438,        0.3237304688,       -0.0229492188,      -26.1535644531,      -12.4664306641,       32.2570800781
1494036469.1367158890,       -0.6967773438,        0.3237304688,       -0.0229492188,      -25.1007080078,      -11.8255615234,       30.2734375000
1494036469.1394190788,       -0.6967773438,        0.3237304688,       -0.0229492188,      -25.1007080078,      -11.8255615234,       30.2734375000
1494036469.1421120167,       -0.6801757812,        0.3750000000,       -0.0874023438,      -23.9868164062,      -11.1541748047,       28.0914306641
1494036469.1448149681,       -0.6801757812,        0.3750000000,       -0.0874023438,      -23.9868164062,      -11.1541748047,       28.0914306641
1494036469.1475110054,       -0.6801757812,        0.3750000000,       -0.0874023438,      -23.3764648438,      -11.8713378906,       25.5126953125
1494036469.1502099037,       -0.6801757812,        0.3750000000,       -0.0874023438,      -23.3764648438,      -11.8713378906,       25.5126953125
1494036469.1529140472,       -0.6796875000,        0.4213867188,       -0.0849609375,      -23.1781005859,      -11.7340087891,       22.4761962891
1494036469.1554889679,       -0.6796875000,        0.4213867188,       -0.0849609375,      -23.1781005859,      -11.7340087891,       22.4761962891
1494036469.1580450535,       -0.6796875000,        0.4213867188,       -0.0849609375,      -22.4609375000,      -11.7797851562,       19.4396972656
1494036469.1606020927,       -0.6796875000,        0.4213867188,       -0.0849609375,      -22.4609375000,      -11.7797851562,       19.4396972656
1494036469.1631979942,       -0.6684570312,        0.4194335938,       -0.0517578125,      -22.4609375000,      -11.5509033203,       16.6778564453
1494036469.1658990383,       -0.6684570312,        0.4194335938,       -0.0517578125,      -21.1029052734,      -11.5509033203,       16.6778564453
1494036469.1685910225,       -0.6684570312,        0.4194335938,       -0.0517578125,      -21.1029052734,      -11.6271972656,       13.6566162109
1494036469.1714379787,       -0.6684570312,        0.4194335938,        0.0117187500,      -20.4315185547,      -11.6271972656,       13.6566162109
1494036469.1741580963,       -0.6425781250,        0.4199218750,        0.0117187500,      -16.5252685547,      -12.6190185547,       10.8337402344
1494036469.1768569946,       -0.6425781250,        0.4199218750,        0.0117187500,      -19.2108154297,      -12.6190185547,       10.8337402344
1494036469.1795539856,       -0.6425781250,        0.4199218750,        0.0117187500,      -19.2108154297,      -13.3361816406,        8.3160400391
1494036469.1822481155,       -0.6425781250,        0.4370117188,        0.0161132812,      -17.4102783203,      -13.3361816406,        8.3160400391
1494036469.1849570274,       -0.6469726562,        0.4370117188,        0.0161132812,      -13.5040283203,      -14.1906738281,        5.9051513672
1494036469.1876559258,       -0.6469726562,        0.4370117188,        0.0161132812,      -14.4958496094,      -14.1906738281,        5.9051513672
1494036469.1903460026,       -0.6469726562,        0.4370117188,        0.0161132812,      -10.5895996094,      -14.3737792969,        2.9754638672
1494036469.1930429935,       -0.6430664062,        0.4165039062,       -0.0209960938,      -11.3067626953,      -14.3737792969,        2.9754638672
1494036469.1956229210,       -0.6430664062,        0.4165039062,       -0.0209960938,      -11.3067626953,      -14.3737792969,        0.8087158203
1494036469.1981739998,       -0.6430664062,        0.4165039062,       -0.0209960938,       -8.8653564453,      -14.4653320312,        0.8087158203
1494036469.2007210255,       -0.6430664062,        0.4165039062,       -0.0209960938,       -8.8653564453,      -14.4653320312,       -1.4343261719
1494036469.2032730579,       -0.6684570312,        0.4321289062,       -0.0244140625,       -7.7056884766,      -14.4653320312,       -1.4343261719
1494036469.2058260441,       -0.6684570312,        0.4321289062,       -0.0244140625,       -7.7056884766,      -14.4653320312,       -1.4343261719
1494036469.2083721161,       -0.6684570312,        0.4321289062,       -0.0244140625,       -7.8430175781,      -14.3280029297,       -3.6315917969
1494036469.2109189034,       -0.6684570312,        0.4321289062,       -0.0244140625,       -7.8430175781,      -14.3280029297,       -3.6315917969
1494036469.2135889530,       -0.6918945312,        0.4184570312,        0.0366210938,       -8.8500976562,      -15.3656005859,       -6.0119628906
1494036469.2161390781,       -0.6918945312,        0.4184570312,        0.0366210938,       -8.8500976562,      -15.3656005859,       -6.0119628906
1494036469.2186920643,       -0.6918945312,        0.4184570312,        0.0366210938,       -9.3994140625,      -15.5487060547,       -8.6517333984
1494036469.2212400436,       -0.6918945312,        0.4184570312,        0.0366210938,       -9.3994140625,      -15.5487060547,       -8.6517333984
1494036469.2240009308,       -0.6679687500,        0.3549804688,        0.0600585938,       -9.6588134766,      -15.4113769531,      -10.4827880859
1494036469.2266941071,       -0.6679687500,        0.3549804688,        0.0600585938,       -9.6588134766,      -15.4113769531,      -10.4827880859
1494036469.2295050621,       -0.6679687500,        0.3549804688,        0.0600585938,       -9.2926025391,      -14.8010253906,      -11.9171142578
1494036469.2320780754,       -0.6679687500,        0.3549804688,        0.0737304688,       -9.2926025391,      -14.8010253906,      -11.9171142578
1494036469.2347788811,       -0.6752929688,        0.3583984375,        0.0737304688,       -9.4299316406,      -14.4958496094,      -13.1378173828
1494036469.2373409271,       -0.6752929688,        0.3583984375,        0.0737304688,       -9.4299316406,      -14.4958496094,      -13.1378173828
1494036469.2400090694,       -0.6752929688,        0.3583984375,        0.0737304688,       -9.4451904297,      -14.3432617188,      -14.3585205078
1494036469.2434229851,       -0.6879882812,        0.3925781250,        0.0629882812,       -9.4451904297,      -14.3432617188,      -14.3585205078
1494036469.2462399006,       -0.6879882812,        0.3925781250,        0.0629882812,       -8.8806152344,      -13.3972167969,      -15.9149169922
1494036469.2489380836,       -0.6879882812,        0.3925781250,        0.0629882812,       -8.8806152344,      -13.3972167969,      -15.9149169922
1494036469.2516379356,       -0.6879882812,        0.3925781250,        0.0629882812,       -8.0871582031,      -12.7563476562,      -17.6849365234
1494036469.2543399334,       -0.6733398438,        0.3388671875,        0.0585937500,       -8.0871582031,      -12.7563476562,      -17.6849365234
1494036469.2570390701,       -0.6733398438,        0.3388671875,        0.0585937500,       -7.4462890625,      -12.2985839844,      -19.0277099609
1494036469.2597351074,       -0.6733398438,        0.3388671875,        0.0585937500,       -7.4462890625,      -12.2985839844,      -19.0277099609
1494036469.2624289989,       -0.6733398438,        0.3388671875,        0.0551757812,       -6.2866210938,      -11.9934082031,      -20.5688476562
1494036469.2651419640,       -0.6762695312,        0.3203125000,        0.0551757812,       -6.2866210938,      -11.9934082031,      -20.5688476562
1494036469.2678389549,       -0.6762695312,        0.3203125000,        0.0551757812,       -6.0882568359,      -11.8255615234,      -20.9045410156
1494036469.2705359459,       -0.6762695312,        0.3203125000,        0.0551757812,       -6.0882568359,      -11.8255615234,      -20.9045410156
1494036469.2732460499,       -0.6875000000,        0.3544921875,        0.0581054688,       -5.4779052734,      -11.7187500000,      -21.5911865234
1494036469.2758049965,       -0.6875000000,        0.3544921875,        0.0581054688,       -5.4779052734,      -11.7187500000,      -21.5911865234
1494036469.2783648968,       -0.6875000000,        0.3544921875,        0.0581054688,       -4.0283203125,      -12.1612548828,      -22.6898193359
1494036469.2809178829,       -0.6875000000,        0.3544921875,        0.0581054688,       -4.0283203125,      -12.1612548828,      -22.6898193359
1494036469.2835080624,       -0.6767578125,        0.3295898438,        0.0278320312,       -1.9226074219,      -11.9171142578,      -23.7579345703
1494036469.2860739231,       -0.6767578125,        0.3295898438,        0.0278320312,       -1.9226074219,      -11.9171142578,      -23.7579345703
1494036469.2886240482,       -0.6767578125,        0.3295898438,        0.0278320312,        0.2288818359,      -12.3291015625,      -25.4669189453
1494036469.2911770344,       -0.6767578125,        0.3295898438,        0.0278320312,        0.2288818359,      -12.3291015625,      -25.4669189453
1494036469.2938220501,       -0.6860351562,        0.3212890625,       -0.0136718750,        0.2288818359,      -12.7868652344,      -26.5350341797
1494036469.2963809967,       -0.6860351562,        0.3212890625,       -0.0136718750,        1.6937255859,      -12.7868652344,      -26.5350341797
1494036469.2989449501,       -0.6860351562,        0.3212890625,       -0.0136718750,        1.6937255859,      -12.7868652344,      -26.9927978516
1494036469.3014988899,       -0.6860351562,        0.3212890625,       -0.0136718750,        2.6245117188,      -13.7023925781,      -26.9927978516
1494036469.3042109013,       -0.7026367188,        0.3510742188,       -0.0200195312,        2.6245117188,      -13.7023925781,      -27.4505615234
1494036469.3069200516,       -0.7026367188,        0.3510742188,       -0.0200195312,        4.1503906250,      -15.1824951172,      -27.4505615234
1494036469.3096160889,       -0.7026367188,        0.3510742188,       -0.0200195312,        4.1503906250,      -15.1824951172,      -28.1524658203
1494036469.3123159409,       -0.7026367188,        0.3510742188,       -0.0200195312,        5.7220458984,      -16.2048339844,      -28.1524658203
1494036469.3150670528,       -0.6923828125,        0.3261718750,       -0.0024414062,        5.7220458984,      -16.2048339844,      -29.0527343750
1494036469.3177599907,       -0.6923828125,        0.3261718750,       -0.0024414062,        6.8206787109,      -16.8914794922,      -29.0527343750
1494036469.3205718994,       -0.6923828125,        0.3261718750,       -0.0024414062,        6.8206787109,      -16.8914794922,      -29.9224853516
1494036469.3232839108,       -0.6923828125,        0.3164062500,       -0.0009765625,        7.5225830078,      -17.6239013672,      -29.9224853516
1494036469.3258380890,       -0.6811523438,        0.3164062500,       -0.0009765625,        7.5225830078,      -17.6239013672,      -29.9224853516
1494036469.3283989429,       -0.6811523438,        0.3164062500,       -0.0009765625,        8.9569091797,      -18.2495117188,      -30.3192138672
1494036469.3309550285,       -0.6811523438,        0.3164062500,       -0.0009765625,        8.9569091797,      -18.2495117188,      -30.3192138672
1494036469.3335230350,       -0.6811523438,        0.3110351562,        0.0024414062,        9.7198486328,      -19.1345214844,      -30.6396484375
1494036469.3360879421,       -0.6938476562,        0.3110351562,        0.0024414062,        9.7198486328,      -19.1345214844,      -30.6396484375
1494036469.3386490345,       -0.6938476562,        0.3110351562,        0.0024414062,       11.9171142578,      -20.0195312500,      -31.4636230469
1494036469.3412098885,       -0.6938476562,        0.3110351562,        0.0024414062,       11.9171142578,      -20.0195312500,      -31.4636230469
1494036469.3438088894,       -0.7050781250,        0.2900390625,        0.0053710938,       15.0451660156,      -21.0266113281,      -31.7230224609
1494036469.3465108871,       -0.7050781250,        0.2900390625,        0.0053710938,       15.0451660156,      -21.0266113281,      -31.7230224609
1494036469.3492140770,       -0.7050781250,        0.2900390625,        0.0053710938,       18.4478759766,      -21.7285156250,      -31.6314697266
1494036469.3519070148,       -0.7050781250,        0.2900390625,        0.0053710938,       18.4478759766,      -21.7285156250,      -31.6314697266
1494036469.3546090126,       -0.6796875000,        0.3745117188,        0.0078125000,       20.4010009766,      -22.7203369141,      -31.2805175781
1494036469.3573129177,       -0.6796875000,        0.3745117188,        0.0078125000,       20.4010009766,      -22.7203369141,      -31.2805175781
1494036469.3601369858,       -0.6796875000,        0.3745117188,        0.0078125000,       22.4761962891,      -23.0865478516,      -30.1818847656
1494036469.3628380299,       -0.6796875000,        0.3745117188,        0.0078125000,       22.4761962891,      -23.0865478516,      -30.1818847656
1494036469.3655490875,       -0.6938476562,        0.3979492188,        0.0063476562,       25.7415771484,      -24.1699218750,      -30.3344726562
1494036469.3682498932,       -0.6938476562,        0.3979492188,        0.0063476562,       25.7415771484,      -24.1699218750,      -30.3344726562
1494036469.3709490299,       -0.6938476562,        0.3979492188,        0.0063476562,       28.0761718750,      -24.4445800781,      -30.8685302734
1494036469.3736710548,       -0.6938476562,        0.3281250000,        0.0356445312,       28.0761718750,      -24.4445800781,      -30.8685302734
1494036469.3762309551,       -0.6552734375,        0.3281250000,        0.0356445312,       29.6020507812,      -25.6652832031,      -31.1126708984
1494036469.3787920475,       -0.6552734375,        0.3281250000,        0.0356445312,       29.6020507812,      -25.6652832031,      -31.1126708984
1494036469.3813490868,       -0.6552734375,        0.3281250000,        0.0356445312,       30.5786132812,      -26.9775390625,      -31.0058593750
1494036469.3839600086,       -0.6552734375,        0.2851562500,        0.0810546875,       30.5786132812,      -26.9775390625,      -31.0058593750
1494036469.3866610527,       -0.6562500000,        0.2851562500,        0.0810546875,       30.7769775391,      -28.0914306641,      -30.8074951172
1494036469.3893549442,       -0.6562500000,        0.2851562500,        0.0810546875,       30.7769775391,      -28.0914306641,      -30.8074951172
1494036469.3921599388,       -0.6562500000,        0.2851562500,        0.0810546875,       32.9284667969,      -27.7252197266,      -31.1889648438
1494036469.3947880268,       -0.6801757812,        0.2456054688,        0.0874023438,       32.9284667969,      -27.7252197266,      -31.1889648438
1494036469.3973479271,       -0.6801757812,        0.2456054688,        0.0874023438,       32.9284667969,      -28.0456542969,      -31.4178466797
1494036469.3999099731,       -0.6801757812,        0.2456054688,        0.0874023438,       34.4390869141,      -28.0456542969,      -31.4178466797
1494036469.4024679661,       -0.6801757812,        0.2456054688,        0.0874023438,       34.4390869141,      -28.0456542969,      -31.8450927734
1494036469.4051260948,       -0.6884765625,        0.2744140625,        0.0913085938,       34.8358154297,      -27.8778076172,      -31.8450927734
1494036469.4076910019,       -0.6884765625,        0.2744140625,        0.0913085938,       34.8358154297,      -27.8778076172,      -31.0974121094
1494036469.4102449417,       -0.6884765625,        0.2744140625,        0.0913085938,       35.4309082031,      -27.4658203125,      -31.0974121094
1494036469.4128019810,       -0.6884765625,        0.2744140625,        0.0913085938,       35.4309082031,      -27.4658203125,      -30.8990478516
1494036469.4156229496,       -0.7045898438,        0.2812500000,        0.0756835938,       37.4450683594,      -27.4810791016,      -30.8990478516
1494036469.4183239937,       -0.7045898438,        0.2812500000,        0.0756835938,       37.4450683594,      -27.4810791016,      -31.0668945312
1494036469.4210278988,       -0.7045898438,        0.2812500000,        0.0756835938,       40.5120849609,      -26.5502929688,      -31.0668945312
1494036469.4237229824,       -0.7045898438,        0.2812500000,        0.0888671875,       40.5120849609,      -26.5502929688,      -31.0668945312
1494036469.4262850285,       -0.7309570312,        0.2031250000,        0.0888671875,       43.7316894531,      -25.0396728516,      -31.1737060547
1494036469.4288449287,       -0.7309570312,        0.2031250000,        0.0888671875,       43.7316894531,      -25.0396728516,      -31.1737060547
1494036469.4314041138,       -0.7309570312,        0.2031250000,        0.0888671875,       43.5791015625,      -25.2990722656,      -31.4788818359
1494036469.4340128899,       -0.7309570312,        0.0781250000,        0.1328125000,       43.5791015625,      -25.2990722656,      -31.4788818359
1494036469.4368419647,       -0.7226562500,        0.1235351562,        0.1328125000,       42.0837402344,      -25.8026123047,      -31.2805175781
1494036469.4394049644,       -0.7226562500,        0.1235351562,        0.1328125000,       42.0837402344,      -25.8026123047,      -31.2805175781
1494036469.4419670105,       -0.7226562500,        0.1235351562,        0.1328125000,       41.0919189453,      -24.9633789062,      -31.3720703125
1494036469.4446349144,       -0.7226562500,        0.1992187500,        0.1088867188,       41.0919189453,      -24.9633789062,      -31.3720703125
1494036469.4473030567,       -0.7221679688,        0.1992187500,        0.1088867188,       38.9556884766,      -22.5830078125,      -31.0211181641
1494036469.4500670433,       -0.7221679688,        0.1992187500,        0.1088867188,       38.9556884766,      -22.5830078125,      -31.0211181641
1494036469.4531199932,       -0.7221679688,        0.1992187500,        0.1088867188,       35.5224609375,      -19.6075439453,      -28.9001464844
1494036469.4558310509,       -0.7055664062,        0.3398437500,        0.0639648438,       35.5224609375,      -19.6075439453,      -28.9001464844
1494036469.4585330486,       -0.7055664062,        0.3398437500,        0.0639648438,       34.4085693359,      -17.7612304688,      -27.0538330078
1494036469.4612360001,       -0.7055664062,        0.3398437500,        0.0639648438,       34.4085693359,      -17.7612304688,      -27.0538330078
1494036469.4639439583,       -0.7055664062,        0.3398437500,        0.0424804688,       35.5529785156,      -17.5018310547,      -27.5726318359
1494036469.4667599201,       -0.6835937500,        0.2709960938,        0.0424804688,       35.5529785156,      -17.5018310547,      -27.5726318359
1494036469.4694669247,       -0.6835937500,        0.2709960938,        0.0424804688,       36.2701416016,      -17.7459716797,      -29.0679931641
1494036469.4721670151,       -0.6835937500,        0.2709960938,        0.0424804688,       36.2701416016,      -17.7459716797,      -29.0679931641
1494036469.4748001099,       -0.6835937500,        0.1801757812,        0.0976562500,       34.1644287109,      -16.2658691406,      -29.1137695312
1494036469.4773659706,       -0.6723632812,        0.1801757812,        0.0976562500,       34.1644287109,      -16.2658691406,      -29.1137695312
1494036469.4799299240,       -0.6723632812,        0.1801757812,        0.0976562500,       31.0058593750,      -14.7094726562,      -27.4353027344
1494036469.4824919701,       -0.6723632812,        0.1801757812,        0.0976562500,       31.0058593750,      -14.7094726562,      -27.4353027344
1494036469.4850580692,       -0.6723632812,        0.2416992188,        0.0932617188,       29.6478271484,      -13.3209228516,      -26.2908935547
1494036469.4876139164,       -0.6884765625,        0.2416992188,        0.0932617188,       29.6478271484,      -13.3209228516,      -26.2908935547
1494036469.4901731014,       -0.6884765625,        0.2416992188,        0.0932617188,       29.8919677734,      -12.3138427734,      -25.8483886719
1494036469.4927330017,       -0.6884765625,        0.2416992188,        0.0932617188,       29.8919677734,      -12.3138427734,      -25.8483886719
1494036469.4953339100,       -0.7016601562,        0.2563476562,        0.0678710938,       29.8919677734,      -12.9547119141,      -26.7028808594
1494036469.4978990555,       -0.7016601562,        0.2563476562,        0.0678710938,       30.3497314453,      -12.9547119141,      -26.7028808594
1494036469.5004611015,       -0.7016601562,        0.2563476562,        0.0678710938,       30.3497314453,      -12.9547119141,      -26.0925292969
1494036469.5030241013,       -0.7016601562,        0.2563476562,        0.0678710938,       30.5328369141,      -12.4053955078,      -26.0925292969
1494036469.5058279037,       -0.7001953125,        0.2182617188,        0.0927734375,       30.5328369141,       -8.4991455078,      -24.9786376953
1494036469.5085248947,       -0.7001953125,        0.2182617188,        0.0927734375,       30.0750732422,      -11.5661621094,      -24.9786376953
1494036469.5112218857,       -0.7001953125,        0.2182617188,        0.0927734375,       30.0750732422,      -15.4724121094,      -24.2767333984
1494036469.5139329433,       -0.7001953125,        0.2182617188,        0.0927734375,       30.5633544922,      -11.8713378906,      -24.2767333984
1494036469.5166330338,       -0.7021484375,        0.2036132812,        0.0932617188,       30.5633544922,      -11.8713378906,      -23.5443115234
1494036469.5193328857,       -0.7021484375,        0.2036132812,        0.0932617188,       31.0516357422,      -12.9852294922,      -23.5443115234
1494036469.5220270157,       -0.7021484375,        0.2036132812,        0.0932617188,       31.0516357422,      -12.9852294922,      -23.7274169922
1494036469.5246670246,       -0.7021484375,        0.2036132812,        0.0917968750,       31.3720703125,      -13.2141113281,      -23.7274169922
1494036469.5272259712,       -0.7163085938,        0.1557617188,        0.0917968750,       31.3720703125,      -13.2141113281,      -23.7274169922
1494036469.5297820568,       -0.7163085938,        0.1557617188,        0.0917968750,       31.6925048828,      -12.4206542969,      -23.4680175781
1494036469.5323410034,       -0.7163085938,        0.1557617188,        0.0917968750,       31.6925048828,      -12.4206542969,      -23.4680175781
1494036469.5350050926,       -0.7163085938,        0.1557617188,        0.0898437500,       31.0974121094,      -11.0473632812,      -23.1018066406
1494036469.5377030373,       -0.7265625000,        0.1455078125,        0.0898437500,       31.0974121094,      -11.0473632812,      -23.1018066406
1494036469.5405149460,       -0.7265625000,        0.1455078125,        0.0898437500,       29.6478271484,      -10.1928710938,      -22.3541259766
1494036469.5432260036,       -0.7265625000,        0.1455078125,        0.0898437500,       29.6478271484,      -10.1928710938,      -22.3541259766
1494036469.5459320545,       -0.7138671875,        0.1938476562,        0.1093750000,       27.7252197266,       -9.6740722656,      -21.2402343750
1494036469.5486340523,       -0.7138671875,        0.1938476562,        0.1093750000,       27.7252197266,       -9.6740722656,      -21.2402343750
1494036469.5513288975,       -0.7138671875,        0.1938476562,        0.1093750000,       25.7873535156,       -9.9182128906,      -20.3399658203
1494036469.5540740490,       -0.7138671875,        0.1938476562,        0.1093750000,       25.7873535156,       -9.9182128906,      -20.3399658203
1494036469.5567700863,       -0.6938476562,        0.2299804688,        0.1040039062,       24.7192382812,       -9.8724365234,      -19.8822021484
1494036469.5596780777,       -0.6938476562,        0.2299804688,        0.1040039062,       24.7192382812,       -9.8724365234,      -15.9759521484
1494036469.5623719692,       -0.6938476562,        0.2299804688,        0.1040039062,       24.5666503906,       -8.9569091797,      -19.1345214844
1494036469.5652959347,       -0.6938476562,        0.3549804688,        0.0898437500,       24.5666503906,       -8.9569091797,      -18.0664062500
1494036469.5680000782,       -0.6816406250,        0.2587890625,        0.0898437500,       25.2838134766,       -7.8277587891,      -18.0664062500
1494036469.5706961155,       -0.6816406250,        0.2587890625,        0.0898437500,       25.2838134766,       -7.8277587891,      -18.0664062500
1494036469.5734341145,       -0.6816406250,        0.2587890625,        0.0898437500,       26.0620117188,       -7.8125000000,      -16.9982910156
1494036469.5759949684,       -0.6928710938,        0.2138671875,        0.0791015625,       26.0620117188,       -7.8125000000,      -16.9982910156
1494036469.5785529613,       -0.6928710938,        0.2138671875,        0.0791015625,       27.0538330078,       -8.3618164062,      -16.9830322266
1494036469.5811169147,       -0.6928710938,        0.2138671875,        0.0791015625,       27.0538330078,       -8.3618164062,      -16.9830322266
1494036469.5837149620,       -0.6928710938,        0.2138671875,        0.0791015625,       28.5186767578,       -8.4838867188,      -16.9067382812
1494036469.5864179134,       -0.7299804688,        0.1767578125,        0.0844726562,       28.5186767578,       -8.4838867188,      -16.9067382812
1494036469.5891220570,       -0.7299804688,        0.1767578125,        0.0844726562,       28.9916992188,       -8.4686279297,      -16.0827636719
1494036469.5918169022,       -0.7299804688,        0.1767578125,        0.0844726562,       28.9916992188,       -8.4686279297,      -16.0827636719
1494036469.5944631100,       -0.7299804688,        0.1767578125,        0.0844726562,       30.9295654297,       -8.9111328125,      -14.7857666016
1494036469.5970211029,       -0.7495117188,        0.1708984375,        0.0668945312,       30.9295654297,       -8.9111328125,      -14.7857666016
1494036469.5995850563,       -0.7495117188,        0.1708984375,        0.0668945312,       33.3862304688,       -8.8195800781,      -14.1143798828
1494036469.6021459103,       -0.7495117188,        0.1708984375,        0.0668945312,       33.3862304688,       -8.8195800781,      -14.1143798828
1494036469.6047070026,       -0.7495117188,        0.1708984375,        0.0668945312,       32.7301025391,       -8.3465576172,      -13.8854980469
1494036469.6072609425,       -0.7514648438,        0.1528320312,        0.0444335938,       32.7301025391,       -8.3465576172,      -13.8854980469
1494036469.6098189354,       -0.7514648438,        0.1528320312,        0.0444335938,       31.2957763672,       -7.5988769531,      -13.1683349609
1494036469.6124849319,       -0.7514648438,        0.1528320312,        0.0444335938,       31.2957763672,       -7.5988769531,      -13.1683349609
1494036469.6151399612,       -0.7514648438,        0.1528320312,        0.0444335938,       27.3895263672,       -6.6070556641,      -12.2070312500
1494036469.6176989079,       -0.7343750000,        0.1752929688,        0.0717773438,       29.3121337891,       -6.6070556641,      -12.2070312500
1494036469.6202530861,       -0.7343750000,        0.1752929688,        0.0717773438,       29.3121337891,       -6.6070556641,      -11.1846923828
1494036469.6228189468,       -0.7343750000,        0.1752929688,        0.0717773438,       27.0080566406,       -6.2103271484,      -11.1846923828
1494036469.6255030632,       -0.7343750000,        0.1752929688,        0.1245117188,       27.0080566406,       -6.2103271484,      -10.7269287109
1494036469.6280629635,       -0.7128906250,        0.2011718750,        0.1245117188,       26.5655517578,       -7.0800781250,      -10.7269287109
1494036469.6306300163,       -0.7128906250,        0.2011718750,        0.1245117188,       26.5655517578,       -7.0800781250,      -10.7269287109
1494036469.6332631111,       -0.7128906250,        0.2011718750,        0.1245117188,       26.9165039062,       -7.3242187500,      -11.0473632812
1494036469.6359190941,       -0.7128906250,        0.2011718750,        0.1113281250,       26.9165039062,       -7.3242187500,      -11.0473632812
1494036469.6385750771,       -0.7099609375,        0.2324218750,        0.1113281250,       27.9388427734,       -5.4779052734,      -10.8337402344
1494036469.6412320137,       -0.7099609375,        0.2324218750,        0.1113281250,       27.9388427734,       -5.4779052734,      -10.8337402344
1494036469.6439180374,       -0.7099609375,        0.2324218750,        0.1113281250,       28.7322998047,       -3.4484863281,       -9.8266601562
1494036469.6466159821,       -0.6909179688,        0.2333984375,        0.0864257812,       28.7322998047,       -3.4484863281,       -9.8266601562
1494036469.6493110657,       -0.6909179688,        0.2333984375,        0.0864257812,       30.5786132812,       -3.1890869141,       -9.0637207031
1494036469.6520140171,       -0.6909179688,        0.2333984375,        0.0864257812,       30.5786132812,       -3.1890869141,       -9.0637207031
1494036469.6546499729,       -0.6909179688,        0.2333984375,        0.0864257812,       31.7382812500,       -3.5552978516,       -9.5977783203
1494036469.6572051048,       -0.6777343750,        0.1904296875,        0.0932617188,       31.7382812500,       -3.5552978516,       -9.5977783203
1494036469.6597659588,       -0.6777343750,        0.1904296875,        0.0932617188,       30.2734375000,       -3.7231445312,       -9.8571777344
1494036469.6623220444,       -0.6777343750,        0.1904296875,        0.0932617188,       30.2734375000,       -3.7231445312,       -9.8571777344
1494036469.6649808884,       -0.6777343750,        0.1904296875,        0.0932617188,       28.5034179688,       -3.4179687500,       -8.8195800781
1494036469.6675319672,       -0.6840820312,        0.2094726562,        0.1074218750,       28.5034179688,       -3.4179687500,       -8.8195800781
1494036469.6700799465,       -0.6840820312,        0.2094726562,        0.1074218750,       26.7181396484,       -3.3416748047,       -7.5225830078
1494036469.6726338863,       -0.6840820312,        0.2094726562,        0.1074218750,       26.7181396484,       -3.3416748047,       -7.5225830078
1494036469.6753439903,       -0.6840820312,        0.2094726562,        0.1074218750,       24.7344970703,       -3.3416748047,       -7.1868896484
1494036469.6780300140,       -0.7016601562,        0.1728515625,        0.0820312500,       24.7344970703,       -3.3416748047,       -7.1868896484
1494036469.6808319092,       -0.7016601562,        0.1728515625,        0.0820312500,       23.1933593750,       -3.4790039062,       -6.9732666016
1494036469.6839110851,       -0.7016601562,        0.1728515625,        0.0820312500,       23.1933593750,       -3.4790039062,       -6.9732666016
1494036469.6867260933,       -0.7016601562,        0.1689453125,        0.0849609375,       21.2860107422,       -2.9907226562,       -6.6986083984
1494036469.6894249916,       -0.7041015625,        0.1689453125,        0.0849609375,       21.2860107422,       -2.9907226562,       -6.6986083984
1494036469.6921210289,       -0.7041015625,        0.1689453125,        0.0849609375,       18.7377929688,       -2.8076171875,       -5.6457519531
1494036469.6948640347,       -0.7041015625,        0.1689453125,        0.0849609375,       18.7377929688,       -2.8076171875,       -5.6457519531
1494036469.6975541115,       -0.6982421875,        0.2050781250,        0.0947265625,       18.2952880859,       -3.0975341797,       -4.6081542969
1494036469.7002470493,       -0.6982421875,        0.2050781250,        0.0947265625,       18.2952880859,       -3.0975341797,       -4.6081542969
1494036469.7029368877,       -0.6982421875,        0.2050781250,        0.0947265625,       19.1040039062,       -3.6773681641,       -3.9672851562
1494036469.7056720257,       -0.6982421875,        0.2050781250,        0.0947265625,       19.1040039062,       -3.6773681641,       -3.9672851562
1494036469.7083630562,       -0.7172851562,        0.1923828125,        0.0981445312,       20.0195312500,       -4.3792724609,       -3.7384033203
1494036469.7110500336,       -0.7172851562,        0.1923828125,        0.0981445312,       20.0195312500,       -4.3792724609,       -3.7384033203
1494036469.7137379646,       -0.7172851562,        0.1923828125,        0.0981445312,       21.0723876953,       -4.8370361328,       -3.3111572266
1494036469.7162849903,       -0.7172851562,        0.1923828125,        0.1035156250,       21.0723876953,       -4.8370361328,       -3.3111572266
1494036469.7188339233,       -0.7255859375,        0.1523437500,        0.1035156250,       22.3388671875,       -5.0964355469,       -1.9531250000
1494036469.7213919163,       -0.7255859375,        0.1523437500,        0.1035156250,       22.3388671875,       -5.0964355469,       -1.9531250000
1494036469.7239511013,       -0.7255859375,        0.1523437500,        0.1035156250,       22.3388671875,       -5.9967041016,       -0.4730224609
1494036469.7265059948,       -0.7255859375,        0.1523437500,        0.1069335938,       22.2167968750,       -5.9967041016,       -0.4730224609
1494036469.7290589809,       -0.7226562500,        0.1142578125,        0.1069335938,       22.2167968750,       -5.9967041016,        1.1291503906
1494036469.7316119671,       -0.7226562500,        0.1142578125,        0.1069335938,       20.4010009766,       -5.9814453125,        1.1291503906
1494036469.7343430519,       -0.7226562500,        0.1142578125,        0.1069335938,       20.4010009766,       -5.9814453125,        2.7313232422
1494036469.7368979454,       -0.7226562500,        0.1259765625,        0.0844726562,       16.7541503906,       -4.8675537109,        2.7313232422
1494036469.7394499779,       -0.7255859375,        0.1259765625,        0.0844726562,       16.7541503906,       -4.8675537109,        6.6375732422
1494036469.7420060635,       -0.7255859375,        0.1259765625,        0.0844726562,       12.7716064453,       -2.6550292969,        5.0659179688
1494036469.7447869778,       -0.7255859375,        0.1259765625,        0.0844726562,       12.7716064453,       -2.6550292969,        5.0659179688
1494036469.7474849224,       -0.7036132812,        0.1464843750,        0.0620117188,        8.1329345703,       -0.9155273438,        6.8359375000
1494036469.7501790524,       -0.7036132812,        0.1464843750,        0.0620117188,        8.1329345703,       -0.9155273438,       10.7421875000
1494036469.7528710365,       -0.7036132812,        0.1464843750,        0.0620117188,        3.1433105469,        0.1525878906,        8.1481933594
1494036469.7555789948,       -0.7036132812,        0.1464843750,        0.0620117188,        3.1433105469,        0.1525878906,        8.1481933594
1494036469.7582650185,       -0.6982421875,        0.1528320312,        0.0551757812,       -1.6326904297,        1.8768310547,        9.0637207031
1494036469.7610619068,       -0.6982421875,        0.1528320312,        0.0551757812,       -1.6326904297,        1.8768310547,        9.0637207031
1494036469.7637500763,       -0.6982421875,        0.1528320312,        0.0551757812,       -5.0811767578,        3.5705566406,        9.8419189453
1494036469.7663021088,       -0.6982421875,        0.1528320312,        0.0551757812,       -5.0811767578,        3.5705566406,        9.8419189453
1494036469.7688429356,       -0.6723632812,        0.2460937500,        0.0688476562,       -7.2326660156,        4.2266845703,       10.4370117188
1494036469.7713999748,       -0.6723632812,        0.2460937500,        0.0688476562,       -7.2326660156,        4.2266845703,       10.4370117188
1494036469.7739970684,       -0.6723632812,        0.2460937500,        0.0688476562,       -7.5073242188,        4.3334960938,       10.3454589844
1494036469.7766919136,       -0.6723632812,        0.2460937500,        0.0688476562,       -7.5073242188,        4.3334960938,       10.3454589844
1494036469.7793900967,       -0.6684570312,        0.2597656250,        0.0927734375,       -7.5988769531,        4.1351318359,       10.7574462891
1494036469.7820839882,       -0.6684570312,        0.2597656250,        0.0927734375,       -7.5988769531,        4.1351318359,       10.7574462891
1494036469.7848689556,       -0.6684570312,        0.2597656250,        0.0927734375,       -6.6986083984,        4.3487548828,       11.7645263672
1494036469.7875580788,       -0.6684570312,        0.2539062500,        0.1328125000,       -6.6986083984,        4.3487548828,       11.7645263672
1494036469.7902500629,       -0.6616210938,        0.2539062500,        0.1328125000,       -5.1422119141,        4.3792724609,       12.4664306641
1494036469.7929461002,       -0.6616210938,        0.2539062500,        0.1328125000,       -5.1422119141,        4.3792724609,       12.4664306641
1494036469.7956809998,       -0.6616210938,        0.2539062500,        0.1328125000,       -2.5787353516,        3.9978027344,       13.3972167969
1494036469.7983798981,       -0.6738281250,        0.2617187500,        0.1269531250,       -2.5787353516,        3.9978027344,       13.3972167969
1494036469.8011701107,       -0.6738281250,        0.2617187500,        0.1269531250,        0.0152587891,        3.7536621094,       14.4653320312
1494036469.8041698933,       -0.6738281250,        0.2617187500,        0.1269531250,        0.0152587891,        3.7536621094,       14.4653320312
1494036469.8068749905,       -0.6738281250,        0.2617187500,        0.0019531250,        2.3803710938,        3.2043457031,       15.3961181641
1494036469.8095719814,       -0.6967773438,        0.2558593750,        0.0727539062,        2.3803710938,        3.2043457031,       15.3961181641
1494036469.8122670650,       -0.6967773438,        0.2558593750,        0.0727539062,        4.0130615234,        2.0446777344,       16.6473388672
1494036469.8148920536,       -0.6967773438,        0.2558593750,        0.0727539062,        4.0130615234,        2.0446777344,       16.6473388672
1494036469.8174428940,       -0.6967773438,        0.1308593750,       -0.0019531250,        7.1105957031,        0.1068115234,       17.6391601562
1494036469.8200039864,       -0.7539062500,        0.1259765625,       -0.0019531250,        7.1105957031,        0.1068115234,       17.6391601562
1494036469.8225591183,       -0.7539062500,        0.1259765625,       -0.0019531250,        7.2174072266,       -0.7476806641,       17.9138183594
1494036469.8252720833,       -0.7539062500,        0.1259765625,       -0.0019531250,        7.2174072266,       -0.7476806641,       17.9138183594
1494036469.8279659748,       -0.7539062500,        0.1279296875,       -0.0859375000,        4.7912597656,        0.1831054688,       19.5465087891
1494036469.8306610584,       -0.8110351562,        0.1279296875,       -0.0859375000,        4.7912597656,        0.1831054688,       19.5465087891
1494036469.8335220814,       -0.8110351562,        0.1279296875,       -0.0859375000,        1.9531250000,        0.7171630859,       22.2320556641
1494036469.8360819817,       -0.8110351562,        0.1279296875,       -0.0859375000,        1.9531250000,        0.7171630859,       22.2320556641
1494036469.8386380672,       -0.8110351562,        0.1342773438,       -0.1103515625,       -1.6632080078,        0.3204345703,       24.2767333984
1494036469.8411979675,       -0.8110351562,        0.1342773438,       -0.1103515625,       -1.6632080078,        0.3204345703,       24.2767333984
1494036469.8437559605,       -0.8110351562,        0.1342773438,       -0.1103515625,       -5.5694580078,        0.6256103516,       25.4516601562
1494036469.8463089466,       -0.8110351562,        0.1342773438,       -0.1103515625,       -5.0811767578,        0.6256103516,       25.4516601562
1494036469.8488678932,       -0.7500000000,        0.1757812500,       -0.0688476562,       -5.0811767578,        0.6256103516,       26.8402099609
1494036469.8514220715,       -0.7500000000,        0.1757812500,       -0.0688476562,       -7.9040527344,        0.8392333984,       26.8402099609
1494036469.8541541100,       -0.7500000000,        0.1757812500,       -0.0688476562,       -7.9040527344,        0.8392333984,       28.6254882812
1494036469.8567020893,       -0.7500000000,        0.1757812500,       -0.0688476562,       -9.1857910156,        0.4882812500,       28.6254882812
1494036469.8592519760,       -0.6928710938,        0.2724609375,       -0.0336914062,       -9.1857910156,        0.4882812500,       28.6254882812
1494036469.8618140221,       -0.6928710938,        0.2724609375,       -0.0336914062,       -8.9111328125,       -0.0915527344,       29.1137695312
1494036469.8645229340,       -0.6928710938,        0.2724609375,       -0.0336914062,       -8.9111328125,       -0.0915527344,       29.1137695312
1494036469.8670759201,       -0.6928710938,        0.2724609375,       -0.0336914062,       -6.4849853516,       -0.7781982422,       29.1137695312
1494036469.8696329594,       -0.6860351562,        0.3090820312,        0.0200195312,       -6.4849853516,       -0.7781982422,       29.1137695312
1494036469.8721818924,       -0.6860351562,        0.3090820312,        0.0200195312,       -2.6092529297,       -1.0223388672,       29.0985107422
1494036469.8748750687,       -0.6860351562,        0.3090820312,        0.0200195312,       -2.6092529297,       -1.0223388672,       29.0985107422
1494036469.8775720596,       -0.6860351562,        0.3090820312,        0.0200195312,        1.8615722656,       -1.3885498047,       28.5949707031
1494036469.8802649975,       -0.6806640625,        0.3144531250,        0.0722656250,        1.8615722656,       -1.3885498047,       28.5949707031
1494036469.8829638958,       -0.6806640625,        0.3144531250,        0.0722656250,        6.1645507812,       -1.2054443359,       28.5491943359
1494036469.8856940269,       -0.6806640625,        0.3144531250,        0.0722656250,        6.1645507812,       -1.2054443359,       28.5491943359
1494036469.8883800507,       -0.6806640625,        0.3286132812,        0.0844726562,        9.2773437500,       -1.4038085938,       28.2592773438
1494036469.8910748959,       -0.6752929688,        0.3286132812,        0.0844726562,        9.2773437500,       -1.4038085938,       28.2592773438
1494036469.8937780857,       -0.6752929688,        0.3286132812,        0.0844726562,       12.5732421875,       -1.1291503906,       27.8320312500
1494036469.8964750767,       -0.6752929688,        0.3286132812,        0.0844726562,       12.5732421875,       -1.1291503906,       27.8320312500
1494036469.8991680145,       -0.6962890625,        0.3056640625,        0.0507812500,       15.5181884766,       -0.9155273438,       28.6560058594
1494036469.9018630981,       -0.6962890625,        0.3056640625,        0.0507812500,       15.5181884766,       -0.9155273438,       28.6560058594
1494036469.9045119286,       -0.6962890625,        0.3056640625,        0.0507812500,       16.0217285156,       -1.0833740234,       29.4799804688
1494036469.9071741104,       -0.6962890625,        0.3056640625,        0.0507812500,       16.0217285156,       -1.0833740234,       29.4799804688
1494036469.9097321033,       -0.7299804688,        0.1743164062,        0.0356445312,       16.3879394531,       -1.6632080078,       29.4647216797
1494036469.9122900963,       -0.7299804688,        0.1743164062,        0.0356445312,       16.3879394531,       -1.6632080078,       29.4647216797
1494036469.9148569107,       -0.7299804688,        0.1743164062,        0.0356445312,       12.7105712891,       -1.0528564453,       29.9682617188
1494036469.9174160957,       -0.7299804688,        0.1743164062,        0.0356445312,       12.7105712891,       -1.0528564453,       29.9682617188
1494036469.9201140404,       -0.7470703125,        0.1582031250,        0.0327148438,        7.8430175781,        0.0152587891,       31.3720703125
1494036469.9226670265,       -0.7470703125,        0.1582031250,        0.0327148438,        7.8430175781,        0.0152587891,       31.3720703125
1494036469.9255719185,       -0.7470703125,        0.1582031250,        0.0327148438,        3.7841796875,        0.0457763672,       32.7606201172
1494036469.9282710552,       -0.7470703125,        0.1582031250,        0.0473632812,        3.7841796875,        0.0457763672,       32.7606201172
1494036469.9309699535,       -0.7338867188,        0.1987304688,        0.0473632812,       -0.4272460938,        0.4882812500,       33.1420898438
1494036469.9336709976,       -0.7338867188,        0.1987304688,        0.0473632812,       -0.4272460938,        0.4882812500,       33.1420898438
1494036469.9363629818,       -0.7338867188,        0.1987304688,        0.0473632812,       -4.0435791016,        0.7781982422,       32.5469970703
1494036469.9390649796,       -0.7338867188,        0.2285156250,        0.0415039062,       -4.0435791016,        0.7781982422,       32.5469970703
1494036469.9417619705,       -0.7363281250,        0.2285156250,        0.0415039062,       -5.5999755859,        0.7476806641,       32.6690673828
1494036469.9444661140,       -0.7363281250,        0.2285156250,        0.0415039062,       -5.5999755859,        0.7476806641,       32.6690673828
1494036469.9471640587,       -0.7363281250,        0.2285156250,        0.0415039062,       -5.5999755859,        1.8615722656,       32.8674316406
1494036469.9498560429,       -0.7192382812,        0.2773437500,        0.0571289062,       -4.9743652344,        1.8615722656,       32.8674316406
1494036469.9525508881,       -0.7192382812,        0.2773437500,        0.0571289062,       -1.0681152344,        2.4108886719,       32.5927734375
1494036469.9551820755,       -0.7192382812,        0.2773437500,        0.0571289062,       -3.7841796875,        2.4108886719,       32.5927734375
1494036469.9577319622,       -0.7192382812,        0.2773437500,        0.0571289062,       -3.7841796875,        2.4108886719,       31.5551757812
1494036469.9602890015,       -0.6777343750,        0.3061523438,        0.0761718750,       -2.1057128906,        2.8228759766,       31.5551757812
1494036469.9628489017,       -0.6777343750,        0.3061523438,        0.0761718750,       -2.1057128906,        2.8228759766,       30.7617187500
1494036469.9654109478,       -0.6777343750,        0.3061523438,        0.0761718750,       -0.2136230469,        2.0751953125,       30.7617187500
1494036469.9679720402,       -0.6777343750,        0.3061523438,        0.0761718750,       -0.2136230469,        2.0751953125,       30.7617187500
1494036469.9705240726,       -0.6655273438,        0.3574218750,        0.0966796875,        2.2430419922,        1.2512207031,       30.6091308594
1494036469.9730830193,       -0.6655273438,        0.3574218750,        0.0966796875,        2.2430419922,        1.2512207031,       30.6091308594
1494036469.9757540226,       -0.6655273438,        0.3574218750,        0.0966796875,        5.7067871094,        1.2664794922,       29.3426513672
1494036469.9783029556,       -0.6655273438,        0.3574218750,        0.0966796875,        5.7067871094,        1.2664794922,       29.3426513672
1494036469.9809780121,       -0.6704101562,        0.3413085938,        0.0463867188,        9.3841552734,        1.0986328125,       28.5644531250
1494036469.9836308956,       -0.6704101562,        0.3413085938,        0.0463867188,        9.3841552734,        1.0986328125,       28.5644531250
1494036469.9863359928,       -0.6704101562,        0.3413085938,        0.0463867188,       11.4135742188,        1.2817382812,       27.5573730469
1494036469.9890429974,       -0.6704101562,        0.3413085938,        0.0493164062,       11.4135742188,        1.2817382812,       27.5573730469
1494036469.9917399883,       -0.6767578125,        0.3242187500,        0.0493164062,       11.6271972656,        1.9531250000,       25.8789062500
1494036469.9944810867,       -0.6767578125,        0.3242187500,        0.0493164062,       11.6271972656,        1.9531250000,       25.8789062500
1494036469.9971799850,       -0.6767578125,        0.3242187500,        0.0493164062,       10.7421875000,        2.1667480469,       24.7802734375
1494036469.9998829365,       -0.6997070312,        0.2763671875,        0.0380859375,       10.7421875000,        2.1667480469,       24.7802734375
1494036470.0025870800,       -0.6997070312,        0.2763671875,        0.0380859375,       10.7574462891,        2.9296875000,       23.5748291016
1494036470.0052940845,       -0.6997070312,        0.2763671875,        0.0380859375,       10.7574462891,        2.9296875000,       23.5748291016
1494036470.0079898834,       -0.6997070312,        0.2763671875,        0.0380859375,       10.1928710938,        3.4179687500,       22.9492187500
1494036470.0106899738,       -0.7260742188,        0.2690429688,        0.0512695312,       10.1928710938,        3.4179687500,       22.9492187500
1494036470.0134329796,       -0.7260742188,        0.2690429688,        0.0512695312,        7.7819824219,        3.8757324219,       22.3693847656
1494036470.0159890652,       -0.7260742188,        0.2690429688,        0.0512695312,        7.7819824219,        3.8757324219,       22.3693847656
1494036470.0185379982,       -0.7260742188,        0.2690429688,        0.0512695312,        6.7749023438,        4.3792724609,       22.2778320312
1494036470.0210850239,       -0.7382812500,        0.3041992188,        0.0385742188,        6.7749023438,        4.3792724609,       22.2778320312
1494036470.0237240791,       -0.7382812500,        0.3041992188,        0.0385742188,        8.0413818359,        4.7454833984,       22.2625732422
1494036470.0264160633,       -0.7382812500,        0.3041992188,        0.0385742188,        8.0413818359,        4.7454833984,       22.2625732422
1494036470.0291171074,       -0.7382812500,        0.3041992188,        0.0405273438,        8.7738037109,        4.1046142578,       21.3623046875
1494036470.0318160057,       -0.7504882812,        0.3144531250,        0.0405273438,        8.7738037109,        4.1046142578,       21.3623046875
1494036470.0345170498,       -0.7504882812,        0.3144531250,        0.0405273438,       10.4827880859,        3.9367675781,       20.2178955078
1494036470.0372140408,       -0.7504882812,        0.3144531250,        0.0405273438,       10.4827880859,        3.9367675781,       20.2178955078
1494036470.0399730206,       -0.7504882812,        0.3154296875,        0.0058593750,       12.9089355469,        4.2877197266,       19.6228027344
1494036470.0426719189,       -0.7636718750,        0.3154296875,        0.0058593750,       12.9089355469,        4.2877197266,       19.6228027344
1494036470.0453870296,       -0.7636718750,        0.3154296875,        0.0058593750,       14.1448974609,        5.5389404297,       18.9971923828
1494036470.0480809212,       -0.7636718750,        0.3154296875,        0.0058593750,       14.1448974609,        5.5389404297,       18.9971923828
1494036470.0507841110,       -0.7778320312,        0.3081054688,       -0.0170898438,       14.0991210938,        7.3699951172,       17.5628662109
1494036470.0536019802,       -0.7778320312,        0.3081054688,       -0.0170898438,       14.0991210938,        7.3699951172,       17.5628662109
1494036470.0563058853,       -0.7778320312,        0.3081054688,       -0.0170898438,       13.7939453125,       10.2386474609,       16.0217285156
1494036470.0590050220,       -0.7778320312,        0.3081054688,       -0.0170898438,       13.7939453125,       10.2386474609,       16.0217285156
1494036470.0617020130,       -0.7880859375,        0.3032226562,        0.0161132812,       13.3514404297,       13.3666992188,       14.1906738281
1494036470.0643420219,       -0.7880859375,        0.3032226562,        0.0161132812,       13.3514404297,       13.3666992188,       14.1906738281
1494036470.0668940544,       -0.7880859375,        0.3032226562,        0.0161132812,        9.4451904297,       14.9993896484,       13.1072998047
1494036470.0694539547,       -0.7880859375,        0.3032226562,        0.0688476562,       11.3983154297,       14.9993896484,       13.1072998047
1494036470.0720100403,       -0.7680664062,        0.3515625000,        0.0688476562,       11.3983154297,       14.9993896484,       11.4440917969
1494036470.0746219158,       -0.7680664062,        0.3515625000,        0.0688476562,        9.0484619141,       15.4266357422,       11.4440917969
1494036470.0771770477,       -0.7680664062,        0.3515625000,        0.0688476562,        9.0484619141,       15.4266357422,        9.8266601562
1494036470.0797340870,       -0.7680664062,        0.3515625000,        0.1254882812,        8.2397460938,       15.8233642578,        9.8266601562
1494036470.0822930336,       -0.7539062500,        0.3417968750,        0.1254882812,        8.2397460938,       15.8233642578,        5.9204101562
1494036470.0849559307,       -0.7539062500,        0.3417968750,        0.1254882812,        8.1024169922,       16.2200927734,        7.7819824219
1494036470.0875120163,       -0.7539062500,        0.3417968750,        0.1254882812,        8.1024169922,       16.2200927734,        7.7819824219
1494036470.0900640488,       -0.7539062500,        0.3520507812,        0.1596679688,        7.8735351562,       17.0288085938,        5.9356689453
1494036470.0926160812,       -0.7924804688,        0.3520507812,        0.1596679688,        7.8735351562,       17.0288085938,        5.9356689453
1494036470.0954120159,       -0.7924804688,        0.3520507812,        0.1596679688,        7.0190429688,       18.3563232422,        4.0130615234
1494036470.0981009007,       -0.7924804688,        0.3520507812,        0.1596679688,        7.0190429688,       18.3563232422,        4.0130615234
1494036470.1007928848,       -0.8427734375,        0.3652343750,        0.1865234375,        7.7667236328,       18.8140869141,        1.7700195312
1494036470.1034948826,       -0.8427734375,        0.3652343750,        0.1865234375,        7.7667236328,       18.8140869141,        1.7700195312
1494036470.1061849594,       -0.8427734375,        0.3652343750,        0.1865234375,        9.7808837891,       19.3176269531,       -0.5187988281
1494036470.1088790894,       -0.8427734375,        0.3652343750,        0.1865234375,        9.7808837891,       19.3176269531,       -0.5187988281
1494036470.1115739346,       -0.8671875000,        0.4028320312,        0.2089843750,       12.3901367188,       19.5770263672,       -2.2277832031
1494036470.1142270565,       -0.8671875000,        0.4028320312,        0.2089843750,       12.3901367188,       19.5770263672,       -2.2277832031
1494036470.1167850494,       -0.8671875000,        0.4028320312,        0.2089843750,       15.4724121094,       18.1427001953,       -4.1046142578
1494036470.1193408966,       -0.8671875000,        0.4028320312,        0.2089843750,       15.4724121094,       18.1427001953,       -4.1046142578
1494036470.1219000816,       -0.8745117188,        0.3535156250,        0.2260742188,       17.1661376953,       16.2200927734,       -7.1258544922
1494036470.1245410442,       -0.8745117188,        0.3535156250,        0.2260742188,       17.1661376953,       16.2200927734,       -7.1258544922
1494036470.1273570061,       -0.8745117188,        0.3535156250,        0.2260742188,       19.3786621094,       15.8386230469,       -9.5214843750
1494036470.1300580502,       -0.8745117188,        0.3535156250,        0.1738281250,       19.3786621094,       15.8386230469,       -9.5214843750
1494036470.1327569485,       -0.9736328125,        0.3374023438,        0.1738281250,       23.0255126953,       15.3961181641,      -11.0168457031
1494036470.1354959011,       -0.9736328125,        0.3374023438,        0.1738281250,       23.0255126953,       15.3961181641,      -11.0168457031
1494036470.1381919384,       -0.9736328125,        0.3374023438,        0.1738281250,       28.5034179688,       14.8162841797,      -13.1988525391
1494036470.1408851147,       -1.0986328125,        0.3730468750,        0.0976562500,       28.5034179688,       14.8162841797,      -13.1988525391
1494036470.1435849667,       -1.0458984375,        0.3730468750,        0.0976562500,       33.2641601562,       13.9923095703,      -14.9536132812
1494036470.1462850571,       -1.0458984375,        0.3730468750,        0.0976562500,       33.2641601562,       13.9923095703,      -14.9536132812
1494036470.1489820480,       -1.0458984375,        0.3730468750,        0.0976562500,       38.5284423828,       13.2446289062,      -14.9078369141
1494036470.1516780853,       -1.0957031250,        0.3388671875,        0.0268554688,       38.5284423828,       13.2446289062,      -14.9078369141
1494036470.1543829441,       -1.0957031250,        0.3388671875,        0.0268554688,       45.0134277344,       11.8103027344,      -15.3961181641
1494036470.1570789814,       -1.0957031250,        0.3388671875,        0.0268554688,       45.0134277344,       11.8103027344,      -15.3961181641
1494036470.1597719193,       -1.0957031250,        0.3388671875,        0.0268554688,       53.2073974609,       10.8642578125,      -17.1203613281
1494036470.1624619961,       -1.1162109375,        0.2094726562,       -0.0634765625,       53.2073974609,       10.8642578125,      -17.1203613281
1494036470.1650779247,       -1.1162109375,        0.2094726562,       -0.0634765625,       58.3953857422,       11.0168457031,      -19.0124511719
1494036470.1676299572,       -1.1162109375,        0.2094726562,       -0.0634765625,       58.3953857422,       11.0168457031,      -19.0124511719
1494036470.1701889038,       -1.1162109375,        0.2094726562,       -0.1884765625,       58.3953857422,       11.1083984375,      -20.1263427734
1494036470.1727509499,       -1.1240234375,        0.1655273438,       -0.1538085938,       61.1114501953,       11.1083984375,      -20.1263427734
1494036470.1754789352,       -1.1240234375,        0.1655273438,       -0.1538085938,       61.1114501953,       11.0931396484,      -20.3399658203
1494036470.1781799793,       -1.1240234375,        0.1655273438,       -0.1538085938,       63.3392333984,       11.0931396484,      -20.3399658203
1494036470.1808791161,       -1.1240234375,        0.1142578125,       -0.1899414062,       63.3392333984,       11.0931396484,      -20.3704833984
1494036470.1835789680,       -1.1108398438,        0.1142578125,       -0.1899414062,       65.3533935547,       10.8184814453,      -20.3704833984
1494036470.1862759590,       -1.1108398438,        0.1142578125,       -0.1899414062,       65.3533935547,       10.8184814453,      -20.9197998047
1494036470.1889688969,       -1.1108398438,        0.1142578125,       -0.1899414062,       66.9403076172,       11.4440917969,      -20.9197998047
1494036470.1916649342,       -1.0800781250,       -0.0190429688,       -0.1899414062,       66.9403076172,       15.3503417969,      -21.0723876953
1494036470.1943759918,       -1.0800781250,       -0.0190429688,       -0.1899414062,       66.3757324219,       11.8255615234,      -21.0723876953
1494036470.1970720291,       -1.0800781250,       -0.0190429688,       -0.1899414062,       66.3757324219,       11.8255615234,      -21.8658447266
1494036470.1997699738,       -1.0800781250,       -0.0190429688,       -0.1899414062,       63.7054443359,       13.0004882812,      -21.8658447266
1494036470.2025771141,       -1.0122070312,       -0.1254882812,       -0.2055664062,       63.7054443359,       13.0004882812,      -22.6898193359
1494036470.2051808834,       -1.0122070312,       -0.1254882812,       -0.2055664062,       55.4809570312,       14.1143798828,      -22.6898193359
1494036470.2077350616,       -1.0122070312,       -0.1254882812,       -0.2055664062,       55.4809570312,       14.1143798828,      -22.8118896484
1494036470.2102880478,       -1.0122070312,       -0.1254882812,       -0.2055664062,       43.9758300781,       15.5181884766,      -22.8118896484
1494036470.2128450871,       -0.9516601562,       -0.1293945312,       -0.1826171875,       43.9758300781,       15.5181884766,      -22.8118896484
1494036470.2155270576,       -0.9516601562,       -0.1293945312,       -0.1826171875,       31.0516357422,       16.4337158203,      -22.0336914062
1494036470.2182230949,       -0.9516601562,       -0.1293945312,       -0.1826171875,       31.0516357422,       16.4337158203,      -22.0336914062
1494036470.2209219933,       -0.9516601562,       -0.1293945312,       -0.1113281250,       17.3187255859,       15.8996582031,      -20.7366943359
1494036470.2236580849,       -0.9038085938,       -0.0888671875,       -0.1113281250,       17.3187255859,       15.8996582031,      -20.7366943359
1494036470.2263560295,       -0.9038085938,       -0.0888671875,       -0.1113281250,        2.5482177734,       14.7552490234,      -19.1192626953
1494036470.2290539742,       -0.9038085938,       -0.0888671875,       -0.1113281250,        2.5482177734,       14.7552490234,      -19.1192626953
1494036470.2317440510,       -0.8647460938,       -0.0302734375,       -0.0458984375,      -13.1225585938,       14.3890380859,      -17.4102783203
1494036470.2344820499,       -0.8647460938,       -0.0302734375,       -0.0458984375,      -13.1225585938,       14.3890380859,      -17.4102783203
1494036470.2371830940,       -0.8647460938,       -0.0302734375,       -0.0458984375,      -30.4718017578,       16.4489746094,      -13.1225585938
1494036470.2398769855,       -0.8647460938,       -0.0302734375,       -0.0458984375,      -30.4718017578,       16.4489746094,      -13.1225585938
1494036470.2425720692,       -0.8364257812,        0.1181640625,        0.0410156250,      -47.0123291016,       20.5841064453,       -6.6528320312
1494036470.2452778816,       -0.8364257812,        0.1181640625,        0.0410156250,      -47.0123291016,       20.5841064453,       -6.6528320312
1494036470.2479729652,       -0.8364257812,        0.1181640625,        0.0410156250,      -60.0433349609,       23.7579345703,        1.2817382812
1494036470.2506709099,       -0.8364257812,        0.1181640625,        0.0410156250,      -60.0433349609,       23.7579345703,        1.2817382812
1494036470.2534060478,       -0.8203125000,        0.4091796875,        0.0834960938,      -69.8394775391,       25.8789062500,       12.3748779297
1494036470.2559680939,       -0.8203125000,        0.4091796875,        0.0834960938,      -69.8394775391,       25.8789062500,       12.3748779297
1494036470.2585289478,       -0.8203125000,        0.4091796875,        0.0834960938,      -78.1402587891,       26.5655517578,       24.4293212891
1494036470.2610878944,       -0.8203125000,        0.4091796875,        0.1787109375,      -78.1402587891,       26.5655517578,       24.4293212891
1494036470.2637219429,       -0.8237304688,        0.5244140625,        0.1787109375,      -81.2225341797,       23.8800048828,       35.6140136719
1494036470.2664198875,       -0.8237304688,        0.5244140625,        0.1787109375,      -81.2225341797,       23.8800048828,       35.6140136719
1494036470.2691140175,       -0.8237304688,        0.5244140625,        0.1787109375,      -77.3162841797,       22.3236083984,       47.5921630859
1494036470.2718160152,       -0.8237304688,        0.6572265625,        0.1372070312,      -77.3162841797,       22.3236083984,       47.5921630859
1494036470.2746279240,       -0.8300781250,        0.6572265625,        0.1372070312,      -79.3304443359,       20.7214355469,       62.1032714844
1494036470.2773311138,       -0.8300781250,        0.6572265625,        0.1372070312,      -79.3304443359,       20.7214355469,       62.1032714844
1494036470.2800319195,       -0.8300781250,        0.6572265625,        0.1372070312,      -79.5288085938,       20.8892822266,       80.5816650391
1494036470.2827301025,       -0.8955078125,        0.9150390625,        0.0732421875,      -79.5288085938,       20.8892822266,       80.5816650391
1494036470.2854731083,       -0.8955078125,        0.9150390625,        0.0732421875,      -76.1108398438,       22.2625732422,       99.2736816406
1494036470.2881739140,       -0.8955078125,        0.9150390625,        0.0732421875,      -76.1108398438,       22.2625732422,       99.2736816406
1494036470.2908790112,       -0.8955078125,        0.9150390625,        0.0732421875,      -75.0885009766,       18.7988281250,      114.9291992188
1494036470.2935891151,       -0.8779296875,        0.9643554688,        0.1787109375,      -75.0885009766,       18.7988281250,      114.9291992188
1494036470.2962949276,       -0.8779296875,        0.9643554688,        0.1787109375,      -69.3664550781,       13.3819580078,      127.5939941406
1494036470.2989931107,       -0.8779296875,        0.9643554688,        0.1787109375,      -69.3664550781,       13.3819580078,      127.5939941406
1494036470.3016910553,       -0.8779296875,        1.0893554688,        0.2280273438,      -60.0433349609,        6.9580078125,      139.0075683594
1494036470.3043301105,       -0.9267578125,        1.0336914062,        0.2280273438,      -60.0433349609,        6.9580078125,      139.0075683594
1494036470.3068819046,       -0.9267578125,        1.0336914062,        0.2280273438,      -47.4243164062,        0.6713867188,      149.7192382812
1494036470.3094339371,       -0.9267578125,        1.0336914062,        0.2280273438,      -47.4243164062,        0.6713867188,      149.7192382812
1494036470.3119840622,       -0.9267578125,        1.1010742188,        0.2050781250,      -30.9143066406,       -4.4250488281,      159.4390869141
1494036470.3146560192,       -1.0581054688,        1.1010742188,        0.2050781250,      -30.9143066406,       -4.4250488281,      159.4390869141
1494036470.3173470497,       -1.0581054688,        1.1010742188,        0.2050781250,      -15.5792236328,       -8.6822509766,      168.0755615234
1494036470.3200399876,       -1.0581054688,        1.1010742188,        0.2050781250,      -15.5792236328,       -8.6822509766,      168.0755615234
1494036470.3227341175,       -1.1879882812,        0.8784179688,        0.1528320312,       -3.3264160156,      -12.2222900391,      173.4466552734
1494036470.3254680634,       -1.1879882812,        0.8784179688,        0.1528320312,       -3.3264160156,      -12.2222900391,      173.4466552734
1494036470.3281629086,       -1.1879882812,        0.8784179688,        0.1528320312,        8.3923339844,      -13.0920410156,      175.6134033203
1494036470.3308570385,       -1.1879882812,        0.8784179688,        0.1528320312,       11.2762451172,      -13.0920410156,      175.6134033203
1494036470.3335630894,       -1.2080078125,        0.5917968750,        0.0454101562,       26.9012451172,      -11.7034912109,      177.2918701172
1494036470.3362679482,       -1.2080078125,        0.5917968750,        0.0454101562,       27.2216796875,      -11.7034912109,      177.2918701172
1494036470.3389599323,       -1.2080078125,        0.5917968750,        0.0454101562,       38.9404296875,       -9.8876953125,      180.8166503906
1494036470.3416569233,       -1.2080078125,        0.5917968750,        0.0454101562,       38.2537841797,       -9.8876953125,      180.8166503906
1494036470.3443601131,       -1.1254882812,        0.4428710938,        0.0415039062,       42.1600341797,       -7.4768066406,      184.2956542969
1494036470.3470520973,       -1.1254882812,        0.4428710938,        0.0415039062,       42.9229736328,       -7.4768066406,      184.2956542969
1494036470.3498599529,       -1.1254882812,        0.4428710938,        0.0415039062,       42.9229736328,       -3.5095214844,      186.3861083984
1494036470.3525629044,       -1.0004882812,        0.3662109375,        0.0146484375,       42.8771972656,       -3.5095214844,      186.3861083984
1494036470.3551659584,       -1.0947265625,        0.3662109375,        0.0146484375,       42.8771972656,       -3.5095214844,      186.6455078125
1494036470.3577170372,       -1.0947265625,        0.3662109375,        0.0146484375,       43.1060791016,       -0.1983642578,      186.6455078125
1494036470.3602728844,       -1.0947265625,        0.3662109375,        0.0146484375,       43.1060791016,       -0.1983642578,      185.3179931641
1494036470.3628289700,       -1.0947265625,        0.3256835938,        0.0122070312,       43.6706542969,        2.2888183594,      185.3179931641
1494036470.3655230999,       -1.0532226562,        0.3256835938,        0.0122070312,       43.6706542969,        2.2888183594,      182.4188232422
1494036470.3682229519,       -1.0532226562,        0.3256835938,        0.0122070312,       44.3725585938,        3.8909912109,      182.4188232422
1494036470.3709120750,       -1.0532226562,        0.3256835938,        0.0122070312,       44.3725585938,        3.8909912109,      179.5501708984
1494036470.3736460209,       -1.0146484375,        0.3105468750,        0.0190429688,       43.9453125000,        5.0964355469,      179.5501708984
1494036470.3763399124,       -1.0146484375,        0.3105468750,        0.0190429688,       43.9453125000,        5.0964355469,      179.5501708984
1494036470.3790349960,       -1.0146484375,        0.3105468750,        0.0190429688,       42.9077148438,        6.4392089844,      176.5136718750
1494036470.3817310333,       -1.0146484375,        0.3105468750,        0.0190429688,       42.9077148438,        6.4392089844,      172.6074218750
1494036470.3844699860,       -0.9731445312,        0.2807617188,        0.0390625000,       41.6564941406,        8.3770751953,      172.8057861328
1494036470.3871710300,       -0.9731445312,        0.2807617188,        0.0390625000,       41.6564941406,        8.3770751953,      168.8995361328
1494036470.3898680210,       -0.9731445312,        0.2807617188,        0.0390625000,       39.9932861328,       10.4370117188,      168.2739257812
1494036470.3925719261,       -0.9731445312,        0.2807617188,        0.0390625000,       39.9932861328,       10.4370117188,      160.4614257812
1494036470.3952829838,       -0.9272460938,        0.2822265625,        0.0390625000,       36.7584228516,       12.2680664062,      163.9556884766
1494036470.3979818821,       -0.9272460938,        0.2822265625,        0.0390625000,       36.7584228516,       12.2680664062,      160.0494384766
1494036470.4006860256,       -0.9272460938,        0.2822265625,        0.0390625000,       32.0281982422,       13.0767822266,      159.7290039062
1494036470.4034309387,       -0.8632812500,        0.2836914062,        0.0312500000,       32.0281982422,       13.0767822266,      159.7290039062
1494036470.4059851170,       -0.8632812500,        0.2836914062,        0.0312500000,       23.6816406250,       13.8092041016,      155.2581787109
1494036470.4085431099,       -0.8632812500,        0.2836914062,        0.0312500000,       23.6816406250,       13.8092041016,      155.2581787109
1494036470.4110980034,       -0.8632812500,        0.2836914062,        0.0312500000,       14.5416259766,       14.7857666016,      150.8636474609
1494036470.4137220383,       -0.7763671875,        0.3432617188,       -0.0126953125,       14.5416259766,       14.7857666016,      150.8636474609
1494036470.4164218903,       -0.7763671875,        0.3432617188,       -0.0126953125,        4.5928955078,       14.5874023438,      146.3317871094
1494036470.4191169739,       -0.7763671875,        0.3432617188,       -0.0126953125,        4.5928955078,       14.5874023438,      146.3317871094
1494036470.4218170643,       -0.7763671875,        0.3432617188,       -0.0126953125,       -3.8146972656,       13.5498046875,      142.3950195312
1494036470.4246320724,       -0.6635742188,        0.4111328125,       -0.0488281250,       -3.8146972656,       13.5498046875,      142.3950195312
1494036470.4273331165,       -0.6635742188,        0.4111328125,       -0.0488281250,      -10.9558105469,       11.6119384766,      137.7410888672
1494036470.4300289154,       -0.6635742188,        0.4111328125,       -0.0488281250,      -10.9558105469,       11.6119384766,      137.7410888672
1494036470.4327299595,       -0.6635742188,        0.4111328125,       -0.0673828125,      -17.6696777344,        9.6893310547,      131.3934326172
1494036470.4354710579,       -0.5693359375,        0.4360351562,       -0.0673828125,      -17.6696777344,        9.6893310547,      131.3934326172
1494036470.4381649494,       -0.5693359375,        0.4360351562,       -0.0673828125,      -20.9655761719,        7.8430175781,      123.4436035156
1494036470.4408619404,       -0.5693359375,        0.4360351562,       -0.0673828125,      -20.9655761719,        7.8430175781,      123.4436035156
1494036470.4435679913,       -0.5126953125,        0.3652343750,       -0.0781250000,      -21.9116210938,        5.7983398438,      114.6240234375
1494036470.4462699890,       -0.5126953125,        0.3652343750,       -0.0781250000,      -21.9116210938,        5.7983398438,      114.6240234375
1494036470.4489679337,       -0.5126953125,        0.3652343750,       -0.0781250000,      -22.2778320312,        4.5471191406,      105.5908203125
1494036470.4516589642,       -0.5126953125,        0.3652343750,       -0.0781250000,      -22.2778320312,        4.5471191406,      105.5908203125
1494036470.4543120861,       -0.4892578125,        0.1870117188,       -0.0688476562,      -23.0712890625,        3.5247802734,       95.0927734375
1494036470.4568679333,       -0.4892578125,        0.1870117188,       -0.0688476562,      -23.0712890625,        3.5247802734,       95.0927734375
1494036470.4594230652,       -0.4892578125,        0.1870117188,       -0.0688476562,      -26.0162353516,        3.2043457031,       84.0911865234
1494036470.4619779587,       -0.4892578125,        0.1870117188,       -0.0688476562,      -26.0162353516,        3.2043457031,       84.0911865234
1494036470.4646201134,       -0.4760742188,        0.0581054688,       -0.0341796875,      -29.9377441406,        2.4261474609,       74.1119384766
1494036470.4673190117,       -0.4760742188,        0.0581054688,       -0.0341796875,      -29.9377441406,        2.4261474609,       74.1119384766
1494036470.4700090885,       -0.4760742188,        0.0581054688,       -0.0341796875,      -33.0047607422,        1.8463134766,       65.1245117188
1494036470.4727060795,       -0.4760742188,        0.0581054688,       -0.0341796875,      -33.0047607422,        1.8463134766,       65.1245117188
1494036470.4754049778,       -0.4501953125,        0.0458984375,       -0.0351562500,      -34.3475341797,        0.3204345703,       56.6711425781
1494036470.4781060219,       -0.4501953125,        0.0458984375,       -0.0351562500,      -34.3475341797,        0.3204345703,       56.6711425781
1494036470.4808099270,       -0.4501953125,        0.0458984375,       -0.0351562500,      -34.9731445312,       -1.8768310547,       47.9583740234
1494036470.4835169315,       -0.4501953125,        0.0864257812,       -0.0161132812,      -34.9731445312,       -1.8768310547,       47.9583740234
1494036470.4862151146,       -0.4179687500,        0.0864257812,       -0.0161132812,      -34.4543457031,       -4.2877197266,       40.2984619141
1494036470.4889090061,       -0.4179687500,        0.0864257812,       -0.0161132812,      -34.4543457031,       -4.2877197266,       40.2984619141
1494036470.4916028976,       -0.4179687500,        0.0864257812,       -0.0161132812,      -31.9213867188,       -7.0800781250,       34.1796875000
1494036470.4943130016,       -0.3896484375,        0.0869140625,       -0.0332031250,      -31.9213867188,       -7.0800781250,       34.1796875000
1494036470.4971148968,       -0.3896484375,        0.0869140625,       -0.0332031250,      -28.3966064453,       -9.4146728516,       28.1372070312
1494036470.4998159409,       -0.3896484375,        0.0869140625,       -0.0332031250,      -28.3966064453,       -9.4146728516,       28.1372070312
1494036470.5025069714,       -0.3896484375,        0.0869140625,       -0.0332031250,      -24.7650146484,      -10.7421875000,       21.4996337891
1494036470.5051100254,       -0.3959960938,        0.0410156250,       -0.0791015625,      -24.7650146484,      -10.7421875000,       21.4996337891
1494036470.5076711178,       -0.3959960938,        0.0410156250,       -0.0791015625,      -24.7650146484,      -10.5590820312,       14.2669677734
1494036470.5102319717,       -0.3959960938,        0.0410156250,       -0.0791015625,      -21.2097167969,      -10.5590820312,       14.2669677734
1494036470.5127871037,       -0.3959960938,        0.0410156250,       -0.0791015625,      -21.2097167969,      -10.5590820312,        6.9427490234
1494036470.5155119896,       -0.3735351562,        0.0219726562,       -0.0991210938,      -19.3786621094,      -10.1470947266,        6.9427490234
1494036470.5182049274,       -0.3735351562,        0.0219726562,       -0.0991210938,      -19.3786621094,      -10.1470947266,       -0.2288818359
1494036470.5208990574,       -0.3735351562,        0.0219726562,       -0.0991210938,      -19.9279785156,       -9.5062255859,       -0.2288818359
1494036470.5235919952,       -0.3735351562,        0.0219726562,       -0.0908203125,      -19.9279785156,       -9.5062255859,       -7.6751708984
1494036470.5262830257,       -0.3344726562,        0.0366210938,       -0.0908203125,      -18.7072753906,       -8.8043212891,       -7.6751708984
1494036470.5289740562,       -0.3344726562,        0.0366210938,       -0.0908203125,      -18.7072753906,       -8.8043212891,      -15.4418945312
1494036470.5316679478,       -0.3344726562,        0.0366210938,       -0.0908203125,      -18.2647705078,       -9.1094970703,      -15.4418945312
1494036470.5343670845,       -0.2993164062,        0.0776367188,       -0.0815429688,      -18.2647705078,       -9.1094970703,      -23.2238769531
1494036470.5370640755,       -0.2993164062,        0.0776367188,       -0.0815429688,      -17.6849365234,       -9.4146728516,      -23.2238769531
1494036470.5397620201,       -0.2993164062,        0.0776367188,       -0.0815429688,      -17.6849365234,       -9.4146728516,      -31.5399169922
1494036470.5424540043,       -0.2993164062,        0.0776367188,       -0.0815429688,      -16.7388916016,       -9.5367431641,      -31.5399169922
1494036470.5451619625,       -0.2963867188,        0.0874023438,       -0.0800781250,      -16.7388916016,       -9.5367431641,      -40.1611328125
1494036470.5478620529,       -0.2963867188,        0.0874023438,       -0.0800781250,      -14.9993896484,      -10.1013183594,      -40.1611328125
1494036470.5505619049,       -0.2963867188,        0.0874023438,       -0.0800781250,      -14.9993896484,      -10.1013183594,      -48.7060546875
1494036470.5532689095,       -0.2963867188,        0.0874023438,       -0.0800781250,      -12.7410888672,       -9.8419189453,      -48.7060546875
1494036470.5558300018,       -0.2973632812,        0.0961914062,       -0.0888671875,      -12.7410888672,       -9.8419189453,      -48.7060546875
1494036470.5583829880,       -0.2973632812,        0.0961914062,       -0.0888671875,       -8.5144042969,       -9.0637207031,      -57.0526123047
1494036470.5609319210,       -0.2973632812,        0.0961914062,       -0.0888671875,       -8.5144042969,       -9.0637207031,      -57.0526123047
1494036470.5635130405,       -0.2973632812,        0.0961914062,       -0.0888671875,       -3.6621093750,       -8.2092285156,      -65.2008056641
1494036470.5662090778,       -0.3051757812,        0.0898437500,       -0.1035156250,       -3.6621093750,       -8.2092285156,      -65.2008056641
1494036470.5689039230,       -0.3051757812,        0.0898437500,       -0.1035156250,        0.7019042969,       -6.8817138672,      -72.6165771484
1494036470.5717051029,       -0.3051757812,        0.0898437500,       -0.1035156250,        0.7019042969,       -6.8817138672,      -72.6165771484
1494036470.5744090080,       -0.3051757812,        0.0830078125,       -0.1093750000,        5.2337646484,       -6.0577392578,      -79.9560546875
1494036470.5771059990,       -0.3222656250,        0.0830078125,       -0.1093750000,        5.2337646484,       -6.0577392578,      -79.9560546875
1494036470.5797989368,       -0.3222656250,        0.0830078125,       -0.1093750000,        8.6364746094,       -5.8746337891,      -86.7309570312
1494036470.5824968815,       -0.3222656250,        0.0830078125,       -0.1093750000,        8.6364746094,       -5.8746337891,      -86.7309570312
1494036470.5851950645,       -0.3149414062,        0.0917968750,       -0.0981445312,       10.8032226562,       -5.2185058594,      -93.6431884766
1494036470.5878920555,       -0.3149414062,        0.0917968750,       -0.0981445312,       10.8032226562,       -5.2185058594,      -93.6431884766
1494036470.5905859470,       -0.3149414062,        0.0917968750,       -0.0981445312,       13.3361816406,       -4.7912597656,      -99.5025634766
1494036470.5932910442,       -0.3149414062,        0.0917968750,       -0.0981445312,       13.3361816406,       -4.7912597656,      -99.5025634766
1494036470.5959870815,       -0.2998046875,        0.0932617188,       -0.0751953125,       14.1448974609,       -4.3792724609,     -105.7434082031
1494036470.5986878872,       -0.2998046875,        0.0932617188,       -0.0751953125,       14.1448974609,       -4.3792724609,     -105.7434082031
1494036470.6013839245,       -0.2998046875,        0.0932617188,       -0.0751953125,       13.9770507812,       -4.5318603516,     -111.2365722656
1494036470.6040530205,       -0.2998046875,        0.0932617188,       -0.0830078125,       13.9770507812,       -4.5318603516,     -111.2365722656
1494036470.6066079140,       -0.2900390625,        0.1035156250,       -0.0830078125,       12.4206542969,       -4.5318603516,     -116.6839599609
1494036470.6091609001,       -0.2900390625,        0.1035156250,       -0.0830078125,       12.4206542969,       -4.5318603516,     -116.6839599609
1494036470.6117610931,       -0.2900390625,        0.1035156250,       -0.0830078125,       10.6964111328,       -4.5623779297,     -121.3226318359
1494036470.6143870354,       -0.2900390625,        0.2285156250,       -0.0742187500,       10.6964111328,       -4.5623779297,     -121.3226318359
1494036470.6170699596,       -0.2924804688,        0.1323242188,       -0.0742187500,        9.2620849609,       -4.4250488281,     -125.6408691406
1494036470.6197459698,       -0.2924804688,        0.1323242188,       -0.0742187500,        9.2620849609,       -4.4250488281,     -125.6408691406
1494036470.6224279404,       -0.2924804688,        0.1323242188,       -0.0742187500,        8.2092285156,       -3.9978027344,     -130.4473876953
1494036470.6251180172,       -0.3022460938,        0.1557617188,       -0.0805664062,        8.2092285156,       -3.9978027344,     -130.4473876953
1494036470.6277890205,       -0.3022460938,        0.1557617188,       -0.0805664062,        7.1716308594,       -3.7841796875,     -135.2691650391
1494036470.6304650307,       -0.3022460938,        0.1557617188,       -0.0805664062,        7.1716308594,       -3.7841796875,     -135.2691650391
1494036470.6331369877,       -0.3022460938,        0.1557617188,       -0.0805664062,        7.0800781250,       -3.5705566406,     -140.1367187500
1494036470.6358869076,       -0.3256835938,        0.1958007812,       -0.0771484375,        7.0800781250,       -3.5705566406,     -140.1367187500
1494036470.6385369301,       -0.3256835938,        0.1958007812,       -0.0771484375,        8.1024169922,       -3.0212402344,     -144.5159912109
1494036470.6411850452,       -0.3256835938,        0.1958007812,       -0.0771484375,        8.1024169922,       -3.0212402344,     -144.5159912109
1494036470.6438820362,       -0.3256835938,        0.1958007812,       -0.0771484375,        8.1024169922,       -2.5634765625,     -148.6053466797
1494036470.6466801167,       -0.3647460938,        0.2041015625,       -0.0708007812,        7.9650878906,       -2.5634765625,     -148.6053466797
1494036470.6493740082,       -0.3647460938,        0.2041015625,       -0.0708007812,        6.8206787109,       -1.2207031250,     -151.9622802734
1494036470.6520659924,       -0.3647460938,        0.2041015625,       -0.0708007812,        6.8206787109,       -1.2207031250,     -151.9622802734
1494036470.6547069550,       -0.3647460938,        0.2041015625,       -0.0751953125,        6.8206787109,        0.0457763672,     -154.8919677734
1494036470.6572589874,       -0.4067382812,        0.2104492188,       -0.0751953125,        4.7607421875,        0.0457763672,     -154.8919677734
1494036470.6598129272,       -0.4067382812,        0.2104492188,       -0.0751953125,        4.7607421875,        0.0457763672,     -157.3333740234
1494036470.6623630524,       -0.4067382812,        0.2104492188,       -0.0751953125,        3.2348632812,        1.0986328125,     -157.3333740234
1494036470.6650199890,       -0.4067382812,        0.2597656250,       -0.0756835938,        3.2348632812,        1.0986328125,     -159.9884033203
1494036470.6677119732,       -0.4008789062,        0.2597656250,       -0.0756835938,        1.9989013672,        2.1667480469,     -159.9884033203
1494036470.6704020500,       -0.4008789062,        0.2597656250,       -0.0756835938,        1.9989013672,        2.1667480469,     -162.5518798828
1494036470.6730909348,       -0.4008789062,        0.2597656250,       -0.0756835938,        0.7781982422,        2.7770996094,     -162.5518798828
1494036470.6757919788,       -0.4013671875,        0.3203125000,       -0.0654296875,        0.7781982422,        2.7770996094,     -164.5507812500
1494036470.6784830093,       -0.4013671875,        0.3203125000,       -0.0654296875,        0.1373291016,        3.7841796875,     -164.5507812500
1494036470.6811709404,       -0.4013671875,        0.3203125000,       -0.0654296875,        0.1373291016,        3.7841796875,     -167.2821044922
1494036470.6838710308,       -0.4013671875,        0.3203125000,       -0.0654296875,        0.6866455078,        3.6773681641,     -167.2821044922
1494036470.6865639687,       -0.4042968750,        0.3789062500,       -0.0214843750,        0.6866455078,        3.6773681641,     -171.1883544922
1494036470.6892549992,       -0.4042968750,        0.3789062500,       -0.0214843750,        3.3264160156,        3.8452148438,     -169.5251464844
1494036470.6919488907,       -0.4042968750,        0.3789062500,       -0.0214843750,        3.3264160156,        3.8452148438,     -169.5251464844
1494036470.6946890354,       -0.4042968750,        0.3789062500,       -0.0214843750,        6.3781738281,        3.9215087891,     -171.1578369141
1494036470.6973829269,       -0.4184570312,        0.3867187500,       -0.0063476562,        6.3781738281,        3.9215087891,     -171.1578369141
1494036470.7000780106,       -0.4184570312,        0.3867187500,       -0.0063476562,        9.7503662109,        4.0740966797,     -171.7071533203
1494036470.7027730942,       -0.4184570312,        0.3867187500,       -0.0063476562,        9.7503662109,        4.0740966797,     -171.7071533203
1494036470.7053649426,       -0.4184570312,        0.4028320312,        0.0024414062,       11.2609863281,        4.2114257812,     -171.8597412109
1494036470.7079188824,       -0.4311523438,        0.4028320312,        0.0024414062,       11.2609863281,        4.2114257812,     -171.8597412109
1494036470.7104749680,       -0.4311523438,        0.4028320312,        0.0024414062,       12.4359130859,        4.1503906250,     -171.6156005859
1494036470.7130339146,       -0.4311523438,        0.4028320312,        0.0024414062,       12.4359130859,        4.1503906250,     -171.6156005859
1494036470.7157258987,       -0.4311523438,        0.4497070312,        0.0166015625,       13.3666992188,        4.3029785156,     -171.1273193359
1494036470.7185170650,       -0.4511718750,        0.4497070312,        0.0166015625,       13.3666992188,        4.3029785156,     -171.1273193359
1494036470.7212159634,       -0.4511718750,        0.4497070312,        0.0166015625,       14.7094726562,        4.1046142578,     -170.4559326172
1494036470.7239220142,       -0.4511718750,        0.4497070312,        0.0166015625,       14.7094726562,        4.1046142578,     -170.4559326172
1494036470.7266221046,       -0.4775390625,        0.4921875000,        0.0234375000,       15.0909423828,        3.3874511719,     -169.4488525391
1494036470.7293200493,       -0.4775390625,        0.4921875000,        0.0234375000,       15.0909423828,        3.3874511719,     -169.4488525391
1494036470.7320199013,       -0.4775390625,        0.4921875000,        0.0234375000,       15.8233642578,        2.7770996094,     -167.3736572266
1494036470.7347290516,       -0.4775390625,        0.4921875000,        0.0234375000,       15.8233642578,        2.7770996094,     -167.3736572266
1494036470.7374210358,       -0.5180664062,        0.5400390625,        0.0410156250,       14.7857666016,        2.4566650391,     -164.5965576172
1494036470.7401149273,       -0.5180664062,        0.5400390625,        0.0410156250,       14.7857666016,        2.4566650391,     -164.5965576172
1494036470.7428100109,       -0.5180664062,        0.5400390625,        0.0410156250,       13.0310058594,        2.0751953125,     -160.6903076172
1494036470.7455110550,       -0.5180664062,        0.5400390625,        0.0429687500,       13.0310058594,        2.0751953125,     -160.6903076172
1494036470.7482089996,       -0.5561523438,        0.6005859375,        0.0429687500,       11.1694335938,        1.8310546875,     -156.4788818359
1494036470.7509078979,       -0.5561523438,        0.6005859375,        0.0429687500,       11.1694335938,        1.8310546875,     -156.4788818359
1494036470.7535910606,       -0.5561523438,        0.6005859375,        0.0429687500,        8.5144042969,        1.1749267578,     -151.0467529297
1494036470.7561459541,       -0.5561523438,        0.6494140625,        0.0278320312,        8.5144042969,        1.1749267578,     -151.0467529297
1494036470.7587080002,       -0.5883789062,        0.6494140625,        0.0278320312,        4.8675537109,        0.7019042969,     -145.3704833984
1494036470.7612619400,       -0.5883789062,        0.6494140625,        0.0278320312,        4.8675537109,        0.7019042969,     -145.3704833984
1494036470.7638919353,       -0.5883789062,        0.6494140625,        0.0278320312,       -0.5340576172,        0.2136230469,     -139.3585205078
1494036470.7665889263,       -0.6166992188,        0.7128906250,        0.0258789062,       -0.5340576172,        0.2136230469,     -139.3585205078
1494036470.7692830563,       -0.6166992188,        0.7128906250,        0.0258789062,       -5.8593750000,        0.3051757812,     -132.4768066406
1494036470.7719700336,       -0.6166992188,        0.7128906250,        0.0258789062,       -5.8593750000,        0.3051757812,     -132.4768066406
1494036470.7746710777,       -0.6166992188,        0.7128906250,        0.0258789062,      -10.7116699219,        0.0457763672,     -125.4577636719
1494036470.7773699760,       -0.6162109375,        0.7700195312,        0.0234375000,      -10.7116699219,        0.0457763672,     -125.4577636719
1494036470.7800660133,       -0.6162109375,        0.7700195312,        0.0234375000,      -14.9383544922,        0.5645751953,     -118.3471679688
1494036470.7827661037,       -0.6162109375,        0.7700195312,        0.0234375000,      -14.9383544922,        0.5645751953,     -118.3471679688
1494036470.7854709625,       -0.6162109375,        0.7700195312,        0.0234375000,      -19.2718505859,        0.8850097656,     -111.4501953125
1494036470.7881629467,       -0.5947265625,        0.7797851562,        0.0292968750,      -19.2718505859,        0.8850097656,     -111.4501953125
1494036470.7908558846,       -0.5947265625,        0.7797851562,        0.0292968750,      -27.0843505859,        0.7324218750,     -104.2480468750
1494036470.7936689854,       -0.5947265625,        0.7797851562,        0.0292968750,      -23.4680175781,        0.7324218750,     -104.2480468750
1494036470.7963678837,       -0.5947265625,        0.7890625000,        0.0278320312,      -26.4739990234,        1.0375976562,      -97.4121093750
1494036470.7990639210,       -0.5620117188,        0.7890625000,        0.0278320312,      -26.4739990234,        1.0375976562,      -97.4121093750
1494036470.8017580509,       -0.5620117188,        0.7890625000,        0.0278320312,      -30.3802490234,        1.0986328125,      -90.2862548828
1494036470.8044319153,       -0.5620117188,        0.7890625000,        0.0278320312,      -29.1595458984,        1.0986328125,      -90.2862548828
1494036470.8069860935,       -0.5039062500,        0.7861328125,        0.0478515625,      -29.1595458984,        1.2359619141,      -82.7789306641
1494036470.8095440865,       -0.5039062500,        0.7861328125,        0.0478515625,      -32.5469970703,        1.2359619141,      -82.7789306641
1494036470.8120999336,       -0.5039062500,        0.7861328125,        0.0478515625,      -32.5469970703,        1.2359619141,      -75.1953125000
1494036470.8147580624,       -0.5039062500,        0.7861328125,        0.0478515625,      -36.8804931641,        0.5187988281,      -75.1953125000
1494036470.8174600601,       -0.4882812500,        0.7617187500,        0.0957031250,      -36.8804931641,        0.5187988281,      -69.0002441406
1494036470.8201589584,       -0.4882812500,        0.7617187500,        0.0957031250,      -41.8701171875,       -0.4272460938,      -69.0002441406
1494036470.8228549957,       -0.4882812500,        0.7617187500,        0.0957031250,      -41.8701171875,       -0.4272460938,      -61.4471435547
1494036470.8255620003,       -0.4882812500,        0.7617187500,        0.0957031250,      -54.3518066406,       -2.5787353516,      -61.4471435547
1494036470.8282599449,       -0.6235351562,        1.2280273438,        0.1733398438,      -54.3518066406,       -2.5787353516,      -40.5883789062
1494036470.8309540749,       -0.6235351562,        1.2280273438,        0.1733398438,      -53.4667968750,       -3.4332275391,      -40.5883789062
1494036470.8336870670,       -0.6235351562,        1.2280273438,        0.1733398438,      -53.4667968750,       -3.4332275391,      -10.1013183594
1494036470.8363780975,       -0.6235351562,        1.8530273438,        0.1440429688,      -43.1976318359,       -5.6457519531,      -10.1013183594
1494036470.8390700817,       -0.6855468750,        1.8588867188,        0.1440429688,      -43.1976318359,       -5.6457519531,        7.7362060547
1494036470.8417611122,       -0.6855468750,        1.8588867188,        0.1440429688,      -49.5300292969,       -4.9591064453,        7.7362060547
1494036470.8444640636,       -0.6855468750,        1.8588867188,        0.1440429688,      -49.5300292969,       -4.9591064453,       19.4549560547
1494036470.8471629620,       -0.6142578125,        1.8696289062,        0.0649414062,      -42.2821044922,       -3.7841796875,       18.2952880859
1494036470.8498520851,       -0.6142578125,        1.8696289062,        0.0649414062,      -42.2821044922,       -3.7841796875,       30.0140380859
1494036470.8525409698,       -0.6142578125,        1.8696289062,        0.0649414062,      -29.1137695312,       -6.9885253906,       28.3813476562
1494036470.8551731110,       -0.6142578125,        1.8696289062,        0.0649414062,      -29.1137695312,       -6.9885253906,       28.3813476562
1494036470.8577289581,       -0.5048828125,        1.3764648438,        0.0263671875,      -22.2473144531,       -5.7983398438,       36.3922119141
1494036470.8602890968,       -0.5048828125,        1.3764648438,        0.0263671875,      -22.2473144531,       -5.7983398438,       36.3922119141
1494036470.8628458977,       -0.5048828125,        1.3764648438,        0.0263671875,      -14.4653320312,       -1.3427734375,       44.1589355469
1494036470.8655409813,       -0.5048828125,        1.3764648438,        0.0263671875,      -14.4653320312,       -1.3427734375,       44.1589355469
1494036470.8683459759,       -0.4067382812,        0.8334960938,       -0.0815429688,      -10.2081298828,        0.4119873047,       52.1087646484
1494036470.8710460663,       -0.4067382812,        0.8334960938,       -0.0815429688,      -10.2081298828,        0.4119873047,       52.1087646484
1494036470.8737559319,       -0.4067382812,        0.8334960938,       -0.0815429688,      -10.5438232422,        0.8544921875,       57.7545166016
1494036470.8764550686,       -0.4067382812,        0.8334960938,       -0.1152343750,      -10.5438232422,        0.8544921875,       57.7545166016
1494036470.8791480064,       -0.3769531250,        0.4174804688,       -0.1152343750,       -9.8266601562,        2.0904541016,       60.6384277344
1494036470.8818399906,       -0.3769531250,        0.4174804688,       -0.1152343750,       -9.8266601562,        2.0904541016,       60.6384277344
1494036470.8845469952,       -0.3769531250,        0.4174804688,       -0.1152343750,       -9.8876953125,        3.5095214844,       59.5245361328
1494036470.8872339725,       -0.3769531250,       -0.0380859375,       -0.1015625000,       -9.8876953125,        3.5095214844,       59.5245361328
1494036470.8899209499,       -0.4194335938,       -0.0380859375,       -0.1015625000,      -12.2070312500,        4.9743652344,       54.9621582031
1494036470.8926119804,       -0.4194335938,       -0.0380859375,       -0.1015625000,      -12.2070312500,        4.9743652344,       54.9621582031
1494036470.8953189850,       -0.4194335938,       -0.0380859375,       -0.1015625000,      -15.5944824219,        6.0119628906,       49.2553710938
1494036470.8980159760,       -0.5498046875,       -0.2924804688,       -0.0302734375,      -15.5944824219,        6.0119628906,       49.2553710938
1494036470.9007110596,       -0.5498046875,       -0.2924804688,       -0.0302734375,      -20.3399658203,        6.0424804688,       44.7235107422
1494036470.9034540653,       -0.5498046875,       -0.2924804688,       -0.0302734375,      -20.3399658203,        6.0424804688,       44.7235107422
1494036470.9060120583,       -0.5498046875,       -0.2924804688,       -0.0302734375,      -25.1617431641,        5.5541992188,       40.3594970703
1494036470.9085650444,       -0.6870117188,       -0.2993164062,        0.0820312500,      -25.1617431641,        5.5541992188,       40.3594970703
1494036470.9111220837,       -0.6870117188,       -0.2993164062,        0.0820312500,      -30.2581787109,        3.7841796875,       36.6363525391
1494036470.9137160778,       -0.6870117188,       -0.2993164062,        0.0820312500,      -30.2581787109,        3.7841796875,       36.6363525391
1494036470.9164121151,       -0.6870117188,       -0.2993164062,        0.0820312500,      -33.1573486328,        2.0141601562,       34.6984863281
1494036470.9191050529,       -0.7846679688,       -0.1157226562,        0.1513671875,      -33.1573486328,        2.0141601562,       34.6984863281
1494036470.9217970371,       -0.7846679688,       -0.1157226562,        0.1513671875,      -34.3475341797,        1.4953613281,       35.3088378906
1494036470.9245009422,       -0.7846679688,       -0.1157226562,        0.1513671875,      -34.3475341797,        1.4953613281,       35.3088378906
1494036470.9271960258,       -0.7846679688,        0.2592773438,        0.2011718750,      -35.8581542969,        0.1983642578,       37.9943847656
1494036470.9298870564,       -0.8554687500,        0.2651367188,        0.2011718750,      -35.8581542969,        0.1983642578,       37.9943847656
1494036470.9325819016,       -0.8554687500,        0.2651367188,        0.2011718750,      -40.7562255859,       -2.4719238281,       43.4417724609
1494036470.9352910519,       -0.8554687500,        0.2651367188,        0.2011718750,      -40.7562255859,       -2.4719238281,       43.4417724609
1494036470.9379780293,       -0.9609375000,        0.7744140625,        0.2133789062,      -44.1131591797,       -5.4931640625,       51.6510009766
1494036470.9407699108,       -0.9609375000,        0.7744140625,        0.2133789062,      -44.1131591797,       -5.4931640625,       51.6510009766
1494036470.9434750080,       -0.9609375000,        0.7744140625,        0.2133789062,      -41.3208007812,       -5.5847167969,       57.6324462891
1494036470.9461660385,       -0.9609375000,        0.7744140625,        0.2133789062,      -41.3208007812,       -5.5847167969,       57.6324462891
1494036470.9488580227,       -0.8881835938,        0.8022460938,        0.1074218750,      -37.7960205078,       -2.2125244141,       56.9610595703
1494036470.9515540600,       -0.8881835938,        0.8022460938,        0.1074218750,      -37.7960205078,       -2.2125244141,       56.9610595703
1494036470.9542410374,       -0.8881835938,        0.8022460938,        0.1074218750,      -33.8897705078,        2.6550292969,       50.8575439453
1494036470.9567921162,       -0.8881835938,        0.8022460938,        0.1074218750,      -34.0118408203,        2.6550292969,       50.8575439453
1494036470.9593470097,       -0.5820312500,        0.3657226562,       -0.1206054688,      -34.0118408203,        6.5612792969,       45.7763671875
1494036470.9619040489,       -0.5820312500,        0.3657226562,       -0.1206054688,      -31.0058593750,        5.0354003906,       45.7763671875
1494036470.9645409584,       -0.5820312500,        0.3657226562,       -0.1206054688,      -31.0058593750,        5.0354003906,       43.5180664062
1494036470.9672369957,       -0.5820312500,        0.3657226562,       -0.1274414062,      -28.0151367188,        3.8452148438,       43.5180664062
1494036470.9699289799,       -0.4174804688,        0.1738281250,       -0.1274414062,      -28.0151367188,        3.8452148438,       42.9840087891
1494036470.9726190567,       -0.4174804688,        0.1738281250,       -0.1274414062,      -24.7192382812,        1.9378662109,       42.9840087891
1494036470.9753229618,       -0.4174804688,        0.1738281250,       -0.1274414062,      -24.7192382812,        1.9378662109,       43.3959960938
1494036470.9780130386,       -0.4174804688,        0.1684570312,       -0.0502929688,      -23.3764648438,        1.0070800781,       43.3959960938
1494036470.9807050228,       -0.4575195312,        0.1684570312,       -0.0502929688,      -23.3764648438,        1.0070800781,       44.5556640625
1494036470.9834470749,       -0.4575195312,        0.1684570312,       -0.0502929688,      -25.7873535156,        0.9155273438,       44.5556640625
1494036470.9861459732,       -0.4575195312,        0.1684570312,       -0.0502929688,      -25.7873535156,        0.9155273438,       45.0439453125
1494036470.9888410568,       -0.5654296875,        0.2436523438,        0.0468750000,      -29.8004150391,        0.4425048828,       45.0439453125
1494036470.9915339947,       -0.5654296875,        0.2436523438,        0.0468750000,      -29.8004150391,        0.4425048828,       44.5861816406
1494036470.9942729473,       -0.5654296875,        0.2436523438,        0.0468750000,      -34.0118408203,       -0.7171630859,       44.5861816406
1494036470.9969689846,       -0.5654296875,        0.2436523438,        0.0468750000,      -34.0118408203,       -0.7171630859,       43.2586669922
1494036470.9996709824,       -0.6733398438,        0.4150390625,        0.1108398438,      -37.2924804688,       -2.5482177734,       43.2586669922
1494036471.0023701191,       -0.6733398438,        0.4150390625,        0.1108398438,      -37.2924804688,       -2.5482177734,       39.3524169922
1494036471.0049788952,       -0.6733398438,        0.4150390625,        0.1108398438,      -37.6892089844,       -3.9520263672,       42.0379638672
1494036471.0075349808,       -0.6733398438,        0.4150390625,        0.0600585938,      -37.6892089844,       -3.9520263672,       42.0379638672
1494036471.0100929737,       -0.7348632812,        0.5195312500,        0.0600585938,      -34.2102050781,       -4.4250488281,       40.0848388672
1494036471.0126500130,       -0.7348632812,        0.5195312500,        0.0600585938,      -34.2102050781,       -4.4250488281,       40.0848388672
1494036471.0154359341,       -0.7348632812,        0.5195312500,        0.0600585938,      -26.1993408203,       -5.3710937500,       36.8804931641
1494036471.0181388855,       -0.7348632812,        0.5258789062,       -0.0766601562,      -26.1993408203,       -5.3710937500,       36.8804931641
1494036471.0208370686,       -0.7441406250,        0.5258789062,       -0.0766601562,      -16.3269042969,       -6.1798095703,       33.9660644531
1494036471.0235459805,       -0.7441406250,        0.5258789062,       -0.0766601562,      -16.3269042969,       -6.1798095703,       33.9660644531
1494036471.0262379646,       -0.7441406250,        0.5258789062,       -0.0766601562,       -7.5988769531,       -6.0577392578,       31.4483642578
1494036471.0289249420,       -0.7080078125,        0.5048828125,       -0.1362304688,       -7.5988769531,       -6.0577392578,       31.4483642578
1494036471.0316181183,       -0.7080078125,        0.5048828125,       -0.1362304688,       -2.3193359375,       -5.2337646484,       29.3273925781
1494036471.0343201160,       -0.7080078125,        0.5048828125,       -0.1362304688,       -2.3193359375,       -5.2337646484,       29.3273925781
1494036471.0370121002,       -0.7080078125,        0.5048828125,       -0.1362304688,        0.9613037109,       -5.0201416016,       27.1911621094
1494036471.0396990776,       -0.6420898438,        0.4521484375,       -0.0898437500,        0.9613037109,       -5.0201416016,       27.1911621094
1494036471.0423929691,       -0.6420898438,        0.4521484375,       -0.0898437500,        2.5939941406,       -6.8359375000,       25.4669189453
1494036471.0450930595,       -0.6420898438,        0.4521484375,       -0.0898437500,        2.5939941406,       -6.8359375000,       25.4669189453
1494036471.0477809906,       -0.6420898438,        0.4521484375,       -0.0898437500,        3.8452148438,       -8.0261230469,       24.6124267578
1494036471.0504779816,       -0.6313476562,        0.4497070312,       -0.0185546875,        3.8452148438,       -8.0261230469,       24.6124267578
1494036471.0531849861,       -0.6313476562,        0.4497070312,       -0.0185546875,        5.2490234375,       -7.5225830078,       23.6663818359
1494036471.0557301044,       -0.6313476562,        0.4497070312,       -0.0185546875,        5.2490234375,       -7.5225830078,       23.6663818359
1494036471.0582818985,       -0.6313476562,        0.4497070312,        0.0517578125,        5.5847167969,       -6.8511962891,       22.9034423828
1494036471.0608320236,       -0.6171875000,        0.4335937500,        0.0517578125,        5.5847167969,       -6.8511962891,       22.9034423828
1494036471.0634760857,       -0.6171875000,        0.4335937500,        0.0517578125,        4.8675537109,       -7.4768066406,       22.2167968750
1494036471.0662701130,       -0.6171875000,        0.4335937500,        0.0517578125,        4.8675537109,       -7.4768066406,       22.2167968750
1494036471.0689680576,       -0.6171875000,        0.3920898438,        0.0043945312,        5.6915283203,       -7.8430175781,       21.2249755859
1494036471.0716600418,       -0.6059570312,        0.3920898438,        0.0043945312,        5.6915283203,       -7.8430175781,       21.2249755859
1494036471.0743629932,       -0.6059570312,        0.3920898438,        0.0043945312,        8.7127685547,       -6.5460205078,       19.3328857422
1494036471.0770630836,       -0.6059570312,        0.3920898438,        0.0043945312,        8.7127685547,       -6.5460205078,       19.3328857422
1494036471.0797638893,       -0.6425781250,        0.4301757812,       -0.0307617188,        7.9803466797,       -5.6304931641,       17.1051025391
1494036471.0824670792,       -0.6425781250,        0.4301757812,       -0.0307617188,        7.9803466797,       -5.6304931641,       17.1051025391
1494036471.0851709843,       -0.6425781250,        0.4301757812,       -0.0307617188,        5.2337646484,       -5.0354003906,       15.5944824219
1494036471.0878620148,       -0.6425781250,        0.4301757812,       -0.0307617188,        5.2337646484,       -5.0354003906,       15.5944824219
1494036471.0906701088,       -0.6845703125,        0.4179687500,       -0.0527343750,        3.6163330078,       -4.8065185547,       14.0533447266
1494036471.0934100151,       -0.6845703125,        0.4179687500,       -0.0527343750,        3.6163330078,       -4.8065185547,       14.0533447266
1494036471.0959630013,       -0.6845703125,        0.4179687500,       -0.0527343750,        1.6326904297,       -4.7454833984,       12.5579833984
1494036471.0985109806,       -0.6845703125,        0.4179687500,       -0.0029296875,        1.6326904297,       -4.7454833984,       12.5579833984
1494036471.1010620594,       -0.6411132812,        0.4160156250,       -0.0029296875,       -2.2735595703,       -3.9215087891,       10.5743408203
1494036471.1036839485,       -0.6411132812,        0.4160156250,       -0.0029296875,       -1.0070800781,       -3.9215087891,       10.5743408203
1494036471.1063780785,       -0.6411132812,        0.4160156250,       -0.0029296875,       -1.0070800781,       -4.9133300781,        7.8430175781
1494036471.1090619564,       -0.6411132812,        0.4345703125,        0.0732421875,       -4.4860839844,       -4.9133300781,        7.8430175781
1494036471.1117529869,       -0.6079101562,        0.4345703125,        0.0732421875,       -4.4860839844,       -5.6304931641,        4.2572021484
1494036471.1144840717,       -0.6079101562,        0.4345703125,        0.0732421875,       -8.3007812500,       -5.6304931641,        4.2572021484
1494036471.1171751022,       -0.6079101562,        0.4345703125,        0.0732421875,       -8.3007812500,       -6.2103271484,        1.7089843750
1494036471.1198680401,       -0.6127929688,        0.4282226562,        0.0981445312,       -9.0637207031,       -6.2103271484,        1.7089843750
1494036471.1225619316,       -0.6127929688,        0.4282226562,        0.0981445312,       -9.0637207031,       -6.2103271484,       -0.0152587891
1494036471.1252920628,       -0.6127929688,        0.4282226562,        0.0981445312,       -8.2244873047,       -7.0190429688,       -0.0152587891
1494036471.1279859543,       -0.6127929688,        0.4282226562,        0.0981445312,       -8.2244873047,      -10.9252929688,       -1.5258789062
1494036471.1306819916,       -0.6240234375,        0.4042968750,        0.0747070312,       -6.3171386719,       -7.8430175781,       -1.5258789062
1494036471.1334159374,       -0.6240234375,        0.4042968750,        0.0747070312,       -6.3171386719,       -7.8430175781,       -3.0517578125
1494036471.1361169815,       -0.6240234375,        0.4042968750,        0.0747070312,       -5.2947998047,       -8.5601806641,       -3.0517578125
1494036471.1388089657,       -0.6240234375,        0.4042968750,        0.0405273438,       -5.2947998047,       -8.5601806641,       -4.2266845703
1494036471.1414968967,       -0.6411132812,        0.4111328125,        0.0405273438,       -4.7912597656,       -8.8500976562,       -4.2266845703
1494036471.1441409588,       -0.6411132812,        0.4111328125,        0.0405273438,       -4.7912597656,       -8.8500976562,       -6.1340332031
1494036471.1466910839,       -0.6411132812,        0.4111328125,        0.0405273438,       -4.2877197266,       -9.0637207031,       -6.1340332031
1494036471.1492459774,       -0.6411132812,        0.4111328125,        0.0268554688,       -4.2877197266,       -9.0637207031,      -10.0402832031
1494036471.1518039703,       -0.6562500000,        0.4179687500,        0.0268554688,       -4.2572021484,       -9.3994140625,       -8.1176757812
1494036471.1544721127,       -0.6562500000,        0.4179687500,        0.0268554688,       -4.2572021484,       -9.3994140625,       -8.1176757812
1494036471.1573619843,       -0.6562500000,        0.4179687500,        0.0268554688,       -3.5552978516,       -9.3688964844,       -9.6130371094
1494036471.1600511074,       -0.6567382812,        0.3940429688,        0.0341796875,       -3.5552978516,       -9.3688964844,       -9.6130371094
1494036471.1628539562,       -0.6567382812,        0.3940429688,        0.0341796875,       -3.3264160156,       -9.2926025391,      -10.8337402344
1494036471.1655650139,       -0.6567382812,        0.3940429688,        0.0341796875,       -3.3264160156,       -9.2926025391,      -10.8337402344
1494036471.1682600975,       -0.6567382812,        0.3940429688,        0.0341796875,       -3.6315917969,       -9.3078613281,      -11.3220214844
1494036471.1709589958,       -0.6469726562,        0.3769531250,        0.0395507812,       -3.6315917969,       -9.3078613281,      -15.2282714844
1494036471.1736600399,       -0.6469726562,        0.3769531250,        0.0395507812,       -4.3029785156,       -9.2163085938,      -11.9476318359
1494036471.1763470173,       -0.6469726562,        0.3769531250,        0.0395507812,       -4.3029785156,       -9.2163085938,      -11.9476318359
1494036471.1790430546,       -0.6469726562,        0.3769531250,        0.0551757812,       -5.2337646484,       -9.3383789062,      -13.5650634766
1494036471.1817359924,       -0.6376953125,        0.4091796875,        0.0551757812,       -5.2337646484,       -9.3383789062,      -13.5650634766
