time_stamp before, Acceleration x, Acceleration y, Acceleration z, Gyro x, Gyro y, Gyro z
1494036559.0136430264,       -0.7319335938,        0.1303710938,        0.0014648438,        1.0223388672,       -0.0915527344,        0.4272460938
1494036559.0270218849,       -0.7319335938,        0.1303710938,        0.0014648438,        1.0223388672,       -0.0915527344,        0.4272460938
1494036559.0298190117,       -0.7363281250,        0.1220703125,        0.0058593750,        1.6937255859,       -0.1678466797,        0.5798339844
1494036559.0325291157,       -0.7363281250,        0.1220703125,        0.0058593750,        1.6937255859,       -0.1678466797,        0.5798339844
1494036559.0352699757,       -0.7363281250,        0.1220703125,        0.0058593750,        1.5716552734,       -0.3967285156,        0.1220703125
1494036559.0379629135,       -0.7363281250,        0.1220703125,        0.0058593750,        1.5716552734,       -0.3967285156,        0.1220703125
1494036559.0406510830,       -0.7402343750,        0.1201171875,       -0.0009765625,        0.9918212891,       -0.0152587891,        0.1678466797
1494036559.0433359146,       -0.7402343750,        0.1201171875,       -0.0009765625,        0.9918212891,       -0.0152587891,        0.1678466797
1494036559.0460240841,       -0.7402343750,        0.1201171875,       -0.0009765625,        0.7019042969,        0.2593994141,        0.6408691406
1494036559.0487079620,       -0.7402343750,        0.2451171875,       -0.0029296875,        0.7019042969,        0.2593994141,        0.6408691406
1494036559.0513949394,       -0.7343750000,        0.1284179688,       -0.0029296875,        1.1749267578,        0.1220703125,        0.7171630859
1494036559.0540928841,       -0.7343750000,        0.1284179688,       -0.0029296875,        1.1749267578,        0.1220703125,        0.7171630859
1494036559.0567760468,       -0.7343750000,        0.1284179688,       -0.0029296875,        0.2899169922,        0.5340576172,        0.4119873047
1494036559.0594749451,       -0.7294921875,        0.1274414062,        0.0004882812,        0.2899169922,        0.5340576172,        0.4119873047
1494036559.0621590614,       -0.7294921875,        0.1274414062,        0.0004882812,       -0.0152587891,        0.5493164062,        0.6256103516
1494036559.0647749901,       -0.7294921875,        0.1274414062,        0.0004882812,       -0.0152587891,        0.5493164062,        0.6256103516
1494036559.0673210621,       -0.7294921875,        0.1274414062,        0.0004882812,        0.4272460938,        0.3204345703,        0.5645751953
1494036559.0698580742,       -0.7304687500,        0.1381835938,       -0.0043945312,        0.4272460938,        0.3204345703,        0.5645751953
1494036559.0723989010,       -0.7304687500,        0.1381835938,       -0.0043945312,        1.1596679688,        0.2593994141,        0.9918212891
1494036559.0751159191,       -0.7304687500,        0.1381835938,       -0.0043945312,        1.1596679688,        0.2593994141,        0.9918212891
1494036559.0776619911,       -0.7304687500,        0.1381835938,       -0.0043945312,        1.4801025391,       -0.1220703125,        0.8850097656
1494036559.0802149773,       -0.7158203125,        0.1489257812,       -0.0161132812,        1.4801025391,       -0.1220703125,        0.8850097656
1494036559.0827579498,       -0.7158203125,        0.1489257812,       -0.0161132812,        2.2277832031,       -0.1373291016,        0.9460449219
1494036559.0855839252,       -0.7158203125,        0.1489257812,       -0.0161132812,        2.2277832031,       -0.1373291016,        0.9460449219
1494036559.0882740021,       -0.7158203125,        0.1489257812,       -0.0161132812,        3.7536621094,        0.0915527344,        0.7629394531
1494036559.0909619331,       -0.7231445312,        0.1538085938,       -0.0170898438,        3.7536621094,        0.0915527344,        0.7629394531
1494036559.0936620235,       -0.7231445312,        0.1538085938,       -0.0170898438,        4.9438476562,        0.0305175781,        0.1220703125
1494036559.0963470936,       -0.7231445312,        0.1538085938,       -0.0170898438,        4.9438476562,        0.0305175781,        0.1220703125
1494036559.0991899967,       -0.7231445312,        0.1538085938,       -0.0068359375,        5.4931640625,       -0.2593994141,       -0.3662109375
1494036559.1018869877,       -0.7358398438,        0.1469726562,       -0.0068359375,        5.4931640625,       -0.2593994141,       -0.3662109375
1494036559.1045761108,       -0.7358398438,        0.1469726562,       -0.0068359375,        5.7983398438,       -0.4272460938,       -0.4272460938
1494036559.1072599888,       -0.7358398438,        0.1469726562,       -0.0068359375,        5.7983398438,       -0.4272460938,       -0.4272460938
1494036559.1099491119,       -0.7382812500,        0.1279296875,       -0.0014648438,        5.5694580078,       -0.6103515625,       -0.1220703125
1494036559.1126320362,       -0.7382812500,        0.1279296875,       -0.0014648438,        5.5694580078,       -0.6103515625,       -0.1220703125
1494036559.1152288914,       -0.7382812500,        0.1279296875,       -0.0014648438,        5.5694580078,       -0.1525878906,       -0.2136230469
1494036559.1177799702,       -0.7382812500,        0.1279296875,       -0.0014648438,        4.5928955078,       -0.1525878906,       -0.2136230469
1494036559.1203320026,       -0.7353515625,        0.1250000000,        0.0126953125,        4.5928955078,       -0.1525878906,       -0.0305175781
1494036559.1228818893,       -0.7353515625,        0.1250000000,        0.0126953125,        3.5247802734,        0.0915527344,       -0.0305175781
1494036559.1255791187,       -0.7353515625,        0.1250000000,        0.0126953125,        3.5247802734,        0.0915527344,       -0.1525878906
1494036559.1282689571,       -0.7353515625,        0.1250000000,        0.0126953125,        2.7160644531,        0.3051757812,       -0.1525878906
1494036559.1309590340,       -0.7324218750,        0.1318359375,       -0.0004882812,        2.7160644531,        0.3051757812,        0.0152587891
1494036559.1336600780,       -0.7324218750,        0.1318359375,       -0.0004882812,        2.3040771484,        0.6713867188,        0.0152587891
1494036559.1363549232,       -0.7324218750,        0.1318359375,       -0.0004882812,        2.3040771484,        0.6713867188,        0.2441406250
1494036559.1391749382,       -0.7324218750,        0.1318359375,       -0.0078125000,        2.5482177734,        0.7781982422,        0.2441406250
1494036559.1419370174,       -0.7260742188,        0.1416015625,       -0.0078125000,        2.4719238281,        0.3967285156,        0.4272460938
1494036559.1454770565,       -0.7260742188,        0.1416015625,       -0.0078125000,        2.4719238281,        0.3967285156,        0.4272460938
1494036559.1481609344,       -0.7260742188,        0.1416015625,       -0.0078125000,        2.1514892578,        0.5645751953,        0.7324218750
1494036559.1508550644,       -0.7133789062,        0.1435546875,       -0.0092773438,        2.1514892578,        0.5645751953,        0.7324218750
1494036559.1535561085,       -0.7133789062,        0.1435546875,       -0.0092773438,        1.1901855469,        0.9613037109,        1.4190673828
1494036559.1562440395,       -0.7133789062,        0.1435546875,       -0.0092773438,        1.1901855469,        0.9613037109,        1.4190673828
1494036559.1589360237,       -0.7133789062,        0.1435546875,       -0.0092773438,       -0.6561279297,        1.7242431641,        1.7089843750
1494036559.1616189480,       -0.7226562500,        0.1240234375,       -0.0288085938,       -0.6561279297,        1.7242431641,        1.7089843750
1494036559.1642689705,       -0.7226562500,        0.1240234375,       -0.0288085938,       -0.6561279297,        2.7313232422,        2.0599365234
1494036559.1668128967,       -0.7226562500,        0.1240234375,       -0.0288085938,       -2.0446777344,        2.7313232422,        2.0599365234
1494036559.1693611145,       -0.7226562500,        0.1240234375,       -0.0288085938,       -2.0446777344,        2.7313232422,        3.2196044922
1494036559.1720159054,       -0.7285156250,        0.1069335938,       -0.0312500000,       -3.5400390625,        2.9907226562,        3.2196044922
1494036559.1746110916,       -0.7285156250,        0.1069335938,       -0.0312500000,       -3.5400390625,        2.9907226562,        4.4097900391
1494036559.1771581173,       -0.7285156250,        0.1069335938,       -0.0312500000,       -5.2795410156,        2.5787353516,        4.4097900391
1494036559.1797049046,       -0.7285156250,        0.1069335938,       -0.0034179688,       -5.2795410156,        2.5787353516,        4.4097900391
1494036559.1822481155,       -0.7529296875,        0.0654296875,       -0.0034179688,       -6.8969726562,        2.3956298828,        5.2642822266
1494036559.1848299503,       -0.7529296875,        0.0654296875,       -0.0034179688,       -6.8969726562,        2.3956298828,        5.2642822266
1494036559.1873719692,       -0.7529296875,        0.0654296875,       -0.0034179688,       -8.7280273438,        2.0904541016,        6.0729980469
1494036559.1899230480,       -0.7529296875,        0.0654296875,        0.0078125000,       -8.7280273438,        2.0904541016,        6.0729980469
1494036559.1924738884,       -0.7709960938,        0.0092773438,        0.0078125000,      -11.6577148438,        1.5411376953,        6.8206787109
1494036559.1951289177,       -0.7709960938,        0.0092773438,        0.0078125000,      -11.6577148438,        1.5411376953,        6.8206787109
1494036559.1976850033,       -0.7709960938,        0.0092773438,        0.0078125000,      -10.9863281250,        2.0599365234,        6.1035156250
1494036559.2002429962,       -0.7709960938,        0.0092773438,        0.0356445312,      -10.9863281250,        2.0599365234,        6.1035156250
1494036559.2027928829,       -0.7851562500,        0.0581054688,        0.0356445312,      -11.4593505859,        3.4179687500,        5.6762695312
1494036559.2056128979,       -0.7851562500,        0.0581054688,        0.0356445312,      -11.4593505859,        3.4179687500,        5.6762695312
1494036559.2083060741,       -0.7851562500,        0.0581054688,        0.0356445312,      -12.7410888672,        3.4027099609,        6.0577392578
1494036559.2109971046,       -0.7426757812,        0.2089843750,        0.0268554688,      -12.7410888672,        3.4027099609,        6.0577392578
1494036559.2136859894,       -0.7426757812,        0.2089843750,        0.0268554688,      -10.3302001953,        3.3874511719,        6.3934326172
1494036559.2162389755,       -0.7426757812,        0.2089843750,        0.0268554688,      -10.3302001953,        3.3874511719,        6.3934326172
1494036559.2187900543,       -0.7426757812,        0.2089843750,        0.0268554688,      -10.3302001953,        3.6163330078,        6.1950683594
1494036559.2213459015,       -0.7402343750,        0.1791992188,        0.0263671875,       -7.9345703125,        3.6163330078,        6.1950683594
1494036559.2239470482,       -0.7402343750,        0.1791992188,        0.0263671875,       -7.9345703125,        3.9825439453,        5.3863525391
1494036559.2266290188,       -0.7402343750,        0.1791992188,        0.0263671875,       -5.2642822266,        3.9825439453,        5.3863525391
1494036559.2293119431,       -0.7402343750,        0.1791992188,        0.0263671875,       -5.2642822266,        3.9825439453,        4.5166015625
1494036559.2319939137,       -0.7475585938,        0.1425781250,        0.0209960938,       -2.3803710938,        4.7760009766,        4.5166015625
1494036559.2346169949,       -0.7475585938,        0.1425781250,        0.0209960938,       -2.3803710938,        4.7760009766,        4.3029785156
1494036559.2371630669,       -0.7475585938,        0.1425781250,        0.0209960938,        0.1220703125,        4.5623779297,        4.3029785156
1494036559.2397079468,       -0.7475585938,        0.1425781250,        0.0209960938,        0.1220703125,        4.5623779297,        4.3029785156
1494036559.2422580719,       -0.7338867188,        0.1357421875,        0.0200195312,        1.1749267578,        4.2724609375,        4.5928955078
1494036559.2450540066,       -0.7338867188,        0.1357421875,        0.0200195312,        1.1749267578,        4.2724609375,        4.5928955078
1494036559.2477409840,       -0.7338867188,        0.1357421875,        0.0200195312,        1.1749267578,        4.5471191406,        4.5471191406
1494036559.2504200935,       -0.7338867188,        0.1357421875,        0.0205078125,        1.1749267578,        4.5471191406,        4.5471191406
1494036559.2531011105,       -0.7280273438,        0.1372070312,        0.0205078125,        0.5798339844,        4.8370361328,        4.6539306641
1494036559.2557990551,       -0.7280273438,        0.1372070312,        0.0205078125,        0.5798339844,        4.8370361328,        4.6539306641
1494036559.2584850788,       -0.7280273438,        0.1372070312,        0.0205078125,        0.3356933594,        5.4626464844,        4.7302246094
1494036559.2611830235,       -0.7280273438,        0.1342773438,        0.0039062500,        0.3356933594,        5.4626464844,        4.7302246094
1494036559.2638580799,       -0.7275390625,        0.1342773438,        0.0039062500,        0.7171630859,        5.5999755859,        4.8370361328
1494036559.2664060593,       -0.7275390625,        0.1342773438,        0.0039062500,        0.7171630859,        5.5999755859,        4.8370361328
1494036559.2689480782,       -0.7275390625,        0.1342773438,        0.0039062500,        0.3967285156,        5.1727294922,        5.1727294922
1494036559.2714929581,       -0.7368164062,        0.1337890625,       -0.0141601562,        0.3967285156,        5.1727294922,        5.1727294922
1494036559.2741310596,       -0.7368164062,        0.1337890625,       -0.0141601562,        0.2899169922,        5.5236816406,        5.1116943359
1494036559.2768199444,       -0.7368164062,        0.1337890625,       -0.0141601562,        0.2899169922,        5.5236816406,        5.1116943359
1494036559.2795100212,       -0.7368164062,        0.1337890625,       -0.0141601562,        0.6866455078,        5.5084228516,        5.4016113281
1494036559.2822010517,       -0.7421875000,        0.1396484375,       -0.0292968750,        0.6866455078,        5.5084228516,        5.4016113281
1494036559.2848970890,       -0.7421875000,        0.1396484375,       -0.0292968750,        0.7324218750,        5.5084228516,        6.0119628906
1494036559.2875859737,       -0.7421875000,        0.1396484375,       -0.0292968750,        0.7324218750,        5.5084228516,        6.0119628906
1494036559.2902739048,       -0.7421875000,        0.1396484375,       -0.0292968750,        0.8850097656,        5.4626464844,        5.9204101562
1494036559.2929630280,       -0.7416992188,        0.1289062500,       -0.0185546875,        0.8850097656,        5.4626464844,        5.9204101562
1494036559.2955698967,       -0.7416992188,        0.1289062500,       -0.0185546875,        0.0610351562,        5.6304931641,        6.5460205078
1494036559.2981181145,       -0.7416992188,        0.1289062500,       -0.0185546875,        0.0610351562,        5.6304931641,        6.5460205078
1494036559.3006639481,       -0.7416992188,        0.1289062500,       -0.0185546875,       -0.9307861328,        5.9051513672,        7.0495605469
1494036559.3033170700,       -0.7392578125,        0.1313476562,       -0.0195312500,       -0.9307861328,        5.9051513672,        7.0495605469
1494036559.3058729172,       -0.7392578125,        0.1313476562,       -0.0195312500,       -0.9307861328,        5.9509277344,        7.1868896484
1494036559.3084189892,       -0.7392578125,        0.1313476562,       -0.0195312500,       -1.3580322266,        5.9509277344,        7.1868896484
1494036559.3109619617,       -0.7392578125,        0.1313476562,       -0.0249023438,       -1.3580322266,        5.9509277344,        7.4310302734
1494036559.3136789799,       -0.7441406250,        0.1206054688,       -0.0249023438,       -2.1057128906,        5.8441162109,        7.4310302734
1494036559.3162341118,       -0.7441406250,        0.1206054688,       -0.0249023438,       -2.1057128906,        5.8441162109,        7.4157714844
1494036559.3188879490,       -0.7441406250,        0.1206054688,       -0.0249023438,       -2.6092529297,        6.1035156250,        7.4157714844
1494036559.3214399815,       -0.7441406250,        0.1293945312,       -0.0185546875,       -2.6092529297,        6.1035156250,        7.3699951172
1494036559.3240869045,       -0.7368164062,        0.1293945312,       -0.0185546875,       -3.0212402344,        5.8441162109,        7.3699951172
1494036559.3267788887,       -0.7368164062,        0.1293945312,       -0.0185546875,       -3.0212402344,        5.8441162109,        7.3699951172
1494036559.3294630051,       -0.7368164062,        0.1293945312,       -0.0185546875,       -3.4179687500,        5.7220458984,        7.7209472656
1494036559.3321490288,       -0.7333984375,        0.1567382812,       -0.0166015625,       -3.4179687500,        5.7220458984,       11.6271972656
1494036559.3348870277,       -0.7333984375,        0.1567382812,       -0.0166015625,       -3.2196044922,        5.7067871094,        8.0413818359
1494036559.3375790119,       -0.7333984375,        0.1567382812,       -0.0166015625,       -3.2196044922,        5.7067871094,        8.0413818359
1494036559.3402669430,       -0.7333984375,        0.1567382812,       -0.0166015625,       -2.4719238281,        6.0729980469,        8.1176757812
1494036559.3429570198,       -0.7236328125,        0.1713867188,       -0.0063476562,       -2.4719238281,        6.0729980469,        8.1176757812
1494036559.3457050323,       -0.7236328125,        0.1713867188,       -0.0063476562,       -1.4648437500,        6.3476562500,        8.0566406250
1494036559.3482649326,       -0.7236328125,        0.1713867188,       -0.0063476562,       -1.4648437500,        6.3476562500,        8.0566406250
1494036559.3508150578,       -0.7236328125,        0.1713867188,       -0.0063476562,        0.0305175781,        6.0272216797,        7.9956054688
1494036559.3535819054,       -0.7187500000,        0.1782226562,       -0.0058593750,        0.0305175781,        6.0272216797,        7.9956054688
1494036559.3562340736,       -0.7187500000,        0.1782226562,       -0.0058593750,        1.5258789062,        5.6610107422,        7.9345703125
1494036559.3589498997,       -0.7187500000,        0.1782226562,       -0.0058593750,        1.5258789062,        5.6610107422,        7.9345703125
1494036559.3616230488,       -0.7187500000,        0.1782226562,       -0.0146484375,        2.6550292969,        5.6610107422,        7.5531005859
1494036559.3643989563,       -0.7270507812,        0.1816406250,       -0.0146484375,        2.6550292969,        5.6610107422,        7.5531005859
1494036559.3669500351,       -0.7270507812,        0.1816406250,       -0.0146484375,        3.7994384766,        5.7373046875,        7.2326660156
1494036559.3694980145,       -0.7270507812,        0.1816406250,       -0.0146484375,        3.7994384766,        5.7373046875,        7.2326660156
1494036559.3720419407,       -0.7270507812,        0.1621093750,       -0.0034179688,        3.8299560547,        5.8898925781,        7.0800781250
1494036559.3747179508,       -0.7290039062,        0.1621093750,       -0.0034179688,        3.8299560547,        5.8898925781,        7.0800781250
1494036559.3774039745,       -0.7290039062,        0.1621093750,       -0.0034179688,        3.6621093750,        6.4086914062,        7.5836181641
1494036559.3800890446,       -0.7290039062,        0.1621093750,       -0.0034179688,        3.6621093750,        6.4086914062,        7.5836181641
1494036559.3827819824,       -0.7338867188,        0.1459960938,       -0.0063476562,        3.1738281250,        6.4544677734,        7.4005126953
1494036559.3854780197,       -0.7338867188,        0.1459960938,       -0.0063476562,        3.1738281250,        6.4544677734,        7.4005126953
1494036559.3881690502,       -0.7338867188,        0.1459960938,       -0.0063476562,        2.4261474609,        6.4392089844,        7.5378417969
1494036559.3909740448,       -0.7338867188,        0.1459960938,       -0.0063476562,        2.4261474609,        6.4392089844,        7.5378417969
1494036559.3936560154,       -0.7250976562,        0.1391601562,       -0.0126953125,        1.8768310547,        6.7443847656,        7.9040527344
1494036559.3962039948,       -0.7250976562,        0.1391601562,       -0.0126953125,        1.8768310547,        6.7443847656,        7.9040527344
1494036559.3987441063,       -0.7250976562,        0.1391601562,       -0.0126953125,        1.6479492188,        7.1563720703,        8.0261230469
1494036559.4012899399,       -0.7250976562,        0.1391601562,       -0.0126953125,        1.6479492188,        7.1563720703,        8.0261230469
1494036559.4038770199,       -0.7377929688,        0.1591796875,       -0.0214843750,        1.6479492188,        7.4462890625,        8.1787109375
1494036559.4064218998,       -0.7377929688,        0.1591796875,       -0.0214843750,        2.0599365234,        7.4462890625,        8.1787109375
1494036559.4089779854,       -0.7377929688,        0.1591796875,       -0.0214843750,        2.0599365234,        7.4462890625,        8.7432861328
1494036559.4115259647,       -0.7377929688,        0.1591796875,       -0.0214843750,        2.7618408203,        7.2326660156,        8.7432861328
1494036559.4141750336,       -0.7304687500,        0.1582031250,       -0.0263671875,        2.7618408203,        7.2326660156,        9.0637207031
1494036559.4167249203,       -0.7304687500,        0.1582031250,       -0.0263671875,        3.2348632812,        7.3547363281,        9.0637207031
1494036559.4192709923,       -0.7304687500,        0.1582031250,       -0.0263671875,        3.2348632812,        7.3547363281,        9.0637207031
1494036559.4218170643,       -0.7304687500,        0.1582031250,       -0.0263671875,        3.6621093750,        7.4920654297,        9.2620849609
1494036559.4245910645,       -0.7382812500,        0.1435546875,       -0.0170898438,        3.6621093750,        7.4920654297,        9.2620849609
1494036559.4272799492,       -0.7382812500,        0.1435546875,       -0.0170898438,        3.3569335938,        6.8359375000,        9.4757080078
1494036559.4299750328,       -0.7382812500,        0.1435546875,       -0.0170898438,        3.3569335938,        6.8359375000,        9.4757080078
1494036559.4326601028,       -0.7382812500,        0.1372070312,       -0.0244140625,        2.9907226562,        6.9580078125,        9.9792480469
1494036559.4353590012,       -0.7421875000,        0.1372070312,       -0.0244140625,        2.9907226562,        6.9580078125,        9.9792480469
1494036559.4380509853,       -0.7421875000,        0.1372070312,       -0.0244140625,        2.9754638672,        7.6904296875,       10.5133056641
1494036559.4407401085,       -0.7421875000,        0.1372070312,       -0.0244140625,        2.9754638672,        7.6904296875,       10.5133056641
1494036559.4434700012,       -0.7426757812,        0.1552734375,       -0.0268554688,        2.8533935547,        7.7514648438,       11.1541748047
1494036559.4461669922,       -0.7426757812,        0.1552734375,       -0.0268554688,        2.8533935547,        7.7514648438,       11.1541748047
1494036559.4488549232,       -0.7426757812,        0.1552734375,       -0.0268554688,        2.6245117188,        7.9803466797,       11.6271972656
1494036559.4515450001,       -0.7426757812,        0.1552734375,       -0.0268554688,        2.6245117188,        7.9803466797,       11.6271972656
1494036559.4542250633,       -0.7412109375,        0.1567382812,       -0.0317382812,        1.9836425781,        8.0261230469,       12.2222900391
1494036559.4567780495,       -0.7412109375,        0.1567382812,       -0.0317382812,        1.9836425781,        8.0261230469,       12.2222900391
1494036559.4593350887,       -0.7412109375,        0.1567382812,       -0.0317382812,        2.0599365234,        8.2244873047,       13.3666992188
1494036559.4618849754,       -0.7412109375,        0.1567382812,       -0.0317382812,        2.0599365234,        8.2244873047,       13.3666992188
1494036559.4645760059,       -0.7285156250,        0.1513671875,       -0.0307617188,        2.2888183594,        8.3618164062,       14.1754150391
1494036559.4671299458,       -0.7285156250,        0.1513671875,       -0.0307617188,        2.2888183594,        8.3618164062,       14.1754150391
1494036559.4696760178,       -0.7285156250,        0.1513671875,       -0.0307617188,        2.2277832031,        8.6975097656,       15.2893066406
1494036559.4722280502,       -0.7285156250,        0.1513671875,       -0.0307617188,        2.2277832031,        8.6975097656,       15.2893066406
1494036559.4749128819,       -0.7304687500,        0.1455078125,       -0.0283203125,        2.4871826172,        8.8195800781,       16.7236328125
1494036559.4776010513,       -0.7304687500,        0.1455078125,       -0.0283203125,        2.4871826172,        8.8195800781,       16.7236328125
1494036559.4804189205,       -0.7304687500,        0.1455078125,       -0.0283203125,        2.5634765625,        8.8653564453,       18.3715820312
1494036559.4835469723,       -0.7314453125,        0.1425781250,       -0.0195312500,        2.5634765625,        8.8653564453,       18.3715820312
1494036559.4862449169,       -0.7314453125,        0.1425781250,       -0.0195312500,        2.3803710938,        9.2010498047,       20.2484130859
1494036559.4889359474,       -0.7314453125,        0.1425781250,       -0.0195312500,        2.3803710938,        9.2010498047,       20.2484130859
1494036559.4916300774,       -0.7314453125,        0.1425781250,       -0.0195312500,        1.4953613281,        9.3078613281,       22.5982666016
1494036559.4943370819,       -0.7348632812,        0.1069335938,       -0.0327148438,        1.4953613281,        9.3078613281,       22.5982666016
1494036559.4970309734,       -0.7348632812,        0.1069335938,       -0.0327148438,       -0.5187988281,        8.4838867188,       24.6734619141
1494036559.4997251034,       -0.7348632812,        0.1069335938,       -0.0327148438,       -0.5187988281,        8.4838867188,       24.6734619141
1494036559.5024220943,       -0.7348632812,        0.1069335938,       -0.0327148438,       -0.5187988281,        8.4228515625,       25.7720947266
1494036559.5051319599,       -0.7568359375,        0.0322265625,       -0.0190429688,       -0.5187988281,        8.4228515625,       25.7720947266
1494036559.5078289509,       -0.7568359375,        0.0322265625,       -0.0190429688,       -1.7852783203,        9.5062255859,       26.7791748047
1494036559.5105218887,       -0.7568359375,        0.0322265625,       -0.0190429688,       -1.7852783203,        9.5062255859,       26.7791748047
1494036559.5132329464,       -0.7568359375,        0.1157226562,       -0.0283203125,       -4.1961669922,       10.5743408203,       28.3660888672
1494036559.5157968998,       -0.7504882812,        0.1157226562,       -0.0283203125,       -4.1961669922,       10.5743408203,       28.3660888672
1494036559.5183539391,       -0.7504882812,        0.1157226562,       -0.0283203125,       -6.4086914062,       10.2539062500,       31.0363769531
1494036559.5209090710,       -0.7504882812,        0.1157226562,       -0.0283203125,       -6.4086914062,       10.2539062500,       31.0363769531
1494036559.5235219002,       -0.7504882812,        0.1640625000,       -0.0361328125,       -6.4086914062,       10.2081298828,       32.8521728516
1494036559.5260810852,       -0.7612304688,        0.1640625000,       -0.0361328125,       -7.3394775391,       10.2081298828,       32.8521728516
1494036559.5286390781,       -0.7612304688,        0.1640625000,       -0.0361328125,       -7.3394775391,       10.2081298828,       33.5693359375
1494036559.5311920643,       -0.7612304688,        0.1640625000,       -0.0361328125,       -7.0037841797,        9.6893310547,       33.5693359375
1494036559.5338940620,       -0.7709960938,        0.1552734375,       -0.0483398438,       -7.0037841797,        9.6893310547,       34.1491699219
1494036559.5364520550,       -0.7709960938,        0.1552734375,       -0.0483398438,       -5.8135986328,        9.1705322266,       34.1491699219
1494036559.5391170979,       -0.7709960938,        0.1552734375,       -0.0483398438,       -5.8135986328,        9.1705322266,       34.1491699219
1494036559.5416729450,       -0.7709960938,        0.1552734375,       -0.0483398438,       -4.1809082031,        9.3994140625,       35.0341796875
1494036559.5444250107,       -0.7695312500,        0.1728515625,       -0.0400390625,       -4.1809082031,        9.3994140625,       38.9404296875
1494036559.5471239090,       -0.7695312500,        0.1728515625,       -0.0400390625,       -2.7313232422,        8.8806152344,       36.0260009766
1494036559.5498249531,       -0.7695312500,        0.1728515625,       -0.0400390625,       -2.7313232422,        8.8806152344,       36.0260009766
1494036559.5525159836,       -0.7695312500,        0.1728515625,       -0.0400390625,       -0.9918212891,        8.6364746094,       36.7431640625
1494036559.5552120209,       -0.7573242188,        0.1870117188,       -0.0434570312,       -0.9918212891,        8.6364746094,       36.7431640625
1494036559.5579099655,       -0.7573242188,        0.1870117188,       -0.0434570312,        0.3204345703,        8.3160400391,       37.1398925781
1494036559.5606050491,       -0.7573242188,        0.1870117188,       -0.0434570312,        0.3204345703,        8.3160400391,       37.1398925781
1494036559.5633089542,       -0.7573242188,        0.1870117188,       -0.0356445312,        1.0986328125,        7.4310302734,       37.5823974609
1494036559.5658628941,       -0.7773437500,        0.1997070312,       -0.0356445312,        1.0986328125,        7.4310302734,       37.5823974609
1494036559.5684111118,       -0.7773437500,        0.1997070312,       -0.0356445312,        2.8381347656,        6.4086914062,       38.9404296875
1494036559.5709629059,       -0.7773437500,        0.1997070312,       -0.0356445312,        2.8381347656,        6.4086914062,       38.9404296875
1494036559.5735189915,       -0.7773437500,        0.1997070312,       -0.0522460938,        3.4942626953,        5.7373046875,       39.8559570312
1494036559.5760700703,       -0.7812500000,        0.2050781250,       -0.0522460938,        3.4942626953,        5.7373046875,       39.8559570312
1494036559.5786209106,       -0.7812500000,        0.2050781250,       -0.0522460938,        3.7231445312,        5.5999755859,       40.5273437500
1494036559.5811738968,       -0.7812500000,        0.2050781250,       -0.0522460938,        3.7231445312,        5.5999755859,       40.5273437500
1494036559.5838649273,       -0.7812500000,        0.1909179688,       -0.0493164062,        4.1656494141,        5.1574707031,       41.8243408203
1494036559.5864291191,       -0.7656250000,        0.1909179688,       -0.0493164062,        4.1656494141,        5.1574707031,       41.8243408203
1494036559.5889790058,       -0.7656250000,        0.1909179688,       -0.0493164062,        4.1656494141,        5.3253173828,       43.3502197266
1494036559.5915369987,       -0.7656250000,        0.1909179688,       -0.0493164062,        5.5541992188,        5.3253173828,       43.3502197266
1494036559.5942521095,       -0.6406250000,        0.1855468750,       -0.0390625000,        5.5541992188,        4.7149658203,       44.9371337891
1494036559.5969080925,       -0.7470703125,        0.1855468750,       -0.0390625000,        6.6375732422,        4.7149658203,       44.9371337891
1494036559.5998210907,       -0.7470703125,        0.1855468750,       -0.0390625000,        6.6375732422,        3.6773681641,       46.5393066406
1494036559.6025030613,       -0.7470703125,        0.1855468750,       -0.0390625000,        7.4310302734,        3.6773681641,       46.5393066406
1494036559.6055080891,       -0.7412109375,        0.1879882812,       -0.0322265625,        8.3770751953,        3.1433105469,       47.9888916016
1494036559.6081969738,       -0.7412109375,        0.1879882812,       -0.0322265625,        8.3770751953,        3.1433105469,       47.9888916016
1494036559.6110019684,       -0.7412109375,        0.1879882812,       -0.0322265625,        8.9721679688,        2.6397705078,       49.5147705078
1494036559.6136929989,       -0.7412109375,        0.1879882812,       -0.0019531250,        8.9721679688,        2.6397705078,       49.5147705078
1494036559.6162450314,       -0.7500000000,        0.1933593750,       -0.0019531250,        9.4146728516,        1.0833740234,       51.4373779297
1494036559.6188058853,       -0.7500000000,        0.1933593750,       -0.0019531250,        9.4146728516,        1.0833740234,       51.4373779297
1494036559.6213591099,       -0.7500000000,        0.1933593750,       -0.0019531250,        9.4146728516,       -0.4882812500,       53.4362792969
1494036559.6239559650,       -0.7500000000,        0.1933593750,        0.0141601562,        9.6588134766,       -0.4882812500,       53.4362792969
1494036559.6266369820,       -0.7807617188,        0.1918945312,        0.0141601562,        9.6588134766,       -0.4882812500,       54.4433593750
1494036559.6293089390,       -0.7807617188,        0.1918945312,        0.0141601562,       10.3454589844,       -1.6632080078,       54.4433593750
1494036559.6319859028,       -0.7807617188,        0.1918945312,        0.0141601562,       10.3454589844,       -1.6632080078,       54.2297363281
1494036559.6346139908,       -0.7807617188,        0.1049804688,       -0.0551757812,        8.7738037109,       -2.6245117188,       54.2297363281
1494036559.6371641159,       -0.8427734375,        0.1049804688,       -0.0551757812,        8.7738037109,       -2.6245117188,       54.2297363281
1494036559.6397130489,       -0.8427734375,        0.1049804688,       -0.0551757812,        9.2010498047,       -1.8920898438,       52.8717041016
1494036559.6422700882,       -0.8427734375,        0.1049804688,       -0.0551757812,        9.2010498047,       -1.8920898438,       52.8717041016
1494036559.6448810101,       -0.8793945312,        0.1025390625,       -0.0898437500,       10.1470947266,       -0.3051757812,       51.7425537109
1494036559.6474449635,       -0.8793945312,        0.1025390625,       -0.0898437500,       10.1470947266,       -0.3051757812,       51.7425537109
1494036559.6499979496,       -0.8793945312,        0.1025390625,       -0.0898437500,        8.2855224609,        0.6713867188,       50.7354736328
1494036559.6525490284,       -0.8793945312,        0.1025390625,       -0.0898437500,        8.2855224609,        0.6713867188,       50.7354736328
1494036559.6551530361,       -0.9018554688,        0.1879882812,       -0.0849609375,        7.4768066406,        0.9155273438,       50.7507324219
1494036559.6577079296,       -0.9018554688,        0.1879882812,       -0.0849609375,        7.4768066406,        0.9155273438,       50.7507324219
1494036559.6602580547,       -0.9018554688,        0.1879882812,       -0.0849609375,        8.0108642578,        1.3427734375,       50.1251220703
1494036559.6628110409,       -0.9018554688,        0.1879882812,       -0.0849609375,        8.0108642578,        1.3427734375,       50.1251220703
1494036559.6654939651,       -0.9194335938,        0.2363281250,       -0.0341796875,        7.1105957031,        1.8920898438,       49.5910644531
1494036559.6680479050,       -0.9194335938,        0.2363281250,       -0.0341796875,        7.1105957031,        1.8920898438,       49.5910644531
1494036559.6705949306,       -0.9194335938,        0.2363281250,       -0.0341796875,        7.1105957031,        1.4648437500,       49.9725341797
1494036559.6731441021,       -0.9194335938,        0.2363281250,       -0.0341796875,        5.9509277344,        1.4648437500,       49.9725341797
1494036559.6758899689,       -0.9243164062,        0.2192382812,        0.0112304688,        5.9509277344,       -0.9002685547,       50.3082275391
1494036559.6785800457,       -0.9243164062,        0.2192382812,        0.0112304688,        5.3405761719,       -0.9002685547,       50.3082275391
1494036559.6812710762,       -0.9243164062,        0.2192382812,        0.0112304688,        5.3405761719,       -3.0517578125,       50.8422851562
1494036559.6840798855,       -0.9243164062,        0.2192382812,        0.0112304688,        6.1187744141,       -3.0517578125,       50.8422851562
1494036559.6867690086,       -0.9213867188,        0.2456054688,        0.0820312500,       10.0250244141,       -4.0893554688,       51.7425537109
1494036559.6894650459,       -0.9213867188,        0.2456054688,        0.0820312500,        8.0566406250,       -4.0893554688,       51.7425537109
1494036559.6921510696,       -0.9213867188,        0.2456054688,        0.0820312500,        8.0566406250,       -5.0811767578,       52.2308349609
1494036559.6948819160,       -0.9213867188,        0.2456054688,        0.0815429688,       11.1999511719,       -5.0811767578,       52.2308349609
1494036559.6975839138,       -0.8833007812,        0.2456054688,        0.0815429688,       11.1999511719,       -5.4016113281,       53.1158447266
1494036559.7002720833,       -0.8833007812,        0.2456054688,        0.0815429688,       15.8691406250,       -5.4016113281,       53.1158447266
1494036559.7029650211,       -0.8833007812,        0.2456054688,        0.0815429688,       15.8691406250,       -5.1422119141,       53.8787841797
1494036559.7056210041,       -0.8598632812,        0.2753906250,        0.0507812500,       20.6146240234,       -5.1422119141,       53.8787841797
1494036559.7081708908,       -0.8598632812,        0.2753906250,        0.0507812500,       20.6146240234,       -5.1422119141,       54.6569824219
1494036559.7107288837,       -0.8598632812,        0.2753906250,        0.0507812500,       25.2685546875,       -4.9896240234,       54.6569824219
1494036559.7132880688,       -0.8598632812,        0.2753906250,        0.0507812500,       25.2685546875,       -4.9896240234,       55.4656982422
1494036559.7159829140,       -0.8525390625,        0.2495117188,        0.0200195312,       29.8156738281,       -4.3640136719,       55.4656982422
1494036559.7186810970,       -0.8525390625,        0.2495117188,        0.0200195312,       29.8156738281,       -4.3640136719,       56.0607910156
1494036559.7215349674,       -0.8525390625,        0.2495117188,        0.0200195312,       33.0963134766,       -3.8299560547,       56.0607910156
1494036559.7246809006,       -0.8525390625,        0.2495117188,       -0.0053710938,       33.0963134766,       -3.3569335938,       56.7779541016
1494036559.7273800373,       -0.7836914062,        0.1918945312,       -0.0053710938,       34.0576171875,       -3.3569335938,       56.7779541016
1494036559.7300760746,       -0.7836914062,        0.1918945312,       -0.0053710938,       34.0576171875,       -3.3569335938,       57.9223632812
1494036559.7327730656,       -0.7836914062,        0.1918945312,       -0.0053710938,       33.5388183594,       -3.4179687500,       57.9223632812
1494036559.7354791164,       -0.6586914062,        0.1772460938,        0.0551757812,       33.5388183594,       -7.3242187500,       57.1441650391
1494036559.7381770611,       -0.6689453125,        0.1772460938,        0.0551757812,       33.2794189453,       -4.6539306641,       57.1441650391
1494036559.7408709526,       -0.6689453125,        0.1772460938,        0.0551757812,       33.2794189453,       -4.6539306641,       54.7637939453
1494036559.7435650826,       -0.6689453125,        0.1772460938,        0.0551757812,       34.8968505859,       -6.8969726562,       54.7637939453
1494036559.7461240292,       -0.5966796875,        0.2192382812,        0.1098632812,       34.8968505859,       -6.8969726562,       51.0101318359
1494036559.7486801147,       -0.5966796875,        0.2192382812,        0.1098632812,       40.1306152344,       -9.8419189453,       51.0101318359
1494036559.7512390614,       -0.5966796875,        0.2192382812,        0.1098632812,       40.1306152344,       -9.8419189453,       43.1976318359
1494036559.7538709641,       -0.5966796875,        0.2192382812,        0.1098632812,       47.2412109375,      -12.4969482422,       46.2036132812
1494036559.7564299107,       -0.5458984375,        0.0971679688,        0.1040039062,       47.2412109375,      -12.4969482422,       46.2036132812
1494036559.7590990067,       -0.5458984375,        0.0971679688,        0.1040039062,       54.1992187500,      -15.7623291016,       38.8031005859
1494036559.7616610527,       -0.5458984375,        0.0971679688,        0.1040039062,       54.1992187500,      -15.7623291016,       38.8031005859
1494036559.7642660141,       -0.5458984375,        0.0971679688,        0.1040039062,       59.2346191406,      -19.0429687500,       26.9622802734
1494036559.7668299675,       -0.4555664062,       -0.1381835938,        0.1010742188,       59.2346191406,      -19.0429687500,       26.9622802734
1494036559.7693850994,       -0.4555664062,       -0.1381835938,        0.1010742188,       63.5833740234,      -22.8729248047,       15.1214599609
1494036559.7719399929,       -0.4555664062,       -0.1381835938,        0.1010742188,       63.5833740234,      -22.8729248047,       15.1214599609
1494036559.7746100426,       -0.4555664062,       -0.1381835938,        0.1010742188,       65.2160644531,      -25.7110595703,        5.3710937500
1494036559.7771720886,       -0.4155273438,       -0.1455078125,        0.0371093750,       65.2160644531,      -25.7110595703,        5.3710937500
1494036559.7797360420,       -0.4155273438,       -0.1455078125,        0.0371093750,       65.3076171875,      -27.4810791016,       -3.6010742188
1494036559.7822890282,       -0.4155273438,       -0.1455078125,        0.0371093750,       65.3076171875,      -27.4810791016,       -3.6010742188
1494036559.7850170135,       -0.4155273438,       -0.1455078125,        0.0371093750,       63.5375976562,      -29.8919677734,      -13.5955810547
1494036559.7877199650,       -0.4199218750,       -0.2231445312,        0.0058593750,       63.5375976562,      -29.8919677734,      -13.5955810547
1494036559.7904250622,       -0.4199218750,       -0.2231445312,        0.0058593750,       57.8918457031,      -32.0892333984,      -24.4293212891
1494036559.7931199074,       -0.4199218750,       -0.2231445312,        0.0058593750,       57.8918457031,      -32.0892333984,      -24.4293212891
1494036559.7956900597,       -0.4199218750,       -0.3481445312,       -0.0009765625,       53.9855957031,      -33.9508056641,      -35.7513427734
1494036559.7982530594,       -0.4428710938,       -0.3125000000,       -0.0009765625,       50.8880615234,      -33.9508056641,      -35.7513427734
1494036559.8008170128,       -0.4428710938,       -0.3125000000,       -0.0009765625,       50.8880615234,      -33.9508056641,      -46.0510253906
1494036559.8034439087,       -0.4428710938,       -0.3125000000,       -0.0009765625,       43.9758300781,      -35.0036621094,      -46.0510253906
1494036559.8061449528,       -0.4428710938,       -0.2675781250,        0.0078125000,       43.9758300781,      -38.9099121094,      -54.9774169922
1494036559.8088490963,       -0.4438476562,       -0.2675781250,        0.0078125000,       36.8041992188,      -36.1328125000,      -54.9774169922
1494036559.8115460873,       -0.4438476562,       -0.2675781250,        0.0078125000,       36.8041992188,      -36.1328125000,      -63.1561279297
1494036559.8142349720,       -0.4438476562,       -0.2675781250,        0.0078125000,       30.2276611328,      -37.1398925781,      -63.1561279297
1494036559.8168048859,       -0.4575195312,       -0.2080078125,        0.0009765625,       30.2276611328,      -37.1398925781,      -70.9686279297
1494036559.8193581104,       -0.4575195312,       -0.2080078125,        0.0009765625,       24.3988037109,      -37.9486083984,      -70.6939697266
1494036559.8219220638,       -0.4575195312,       -0.2080078125,        0.0009765625,       24.3988037109,      -37.9486083984,      -70.6939697266
1494036559.8245840073,       -0.4575195312,       -0.2080078125,        0.0009765625,       19.5159912109,      -39.2761230469,      -77.2857666016
1494036559.8271420002,       -0.5009765625,       -0.1562500000,       -0.0053710938,       19.5159912109,      -39.2761230469,      -77.2857666016
1494036559.8298149109,       -0.5009765625,       -0.1562500000,       -0.0053710938,       16.1132812500,      -40.1306152344,      -83.1756591797
1494036559.8323740959,       -0.5009765625,       -0.1562500000,       -0.0053710938,       16.1132812500,      -40.1306152344,      -83.1756591797
1494036559.8350000381,       -0.5009765625,       -0.1562500000,       -0.0053710938,       14.1601562500,      -40.4663085938,      -89.3554687500
1494036559.8375658989,       -0.5615234375,       -0.0815429688,       -0.0546875000,       14.1601562500,      -40.4663085938,      -89.3554687500
1494036559.8403129578,       -0.5615234375,       -0.0815429688,       -0.0546875000,       13.4887695312,      -40.1000976562,      -94.6197509766
1494036559.8428819180,       -0.5615234375,       -0.0815429688,       -0.0546875000,       13.4887695312,      -40.1000976562,      -94.6197509766
1494036559.8457291126,       -0.5615234375,       -0.0815429688,       -0.0727539062,       14.2822265625,      -39.0930175781,      -99.5025634766
1494036559.8484311104,       -0.6181640625,       -0.0415039062,       -0.0727539062,       14.2822265625,      -39.0930175781,      -99.5025634766
1494036559.8511269093,       -0.6181640625,       -0.0415039062,       -0.0727539062,       14.4195556641,      -37.7349853516,     -104.2938232422
1494036559.8538711071,       -0.6181640625,       -0.0415039062,       -0.0727539062,       14.4195556641,      -37.7349853516,     -104.2938232422
1494036559.8565690517,       -0.7431640625,       -0.0112304688,       -0.0893554688,       14.5416259766,      -35.7666015625,     -108.2611083984
1494036559.8592679501,       -0.6699218750,       -0.0112304688,       -0.0893554688,       14.5416259766,      -35.7666015625,     -108.2611083984
1494036559.8619699478,       -0.6699218750,       -0.0112304688,       -0.0893554688,       14.0686035156,      -33.9965820312,     -111.6027832031
1494036559.8646810055,       -0.6699218750,       -0.0112304688,       -0.0893554688,       14.0686035156,      -33.9965820312,     -111.6027832031
1494036559.8673789501,       -0.6977539062,        0.0502929688,       -0.1127929688,       13.5955810547,      -32.2875976562,     -114.0899658203
1494036559.8700768948,       -0.6977539062,        0.0502929688,       -0.1127929688,       13.5955810547,      -32.2875976562,     -114.0899658203
1494036559.8727779388,       -0.6977539062,        0.0502929688,       -0.1127929688,       13.1683349609,      -31.3873291016,     -116.0125732422
1494036559.8753650188,       -0.6977539062,        0.0502929688,       -0.1127929688,       13.1683349609,      -31.3873291016,     -116.0125732422
1494036559.8779249191,       -0.7114257812,        0.1044921875,       -0.0952148438,       14.0991210938,      -30.9906005859,     -117.6757812500
1494036559.8804829121,       -0.7114257812,        0.1044921875,       -0.0952148438,       14.0991210938,      -30.9906005859,     -117.6757812500
1494036559.8830399513,       -0.7114257812,        0.1044921875,       -0.0952148438,       15.7165527344,      -30.9143066406,     -119.4610595703
1494036559.8856079578,       -0.7114257812,        0.1044921875,       -0.0952148438,       15.7165527344,      -30.9143066406,     -119.4610595703
1494036559.8881659508,       -0.7285156250,        0.1210937500,       -0.0864257812,       15.7165527344,      -31.0058593750,     -122.0397949219
1494036559.8907189369,       -0.7285156250,        0.1210937500,       -0.0864257812,       18.1884765625,      -31.0058593750,     -122.0397949219
1494036559.8933498859,       -0.7285156250,        0.1210937500,       -0.0864257812,       18.1884765625,      -31.0058593750,     -123.8250732422
1494036559.8959259987,       -0.7285156250,        0.1210937500,       -0.0864257812,       18.9514160156,      -30.9143066406,     -123.8250732422
1494036559.8984889984,       -0.7563476562,        0.1342773438,       -0.0996093750,       18.9514160156,      -30.9143066406,     -125.1373291016
1494036559.9010510445,       -0.7563476562,        0.1342773438,       -0.0996093750,       18.8903808594,      -30.4718017578,     -125.1373291016
1494036559.9038939476,       -0.7563476562,        0.1342773438,       -0.0996093750,       18.8903808594,      -30.4718017578,     -126.4038085938
1494036559.9066019058,       -0.7563476562,        0.1342773438,       -0.1210937500,       17.7459716797,      -29.7698974609,     -126.4038085938
1494036559.9093070030,       -0.7783203125,        0.1430664062,       -0.1210937500,       17.7459716797,      -29.7698974609,     -127.2277832031
1494036559.9120090008,       -0.7783203125,        0.1430664062,       -0.1210937500,       15.1214599609,      -28.3508300781,     -127.2277832031
1494036559.9147260189,       -0.7783203125,        0.1430664062,       -0.1210937500,       15.1214599609,      -28.3508300781,     -127.1972656250
1494036559.9174249172,       -0.7802734375,        0.1625976562,       -0.1367187500,       11.6119384766,      -26.6113281250,     -127.1972656250
1494036559.9201281071,       -0.7802734375,        0.1625976562,       -0.1367187500,       11.6119384766,      -26.6113281250,     -127.1972656250
1494036559.9228219986,       -0.7802734375,        0.1625976562,       -0.1367187500,        7.6599121094,      -24.3988037109,     -126.2969970703
1494036559.9255290031,       -0.7802734375,        0.1625976562,       -0.1367187500,        7.6599121094,      -24.3988037109,     -126.2969970703
1494036559.9282259941,       -0.7910156250,        0.1801757812,       -0.1362304688,        2.7160644531,      -21.8200683594,     -125.5950927734
1494036559.9309210777,       -0.7910156250,        0.1801757812,       -0.1362304688,        2.7160644531,      -21.8200683594,     -121.6888427734
1494036559.9336440563,       -0.7910156250,        0.1801757812,       -0.1362304688,       -2.0904541016,      -18.2647705078,     -124.8016357422
1494036559.9362030029,       -0.7910156250,        0.1801757812,       -0.1362304688,       -2.0904541016,      -18.2647705078,     -124.8016357422
1494036559.9387578964,       -0.7910156250,        0.1992187500,       -0.1196289062,       -5.9051513672,      -16.0064697266,     -123.1842041016
1494036559.9413170815,       -0.7910156250,        0.1992187500,       -0.1196289062,       -5.9051513672,      -16.0064697266,     -123.1842041016
1494036559.9439299107,       -0.7910156250,        0.1992187500,       -0.1196289062,      -10.0555419922,      -13.3361816406,     -121.5667724609
1494036559.9466218948,       -0.7910156250,        0.1992187500,       -0.1196289062,      -10.0555419922,      -13.3361816406,     -121.5667724609
1494036559.9493210316,       -0.7802734375,        0.2167968750,       -0.0961914062,      -14.6636962891,      -10.0097656250,     -119.5678710938
1494036559.9520139694,       -0.7802734375,        0.2167968750,       -0.0961914062,      -14.6636962891,      -10.0097656250,     -119.5678710938
1494036559.9547200203,       -0.7802734375,        0.2167968750,       -0.0961914062,      -18.5546875000,       -6.4086914062,     -116.7907714844
1494036559.9574229717,       -0.7802734375,        0.2338867188,       -0.0888671875,      -18.5546875000,       -6.4086914062,     -116.7907714844
1494036559.9602479935,       -0.7573242188,        0.2338867188,       -0.0888671875,      -21.8048095703,       -4.3182373047,     -113.6474609375
1494036559.9633309841,       -0.7573242188,        0.2338867188,       -0.0888671875,      -21.8048095703,       -4.3182373047,     -113.6474609375
1494036559.9660360813,       -0.7573242188,        0.2338867188,       -0.0888671875,      -25.4669189453,       -2.6855468750,     -110.1684570312
1494036559.9687330723,       -0.7329101562,        0.2553710938,       -0.0717773438,      -25.4669189453,       -2.6855468750,     -110.1684570312
1494036559.9714329243,       -0.7329101562,        0.2553710938,       -0.0717773438,      -28.9459228516,       -1.4190673828,     -106.1248779297
1494036559.9740989208,       -0.7329101562,        0.2553710938,       -0.0717773438,      -28.9459228516,       -1.4190673828,     -106.1248779297
1494036559.9766550064,       -0.7329101562,        0.2553710938,       -0.0717773438,      -31.7840576172,        0.1525878906,     -102.2491455078
1494036559.9793169498,       -0.7250976562,        0.2548828125,       -0.0673828125,      -31.7840576172,        0.1525878906,     -102.2491455078
1494036559.9818758965,       -0.7250976562,        0.2548828125,       -0.0673828125,      -35.1562500000,        2.1362304688,      -97.6104736328
1494036559.9845190048,       -0.7250976562,        0.2548828125,       -0.0673828125,      -35.1562500000,        2.1362304688,      -97.6104736328
1494036559.9872100353,       -0.7250976562,        0.2548828125,       -0.0522460938,      -39.0167236328,        3.0822753906,      -93.1091308594
1494036559.9898989201,       -0.6889648438,        0.2407226562,       -0.0522460938,      -39.0167236328,        3.0822753906,      -93.1091308594
1494036559.9926009178,       -0.6889648438,        0.2407226562,       -0.0522460938,      -43.1365966797,        4.7760009766,      -87.7685546875
1494036559.9951999187,       -0.6889648438,        0.2407226562,       -0.0522460938,      -43.1365966797,        4.7760009766,      -87.7685546875
1494036559.9977550507,       -0.6889648438,        0.2299804688,       -0.0185546875,      -47.2564697266,        6.2103271484,      -82.6568603516
1494036560.0003089905,       -0.6547851562,        0.2299804688,       -0.0185546875,      -47.2564697266,        6.2103271484,      -82.6568603516
1494036560.0028591156,       -0.6547851562,        0.2299804688,       -0.0185546875,      -50.9185791016,        6.9427490234,      -77.0721435547
1494036560.0054368973,       -0.6547851562,        0.2299804688,       -0.0185546875,      -50.9185791016,        6.9427490234,      -77.0721435547
1494036560.0079879761,       -0.6547851562,        0.2495117188,       -0.0185546875,      -50.9185791016,        7.3852539062,      -71.9299316406
1494036560.0105440617,       -0.6293945312,        0.2495117188,       -0.0185546875,      -54.0466308594,        7.3852539062,      -71.9299316406
1494036560.0130999088,       -0.6293945312,        0.2495117188,       -0.0185546875,      -54.0466308594,       11.2915039062,      -66.5740966797
1494036560.0157759190,       -0.6293945312,        0.2495117188,       -0.0185546875,      -55.7708740234,        7.8277587891,      -66.5740966797
1494036560.0183360577,       -0.6220703125,        0.2553710938,       -0.0229492188,      -55.7708740234,        7.8277587891,      -61.1267089844
1494036560.0208909512,       -0.6220703125,        0.2553710938,       -0.0229492188,      -56.7779541016,        8.2702636719,      -61.1267089844
1494036560.0235860348,       -0.6220703125,        0.2553710938,       -0.0229492188,      -56.7779541016,        8.2702636719,      -57.2204589844
1494036560.0261430740,       -0.6220703125,        0.2553710938,       -0.0229492188,      -57.6629638672,        8.2550048828,      -56.2744140625
1494036560.0287020206,       -0.6098632812,        0.2670898438,       -0.0263671875,      -57.6629638672,        8.2550048828,      -56.2744140625
1494036560.0312569141,       -0.6098632812,        0.2670898438,       -0.0263671875,      -58.5937500000,        7.9040527344,      -51.9104003906
1494036560.0338890553,       -0.6098632812,        0.2670898438,       -0.0263671875,      -58.5937500000,        7.9040527344,      -51.9104003906
1494036560.0365879536,       -0.6098632812,        0.2670898438,       -0.0263671875,      -58.5632324219,        8.2244873047,      -47.0428466797
1494036560.0392920971,       -0.6020507812,        0.2778320312,       -0.0107421875,      -58.5632324219,        8.2244873047,      -47.0428466797
1494036560.0419900417,       -0.6020507812,        0.2778320312,       -0.0107421875,      -57.3883056641,        7.9498291016,      -42.0837402344
1494036560.0446949005,       -0.6020507812,        0.2778320312,       -0.0107421875,      -57.3883056641,        7.9498291016,      -42.0837402344
1494036560.0473849773,       -0.6020507812,        0.2778320312,       -0.0107421875,      -55.0842285156,        7.4157714844,      -37.5976562500
1494036560.0501990318,       -0.5747070312,        0.2958984375,       -0.0068359375,      -55.0842285156,        7.4157714844,      -37.5976562500
1494036560.0528988838,       -0.5747070312,        0.2958984375,       -0.0068359375,      -52.7801513672,        6.9122314453,      -33.3557128906
1494036560.0554800034,       -0.5747070312,        0.2958984375,       -0.0068359375,      -52.7801513672,        6.9122314453,      -33.3557128906
1494036560.0580389500,       -0.5747070312,        0.2958984375,        0.0151367188,      -50.0183105469,        5.9967041016,      -29.5410156250
1494036560.0605990887,       -0.5600585938,        0.3178710938,        0.0151367188,      -50.0183105469,        5.9967041016,      -29.5410156250
1494036560.0632109642,       -0.5600585938,        0.3178710938,        0.0151367188,      -45.4101562500,        5.0048828125,      -25.5126953125
1494036560.0659060478,       -0.5600585938,        0.3178710938,        0.0151367188,      -45.4101562500,        5.0048828125,      -25.5126953125
1494036560.0686049461,       -0.5600585938,        0.3300781250,        0.0180664062,      -39.9169921875,        3.3111572266,      -21.3470458984
1494036560.0712978840,       -0.5629882812,        0.3300781250,        0.0180664062,      -39.9169921875,        3.3111572266,      -21.3470458984
1494036560.0739610195,       -0.5629882812,        0.3300781250,        0.0180664062,      -34.2559814453,        2.2888183594,      -17.1813964844
1494036560.0765190125,       -0.5629882812,        0.3300781250,        0.0180664062,      -34.2559814453,        2.2888183594,      -17.1813964844
1494036560.0790729523,       -0.5581054688,        0.3232421875,        0.0322265625,      -29.3121337891,        1.0070800781,      -12.8784179688
1494036560.0817480087,       -0.5581054688,        0.3232421875,        0.0322265625,      -29.3121337891,        1.0070800781,      -12.8784179688
1494036560.0847110748,       -0.5581054688,        0.3232421875,        0.0322265625,      -23.9257812500,       -0.6713867188,       -8.8043212891
1494036560.0874071121,       -0.5581054688,        0.3232421875,        0.0322265625,      -23.9257812500,       -0.6713867188,       -8.8043212891
1494036560.0901091099,       -0.5576171875,        0.3173828125,        0.0463867188,      -18.1121826172,       -2.3803710938,       -4.7760009766
1494036560.0928010941,       -0.5576171875,        0.3173828125,        0.0463867188,      -18.1121826172,       -2.3803710938,       -4.7760009766
1494036560.0955159664,       -0.5576171875,        0.3173828125,        0.0463867188,      -12.2680664062,       -3.9215087891,       -1.0986328125
1494036560.0982089043,       -0.5576171875,        0.3173828125,        0.0268554688,      -12.2680664062,       -3.9215087891,       -1.0986328125
1494036560.1008980274,       -0.5664062500,        0.2998046875,        0.0268554688,       -5.5694580078,       -5.5236816406,        2.3498535156
1494036560.1035890579,       -0.5664062500,        0.2998046875,        0.0268554688,       -5.5694580078,       -5.5236816406,        2.3498535156
1494036560.1062710285,       -0.5664062500,        0.2998046875,        0.0268554688,        0.5187988281,       -6.5460205078,        5.8288574219
1494036560.1089670658,       -0.5664062500,        0.2915039062,        0.0039062500,        0.5187988281,       -6.5460205078,        5.8288574219
1494036560.1116580963,       -0.5844726562,        0.2915039062,        0.0039062500,        6.6833496094,       -7.9803466797,        8.9416503906
1494036560.1143090725,       -0.5844726562,        0.2915039062,        0.0039062500,        6.6833496094,       -7.9803466797,        8.9416503906
1494036560.1168539524,       -0.5844726562,        0.2915039062,        0.0039062500,       14.4958496094,       -8.4533691406,       11.3983154297
1494036560.1194109917,       -0.5966796875,        0.2792968750,       -0.0214843750,       13.5192871094,       -8.4533691406,       11.3983154297
1494036560.1219699383,       -0.5966796875,        0.2792968750,       -0.0214843750,       13.5192871094,       -8.4533691406,       13.5803222656
1494036560.1246600151,       -0.5966796875,        0.2792968750,       -0.0214843750,       19.8211669922,       -9.5214843750,       13.5803222656
1494036560.1272170544,       -0.5966796875,        0.2792968750,       -0.0214843750,       19.8211669922,       -9.5214843750,       15.2130126953
1494036560.1297678947,       -0.6103515625,        0.2680664062,       -0.0327148438,       25.2380371094,      -10.5285644531,       15.2130126953
1494036560.1323330402,       -0.6103515625,        0.2680664062,       -0.0327148438,       25.2380371094,      -10.5285644531,       19.1192626953
1494036560.1349980831,       -0.6103515625,        0.2680664062,       -0.0327148438,       30.1666259766,      -10.8947753906,       16.9372558594
1494036560.1375598907,       -0.6103515625,        0.2680664062,       -0.0327148438,       30.1666259766,      -10.8947753906,       16.9372558594
1494036560.1401190758,       -0.6147460938,        0.2626953125,       -0.0273437500,       34.4238281250,      -11.3830566406,       18.0511474609
1494036560.1426839828,       -0.6147460938,        0.2626953125,       -0.0273437500,       34.4238281250,      -11.3830566406,       18.0511474609
1494036560.1455070972,       -0.6147460938,        0.2626953125,       -0.0273437500,       37.9180908203,      -11.9934082031,       18.6157226562
1494036560.1482079029,       -0.6147460938,        0.2626953125,       -0.0273437500,       37.9180908203,      -11.9934082031,       18.6157226562
1494036560.1509079933,       -0.6367187500,        0.2812500000,       -0.0239257812,       42.1752929688,      -12.6495361328,       18.9666748047
1494036560.1536118984,       -0.6367187500,        0.2812500000,       -0.0239257812,       42.1752929688,      -12.6495361328,       18.9666748047
1494036560.1563119888,       -0.6367187500,        0.2812500000,       -0.0239257812,       45.2575683594,      -12.9547119141,       19.9432373047
1494036560.1590149403,       -0.6367187500,        0.2812500000,       -0.0224609375,       45.2575683594,      -12.9547119141,       19.9432373047
1494036560.1617159843,       -0.6376953125,        0.3056640625,       -0.0224609375,       47.9431152344,      -14.1906738281,       20.7519531250
1494036560.1644780636,       -0.6376953125,        0.3056640625,       -0.0224609375,       47.9431152344,      -14.1906738281,       20.7519531250
1494036560.1671819687,       -0.6376953125,        0.3056640625,       -0.0224609375,       50.5523681641,      -15.0604248047,       21.6827392578
1494036560.1698720455,       -0.6660156250,        0.3144531250,       -0.0229492188,       50.5523681641,      -15.0604248047,       21.6827392578
1494036560.1725709438,       -0.6660156250,        0.3144531250,       -0.0229492188,       52.5665283203,      -15.5639648438,       23.0407714844
1494036560.1751770973,       -0.6660156250,        0.3144531250,       -0.0229492188,       52.5665283203,      -15.5639648438,       23.0407714844
1494036560.1777400970,       -0.6660156250,        0.3144531250,       -0.0229492188,       53.1768798828,      -15.7318115234,       24.2156982422
1494036560.1803030968,       -0.6889648438,        0.2983398438,       -0.0351562500,       53.1768798828,      -15.7318115234,       24.2156982422
1494036560.1828620434,       -0.6889648438,        0.2983398438,       -0.0351562500,       52.4139404297,      -15.6555175781,       26.2298583984
1494036560.1855370998,       -0.6889648438,        0.2983398438,       -0.0351562500,       52.4139404297,      -15.6555175781,       26.2298583984
1494036560.1881010532,       -0.6889648438,        0.2983398438,       -0.0351562500,       50.2319335938,      -15.5639648438,       28.3050537109
1494036560.1906580925,       -0.6879882812,        0.2524414062,       -0.0751953125,       50.2319335938,      -15.5639648438,       28.3050537109
1494036560.1932270527,       -0.6879882812,        0.2524414062,       -0.0751953125,       45.3033447266,      -14.9993896484,       31.0058593750
1494036560.1959159374,       -0.6879882812,        0.2524414062,       -0.0751953125,       45.3033447266,      -14.9993896484,       31.0058593750
1494036560.1987149715,       -0.6879882812,        0.2524414062,       -0.0751953125,       38.2843017578,      -13.8092041016,       32.9895019531
1494036560.2014629841,       -0.6777343750,        0.1977539062,       -0.0917968750,       38.2843017578,      -13.8092041016,       32.9895019531
1494036560.2044899464,       -0.6777343750,        0.1977539062,       -0.0917968750,       30.1666259766,      -12.1154785156,       34.1033935547
1494036560.2072041035,       -0.6777343750,        0.1977539062,       -0.0917968750,       30.1666259766,      -12.1154785156,       34.1033935547
1494036560.2098999023,       -0.6777343750,        0.1757812500,       -0.1044921875,       21.2402343750,      -10.9100341797,       35.4309082031
1494036560.2125968933,       -0.6684570312,        0.1757812500,       -0.1044921875,       21.2402343750,      -10.9100341797,       35.4309082031
1494036560.2153139114,       -0.6684570312,        0.1757812500,       -0.1044921875,       12.7258300781,       -8.8806152344,       38.0401611328
1494036560.2180109024,       -0.6684570312,        0.1757812500,       -0.1044921875,       12.7258300781,       -8.8806152344,       38.0401611328
1494036560.2207050323,       -0.6376953125,        0.1997070312,       -0.1611328125,        4.5776367188,       -6.7138671875,       41.4886474609
1494036560.2234439850,       -0.6376953125,        0.1997070312,       -0.1611328125,        4.5776367188,       -6.7138671875,       41.4886474609
1494036560.2261309624,       -0.6376953125,        0.1997070312,       -0.1611328125,       -3.0364990234,       -4.5776367188,       45.3796386719
1494036560.2288239002,       -0.6376953125,        0.1997070312,       -0.1611328125,       -3.0364990234,       -4.5776367188,       45.3796386719
1494036560.2315208912,       -0.6318359375,        0.2211914062,       -0.2270507812,      -10.4522705078,       -2.2125244141,       50.2929687500
1494036560.2342190742,       -0.6318359375,        0.2211914062,       -0.2270507812,      -10.4522705078,       -2.2125244141,       50.2929687500
1494036560.2367808819,       -0.6318359375,        0.2211914062,       -0.2270507812,       -9.4909667969,        2.2125244141,       59.6466064453
1494036560.2393360138,       -0.6318359375,        0.2211914062,       -0.0742187500,       -9.4909667969,        2.2125244141,       59.6466064453
1494036560.2418870926,       -0.7465820312,        1.2802734375,       -0.0742187500,       -9.4909667969,        4.9438476562,       85.2050781250
1494036560.2444489002,       -0.7465820312,        1.2802734375,       -0.0742187500,      -18.0053710938,        4.9438476562,       85.2050781250
1494036560.2470059395,       -0.7465820312,        1.2802734375,       -0.0742187500,      -18.0053710938,        4.9438476562,      119.0338134766
1494036560.2495629787,       -0.7465820312,        1.2802734375,        0.1606445312,      -68.4356689453,        7.9803466797,      119.0338134766
1494036560.2521200180,       -0.5937500000,        1.1782226562,        0.1606445312,      -68.4356689453,        7.9803466797,      119.0338134766
1494036560.2548129559,       -0.5937500000,        1.1782226562,        0.1606445312,      -89.8742675781,       14.2517089844,      118.0267333984
1494036560.2573781013,       -0.5937500000,        1.1782226562,        0.1606445312,      -89.8742675781,       14.2517089844,      118.0267333984
1494036560.2599370480,       -0.5937500000,        0.7080078125,       -0.5332031250,      -62.7593994141,       19.5159912109,      114.1510009766
1494036560.2624950409,       -0.8842773438,        0.7080078125,       -0.5332031250,      -62.7593994141,       19.5159912109,      114.1510009766
1494036560.2652859688,       -0.8842773438,        0.7080078125,       -0.5332031250,      -65.3533935547,       20.7214355469,      134.2926025391
1494036560.2679901123,       -0.8842773438,        0.7080078125,       -0.5332031250,      -65.3533935547,       20.7214355469,      134.2926025391
1494036560.2707979679,       -1.1333007812,       -0.0795898438,       -0.1201171875,      -78.4454345703,       15.6860351562,      150.2532958984
1494036560.2735071182,       -1.1333007812,       -0.0795898438,       -0.1201171875,      -78.4454345703,       15.6860351562,      150.2532958984
1494036560.2760689259,       -1.1333007812,       -0.0795898438,       -0.1201171875,      -58.5021972656,       13.4887695312,      139.4958496094
1494036560.2786281109,       -1.1333007812,       -0.0795898438,       -0.1201171875,      -58.5021972656,       13.4887695312,      139.4958496094
1494036560.2811849117,       -1.5097656250,       -1.1289062500,       -0.1889648438,      -45.2423095703,        6.3018798828,      119.2321777344
1494036560.2837738991,       -1.5097656250,       -1.1289062500,       -0.1889648438,      -45.2423095703,        6.3018798828,      119.2321777344
1494036560.2864730358,       -1.5097656250,       -1.1289062500,       -0.1889648438,      -47.8820800781,        4.1198730469,      101.0589599609
1494036560.2891690731,       -1.5097656250,       -1.1289062500,       -0.1889648438,      -47.8820800781,        4.1198730469,      101.0589599609
1494036560.2918701172,       -1.4003906250,       -1.1030273438,       -0.0996093750,      -46.7681884766,        8.1481933594,       92.0715332031
1494036560.2945199013,       -1.4003906250,       -1.1030273438,       -0.0996093750,      -46.7681884766,        8.1481933594,       92.0715332031
1494036560.2970681190,       -1.4003906250,       -1.1030273438,       -0.0996093750,      -50.8880615234,        9.5062255859,       94.4213867188
1494036560.2996270657,       -1.4003906250,       -1.1030273438,       -0.0996093750,      -50.8880615234,        9.5062255859,       94.4213867188
1494036560.3021810055,       -1.1357421875,        0.1337890625,        0.4370117188,      -66.7114257812,        2.9907226562,      101.4404296875
1494036560.3048899174,       -1.1357421875,        0.1337890625,        0.4370117188,      -66.7114257812,        2.9907226562,      101.4404296875
1494036560.3075900078,       -1.1357421875,        0.1337890625,        0.4370117188,      -79.9407958984,      -18.0511474609,      109.4512939453
1494036560.3102838993,       -1.1357421875,        0.0087890625,        0.8461914062,      -79.9407958984,      -18.0511474609,      109.4512939453
1494036560.3129899502,       -1.7685546875,        0.0361328125,        0.8461914062,      -63.0950927734,      -30.8380126953,      111.7095947266
1494036560.3156979084,       -1.7685546875,        0.0361328125,        0.8461914062,      -63.0950927734,      -30.8380126953,      111.7095947266
1494036560.3183970451,       -1.7685546875,        0.0361328125,        0.8461914062,      -25.9246826172,      -28.1066894531,      115.5853271484
1494036560.3212718964,       -2.5766601562,       -0.0996093750,       -0.0156250000,      -25.9246826172,      -28.1066894531,      115.5853271484
1494036560.3243570328,       -2.5766601562,       -0.0996093750,       -0.0156250000,        0.2746582031,      -21.7742919922,      118.3624267578
1494036560.3269190788,       -2.5766601562,       -0.0996093750,       -0.0156250000,        0.2746582031,      -21.7742919922,      118.3624267578
1494036560.3294749260,       -2.5766601562,       -0.0996093750,       -0.0156250000,       19.1192626953,      -14.1448974609,      115.7379150391
1494036560.3320291042,       -1.8315429688,        0.0097656250,       -0.5439453125,       19.1192626953,      -14.1448974609,      115.7379150391
1494036560.3347170353,       -1.8315429688,        0.0097656250,       -0.5439453125,        2.8076171875,      -14.9841308594,      115.5090332031
1494036560.3374168873,       -1.8315429688,        0.0097656250,       -0.5439453125,        2.8076171875,      -14.9841308594,      115.5090332031
1494036560.3401100636,       -1.8315429688,        0.0097656250,       -0.6689453125,      -24.5361328125,      -13.8244628906,      113.2965087891
1494036560.3428139687,       -0.8476562500,        0.1108398438,       -0.6450195312,      -26.1993408203,      -13.8244628906,      113.2965087891
1494036560.3456330299,       -0.8476562500,        0.1108398438,       -0.6450195312,      -57.2509765625,      -12.2222900391,      113.4796142578
1494036560.3483419418,       -0.8476562500,        0.1108398438,       -0.6450195312,      -57.2509765625,      -12.2222900391,      113.4796142578
1494036560.3510460854,       -0.4726562500,        0.1933593750,       -0.4355468750,      -81.4971923828,      -11.7645263672,      114.3188476562
1494036560.3537409306,       -0.3881835938,        0.1933593750,       -0.4355468750,      -81.4971923828,      -11.7645263672,      114.3188476562
1494036560.3563020229,       -0.3881835938,        0.1933593750,       -0.4355468750,      -81.4971923828,      -10.8337402344,      111.4959716797
1494036560.3588600159,       -0.3881835938,        0.1933593750,       -0.4355468750,      -93.9025878906,      -10.8337402344,      111.4959716797
1494036560.3614211082,       -0.0380859375,        0.5615234375,        0.1865234375,      -93.9025878906,      -14.7399902344,      106.1553955078
1494036560.3640840054,       -0.0380859375,        0.5615234375,        0.1865234375,      -92.7581787109,      -12.3596191406,      106.1553955078
1494036560.3666450977,       -0.0380859375,        0.5615234375,        0.1865234375,      -92.7581787109,      -12.3596191406,       97.4121093750
1494036560.3692090511,       -0.0380859375,        0.5615234375,        0.1865234375,      -77.5604248047,      -17.6696777344,       97.4121093750
1494036560.3717670441,        0.0341796875,        0.8896484375,        0.5048828125,      -77.5604248047,      -17.6696777344,       85.6933593750
1494036560.3744189739,        0.0341796875,        0.8896484375,        0.5048828125,      -50.2929687500,      -24.1088867188,       85.1440429688
1494036560.3769879341,        0.0341796875,        0.8896484375,        0.5048828125,      -50.2929687500,      -24.1088867188,       85.1440429688
1494036560.3795499802,        0.0341796875,        0.8896484375,        0.5048828125,      -19.2718505859,      -27.6947021484,       70.5413818359
1494036560.3821110725,       -0.2714843750,        0.7348632812,        0.4614257812,      -19.2718505859,      -27.6947021484,       70.5413818359
1494036560.3848528862,       -0.2714843750,        0.7348632812,        0.4614257812,        2.5024414062,      -28.5797119141,       55.7098388672
1494036560.3875460625,       -0.2714843750,        0.7348632812,        0.4614257812,        2.5024414062,      -28.5797119141,       55.7098388672
1494036560.3902430534,       -0.2714843750,        0.7348632812,        0.4614257812,       10.7879638672,      -25.4821777344,       42.7093505859
1494036560.3929378986,       -0.6181640625,        0.4887695312,        0.3305664062,       10.7879638672,      -25.4821777344,       42.7093505859
1494036560.3956849575,       -0.6181640625,        0.4887695312,        0.3305664062,       11.7340087891,      -19.5312500000,       33.2946777344
1494036560.3983910084,       -0.6181640625,        0.4887695312,        0.3305664062,       11.7340087891,      -19.5312500000,       33.2946777344
1494036560.4010939598,       -0.6181640625,        0.4887695312,        0.1298828125,        9.2620849609,      -15.5639648438,       27.5115966797
1494036560.4037930965,       -0.8154296875,        0.4057617188,        0.1298828125,        9.2620849609,      -15.5639648438,       27.5115966797
1494036560.4064950943,       -0.8154296875,        0.4057617188,        0.1298828125,        6.1645507812,      -12.6342773438,       23.6053466797
1494036560.4091880322,       -0.8154296875,        0.4057617188,        0.1298828125,        6.1645507812,      -12.6342773438,       23.6053466797
1494036560.4118869305,       -0.9272460938,        0.3632812500,       -0.0351562500,        1.2512207031,       -9.8724365234,       21.1791992188
1494036560.4145109653,       -0.9272460938,        0.3632812500,       -0.0351562500,        1.2512207031,       -9.8724365234,       21.1791992188
1494036560.4170610905,       -0.9272460938,        0.3632812500,       -0.0351562500,       -4.1351318359,       -6.9580078125,       19.1345214844
1494036560.4197289944,       -0.9272460938,        0.3632812500,       -0.0351562500,       -4.1351318359,       -6.9580078125,       19.1345214844
1494036560.4222760201,       -0.9238281250,        0.3056640625,       -0.1088867188,      -11.0931396484,       -4.7912597656,       17.8375244141
1494036560.4249360561,       -0.9238281250,        0.3056640625,       -0.1088867188,      -11.0931396484,       -4.7912597656,       17.8375244141
1494036560.4274959564,       -0.9238281250,        0.3056640625,       -0.1088867188,      -18.2189941406,       -2.7618408203,       17.3797607422
1494036560.4300549030,       -0.9238281250,        0.3056640625,       -0.1088867188,      -18.2189941406,       -2.7618408203,       17.3797607422
1494036560.4326169491,       -0.8481445312,        0.3247070312,       -0.0581054688,      -26.0314941406,       -1.3732910156,       16.6778564453
1494036560.4353380203,       -0.8481445312,        0.3247070312,       -0.0581054688,      -24.5208740234,       -1.3732910156,       16.6778564453
1494036560.4380400181,       -0.8481445312,        0.3247070312,       -0.0581054688,      -24.5208740234,       -0.7171630859,       15.5334472656
1494036560.4407939911,       -0.8481445312,        0.3247070312,       -0.0581054688,      -26.8249511719,       -0.7171630859,       15.5334472656
1494036560.4438679218,       -0.7338867188,        0.3593750000,       -0.0087890625,      -25.7110595703,       -0.1373291016,       13.8397216797
1494036560.4465789795,       -0.7338867188,        0.3593750000,       -0.0087890625,      -25.7110595703,       -0.1373291016,       13.8397216797
1494036560.4492759705,       -0.7338867188,        0.3593750000,       -0.0087890625,      -22.0336914062,       -0.2746582031,       11.7645263672
1494036560.4519779682,       -0.7338867188,        0.3876953125,        0.0297851562,      -22.0336914062,       -0.2746582031,       11.7645263672
1494036560.4546918869,       -0.6635742188,        0.3876953125,        0.0297851562,      -17.0288085938,       -0.5645751953,        9.6130371094
1494036560.4573869705,       -0.6635742188,        0.3876953125,        0.0297851562,      -17.0288085938,       -0.5645751953,        9.6130371094
1494036560.4600820541,       -0.6635742188,        0.3876953125,        0.0297851562,      -11.4746093750,       -1.7242431641,        6.3171386719
1494036560.4627780914,       -0.6435546875,        0.3715820312,        0.0410156250,      -11.4746093750,       -1.7242431641,        6.3171386719
1494036560.4654800892,       -0.6435546875,        0.3715820312,        0.0410156250,       -6.6528320312,       -3.3569335938,        4.3334960938
1494036560.4681708813,       -0.6435546875,        0.3715820312,        0.0410156250,       -6.6528320312,       -3.3569335938,        4.3334960938
1494036560.4708580971,       -0.6435546875,        0.3715820312,        0.0410156250,       -2.2125244141,       -4.9133300781,        3.5095214844
1494036560.4735450745,       -0.6635742188,        0.3676757812,        0.0209960938,       -2.2125244141,       -4.9133300781,        3.5095214844
1494036560.4760949612,       -0.6635742188,        0.3676757812,        0.0209960938,        1.6937255859,       -6.3781738281,        3.0364990234
1494036560.4786400795,       -0.6635742188,        0.3676757812,        0.0209960938,        1.0528564453,       -6.3781738281,        3.0364990234
1494036560.4811871052,       -0.6635742188,        0.3676757812,        0.0209960938,        1.0528564453,       -6.3781738281,        2.5787353516
1494036560.4837450981,       -0.6870117188,        0.3427734375,        0.0058593750,        3.9215087891,       -8.0413818359,        2.5787353516
1494036560.4862871170,       -0.6870117188,        0.3427734375,        0.0058593750,        3.9215087891,       -8.0413818359,        2.5787353516
1494036560.4888360500,       -0.6870117188,        0.3427734375,        0.0058593750,        6.0882568359,       -9.0789794922,        2.4108886719
1494036560.4914851189,       -0.6870117188,        0.3427734375,        0.0058593750,        6.0882568359,       -9.0789794922,        2.4108886719
1494036560.4941771030,       -0.6992187500,        0.2929687500,        0.0034179688,        7.1868896484,      -10.7574462891,        2.5634765625
1494036560.4967350960,       -0.6992187500,        0.2929687500,        0.0034179688,        7.1868896484,      -10.7574462891,        2.5634765625
1494036560.4992830753,       -0.6992187500,        0.2929687500,        0.0034179688,        7.7362060547,      -12.2833251953,        3.0517578125
1494036560.5018270016,       -0.6992187500,        0.2929687500,        0.0087890625,        7.7362060547,      -12.2833251953,        3.0517578125
1494036560.5045878887,       -0.7050781250,        0.2988281250,        0.0087890625,        8.5754394531,      -13.9770507812,        3.6926269531
1494036560.5072801113,       -0.7050781250,        0.2988281250,        0.0087890625,        8.5754394531,      -13.9770507812,        3.6926269531
1494036560.5099730492,       -0.7050781250,        0.2988281250,        0.0087890625,       10.0250244141,      -14.7552490234,        4.0283203125
1494036560.5126690865,       -0.7128906250,        0.2968750000,       -0.0004882812,       10.0250244141,      -14.7552490234,        4.0283203125
1494036560.5153770447,       -0.7128906250,        0.2968750000,       -0.0004882812,       11.6119384766,      -15.5792236328,        3.9520263672
1494036560.5180709362,       -0.7128906250,        0.2968750000,       -0.0004882812,       11.6119384766,      -15.5792236328,        3.9520263672
1494036560.5207700729,       -0.7128906250,        0.2968750000,       -0.0004882812,       13.1072998047,      -15.8691406250,        4.4097900391
1494036560.5234611034,       -0.7172851562,        0.2954101562,        0.0268554688,       13.1072998047,      -15.8691406250,        4.4097900391
1494036560.5260190964,       -0.7172851562,        0.2954101562,        0.0268554688,       14.1906738281,      -15.2893066406,        4.3945312500
1494036560.5285670757,       -0.7172851562,        0.2954101562,        0.0268554688,       14.1906738281,      -15.2893066406,        4.3945312500
1494036560.5311229229,       -0.7172851562,        0.2954101562,        0.0268554688,       15.8691406250,      -15.9454345703,        5.2185058594
1494036560.5337150097,       -0.6875000000,        0.2812500000,        0.0664062500,       15.8691406250,      -15.9454345703,        5.2185058594
1494036560.5364089012,       -0.6875000000,        0.2812500000,        0.0664062500,       16.5100097656,      -16.9067382812,        6.6223144531
1494036560.5391039848,       -0.6875000000,        0.2812500000,        0.0664062500,       16.5100097656,      -16.9067382812,        6.6223144531
1494036560.5418000221,       -0.6875000000,        0.2812500000,        0.0664062500,       17.0135498047,      -17.3034667969,        7.0953369141
1494036560.5445060730,       -0.6767578125,        0.2119140625,        0.0913085938,       17.0135498047,      -17.3034667969,        7.0953369141
1494036560.5472059250,       -0.6767578125,        0.2119140625,        0.0913085938,       18.8751220703,      -16.8304443359,        7.7972412109
1494036560.5499000549,       -0.6767578125,        0.2119140625,        0.0913085938,       18.8751220703,      -16.8304443359,        7.7972412109
1494036560.5526030064,       -0.6767578125,        0.2216796875,        0.0888671875,       18.6920166016,      -16.1590576172,        8.6975097656
1494036560.5553090572,       -0.6875000000,        0.2216796875,        0.0888671875,       18.6920166016,      -16.1590576172,        8.6975097656
1494036560.5580079556,       -0.6875000000,        0.2216796875,        0.0888671875,       18.0664062500,      -16.3421630859,       10.8184814453
1494036560.5608789921,       -0.6875000000,        0.2216796875,        0.0888671875,       18.0664062500,      -16.3421630859,       10.8184814453
1494036560.5639679432,       -0.7119140625,        0.2021484375,        0.0869140625,       17.9901123047,      -16.3726806641,       13.3514404297
1494036560.5667979717,       -0.7119140625,        0.2021484375,        0.0869140625,       17.9901123047,      -16.3726806641,       13.3514404297
1494036560.5695021152,       -0.7119140625,        0.2021484375,        0.0869140625,       17.2576904297,      -15.1824951172,       15.4571533203
1494036560.5721969604,       -0.7119140625,        0.2021484375,        0.0869140625,       17.2576904297,      -15.1824951172,       15.4571533203
1494036560.5748291016,       -0.7075195312,        0.1708984375,        0.0976562500,       16.1743164062,      -14.0533447266,       17.4865722656
1494036560.5773839951,       -0.7075195312,        0.1708984375,        0.0976562500,       16.1743164062,      -14.0533447266,       17.4865722656
1494036560.5799388885,       -0.7075195312,        0.1708984375,        0.0976562500,       14.0838623047,      -13.6108398438,       19.9584960938
1494036560.5825030804,       -0.7075195312,        0.1708984375,        0.1088867188,       14.0838623047,      -13.6108398438,       19.9584960938
1494036560.5851860046,       -0.6953125000,        0.1904296875,        0.1088867188,       12.6037597656,      -13.6718750000,       23.0560302734
1494036560.5878880024,       -0.6953125000,        0.1904296875,        0.1088867188,       12.6037597656,      -13.6718750000,       23.0560302734
1494036560.5905830860,       -0.6953125000,        0.1904296875,        0.1088867188,       12.1459960938,      -13.4887695312,       25.6652832031
1494036560.5932879448,       -0.6953125000,        0.1918945312,        0.0952148438,       12.1459960938,      -13.4887695312,       25.6652832031
1494036560.5958490372,       -0.7001953125,        0.1918945312,        0.0952148438,       12.1459960938,      -13.4124755859,       27.9846191406
1494036560.5984029770,       -0.7001953125,        0.1918945312,        0.0952148438,       12.2375488281,      -13.4124755859,       27.9846191406
1494036560.6009619236,       -0.7001953125,        0.1918945312,        0.0952148438,       12.2375488281,      -13.4124755859,       31.0516357422
1494036560.6035280228,       -0.7094726562,        0.1796875000,        0.0791015625,       11.3220214844,      -14.1143798828,       31.0516357422
1494036560.6060850620,       -0.7094726562,        0.1796875000,        0.0791015625,       11.3220214844,      -14.1143798828,       34.9578857422
1494036560.6086480618,       -0.7094726562,        0.1796875000,        0.0791015625,       11.1541748047,      -14.6789550781,       34.4390869141
1494036560.6112051010,       -0.7094726562,        0.1796875000,        0.0791015625,       11.1541748047,      -14.6789550781,       34.4390869141
1494036560.6138908863,       -0.7412109375,        0.1557617188,        0.0688476562,       12.4206542969,      -14.9536132812,       38.3758544922
1494036560.6164600849,       -0.7412109375,        0.1557617188,        0.0688476562,       12.4206542969,      -14.9536132812,       38.3758544922
1494036560.6190268993,       -0.7412109375,        0.1557617188,        0.0688476562,       12.0086669922,      -14.8468017578,       41.9616699219
1494036560.6215879917,       -0.7412109375,        0.1557617188,        0.0688476562,       12.0086669922,      -14.8468017578,       41.9616699219
1494036560.6241889000,       -0.7456054688,        0.1367187500,        0.0541992188,       10.1470947266,      -15.0604248047,       44.9981689453
1494036560.6267540455,       -0.7456054688,        0.1367187500,        0.0541992188,       10.1470947266,      -15.0604248047,       44.9981689453
1494036560.6293210983,       -0.7456054688,        0.1367187500,        0.0541992188,        9.0942382812,      -15.2130126953,       48.9501953125
1494036560.6318850517,       -0.7456054688,        0.1367187500,        0.0541992188,        9.0942382812,      -15.2130126953,       48.9501953125
1494036560.6345319748,       -0.7177734375,        0.1577148438,        0.0336914062,        8.2855224609,      -14.8010253906,       53.5583496094
1494036560.6371901035,       -0.7177734375,        0.1577148438,        0.0336914062,        8.2855224609,      -14.8010253906,       53.5583496094
1494036560.6399569511,       -0.7177734375,        0.1577148438,        0.0336914062,        6.9885253906,      -14.1143798828,       57.6171875000
1494036560.6426079273,       -0.7177734375,        0.1577148438,        0.0336914062,        6.9885253906,      -14.1143798828,       57.6171875000
1494036560.6453208923,       -0.6562500000,        0.2280273438,        0.0498046875,        4.0435791016,      -13.3056640625,       61.0351562500
1494036560.6480209827,       -0.6562500000,        0.2280273438,        0.0498046875,        4.0435791016,      -13.3056640625,       61.0351562500
1494036560.6507239342,       -0.6562500000,        0.2280273438,        0.0498046875,        0.4425048828,      -12.1154785156,       63.7817382812
1494036560.6534569263,       -0.6562500000,        0.3549804688,        0.1118164062,        0.4425048828,      -12.1154785156,       63.7817382812
1494036560.6560161114,       -0.5917968750,        0.3549804688,        0.1118164062,       -1.3580322266,      -11.8103027344,       65.9179687500
1494036560.6585800648,       -0.5917968750,        0.3549804688,        0.1118164062,       -1.3580322266,      -11.8103027344,       65.9179687500
1494036560.6611349583,       -0.5917968750,        0.3549804688,        0.1118164062,       -1.3580322266,      -11.8103027344,       67.4133300781
1494036560.6637949944,       -0.5917968750,        0.4160156250,        0.1201171875,       -0.9613037109,      -11.8103027344,       67.4133300781
1494036560.6663529873,       -0.5722656250,        0.4160156250,        0.1201171875,       -0.9613037109,       -7.9040527344,       68.2678222656
1494036560.6689100266,       -0.5722656250,        0.4160156250,        0.1201171875,        0.3204345703,      -11.5356445312,       68.2678222656
1494036560.6714730263,       -0.5722656250,        0.4160156250,        0.1201171875,        0.3204345703,      -11.5356445312,       68.9697265625
1494036560.6740880013,       -0.6044921875,        0.3715820312,        0.0703125000,        3.0059814453,      -11.0015869141,       68.9697265625
1494036560.6766419411,       -0.6044921875,        0.3715820312,        0.0703125000,        3.0059814453,      -11.0015869141,       68.9697265625
1494036560.6792299747,       -0.6044921875,        0.3715820312,        0.0703125000,        6.0272216797,       -9.4146728516,       70.0378417969
1494036560.6818389893,       -0.6044921875,        0.3715820312,        0.0703125000,        6.0272216797,       -9.4146728516,       73.9440917969
1494036560.6848950386,       -0.6250000000,        0.3720703125,        0.1093750000,        7.5225830078,       -8.0261230469,       70.9838867188
1494036560.6875879765,       -0.6250000000,        0.3720703125,        0.1093750000,        7.5225830078,       -8.0261230469,       70.9838867188
1494036560.6902871132,       -0.6250000000,        0.3720703125,        0.1093750000,        7.0800781250,       -8.2397460938,       72.4487304688
1494036560.6929850578,       -0.6250000000,        0.3720703125,        0.1093750000,        7.0800781250,       -8.2397460938,       72.4487304688
1494036560.6956949234,       -0.6665039062,        0.3735351562,        0.1064453125,        7.4615478516,       -8.6364746094,       73.5778808594
1494036560.6983940601,       -0.6665039062,        0.3735351562,        0.1064453125,        7.4615478516,       -8.6364746094,       77.4841308594
1494036560.7010819912,       -0.6665039062,        0.3735351562,        0.1064453125,        9.3536376953,       -8.7738037109,       75.4852294922
1494036560.7039220333,       -0.6665039062,        0.2690429688,        0.1025390625,        9.3536376953,       -8.7738037109,       79.3914794922
1494036560.7066240311,       -0.6606445312,        0.2690429688,        0.1025390625,       10.4522705078,       -8.1787109375,       78.7963867188
1494036560.7093150616,       -0.6606445312,        0.2690429688,        0.1025390625,       10.4522705078,       -8.1787109375,       82.7026367188
1494036560.7121150494,       -0.6606445312,        0.2690429688,        0.1025390625,        9.5214843750,       -7.4615478516,       82.1228027344
1494036560.7147810459,       -0.5864257812,        0.2104492188,        0.1508789062,        9.5214843750,       -7.4615478516,       82.1228027344
1494036560.7173299789,       -0.5864257812,        0.2104492188,        0.1508789062,        7.0953369141,       -7.1105957031,       84.5642089844
1494036560.7198879719,       -0.5864257812,        0.2104492188,        0.1508789062,        7.0953369141,       -7.1105957031,       84.5642089844
1494036560.7224380970,       -0.5864257812,        0.2104492188,        0.1508789062,        1.1596679688,       -6.3476562500,       86.5020751953
1494036560.7250208855,       -0.5512695312,        0.3027343750,        0.2128906250,        1.1596679688,       -6.3476562500,       86.5020751953
1494036560.7275760174,       -0.5512695312,        0.3027343750,        0.2128906250,       -3.3264160156,       -4.9591064453,       87.4328613281
1494036560.7301249504,       -0.5512695312,        0.3027343750,        0.2128906250,       -3.3264160156,       -4.9591064453,       87.4328613281
1494036560.7326779366,       -0.5512695312,        0.3027343750,        0.2128906250,       -5.0201416016,       -4.8675537109,       88.3789062500
1494036560.7353680134,       -0.5839843750,        0.4189453125,        0.2138671875,       -5.0201416016,       -4.8675537109,       88.3789062500
1494036560.7379140854,       -0.5839843750,        0.4189453125,        0.2138671875,       -2.3040771484,       -4.0283203125,       88.4704589844
1494036560.7404699326,       -0.5839843750,        0.4189453125,        0.2138671875,       -2.3040771484,       -4.0283203125,       88.4704589844
1494036560.7430219650,       -0.5839843750,        0.4189453125,        0.2138671875,        2.0904541016,       -2.4108886719,       88.0126953125
1494036560.7458410263,       -0.5942382812,        0.3422851562,        0.1748046875,        2.0904541016,       -2.4108886719,       88.0126953125
1494036560.7485430241,       -0.5942382812,        0.3422851562,        0.1748046875,        5.6457519531,       -0.9307861328,       87.9516601562
1494036560.7512350082,       -0.5942382812,        0.3422851562,        0.1748046875,        5.6457519531,       -0.9307861328,       87.9516601562
1494036560.7539401054,       -0.5942382812,        0.3422851562,        0.1977539062,        5.4931640625,        0.5798339844,       89.4622802734
1494036560.7566380501,       -0.5644531250,        0.4189453125,        0.1977539062,        5.4931640625,        0.5798339844,       89.4622802734
1494036560.7593259811,       -0.5644531250,        0.4189453125,        0.1977539062,        3.8757324219,        0.8697509766,       90.0115966797
1494036560.7620310783,       -0.5644531250,        0.4189453125,        0.1977539062,        3.8757324219,        0.8697509766,       90.0115966797
1494036560.7647349834,       -0.5644531250,        0.5180664062,        0.1303710938,        5.5694580078,        0.5493164062,       91.0186767578
1494036560.7674250603,       -0.5834960938,        0.5180664062,        0.1303710938,        5.5694580078,        0.5493164062,       91.0186767578
1494036560.7701160908,       -0.5834960938,        0.5180664062,        0.1303710938,        9.4757080078,        0.7629394531,       92.6361083984
1494036560.7728021145,       -0.5834960938,        0.5180664062,        0.1303710938,        9.9487304688,        0.7629394531,       92.6361083984
1494036560.7753820419,       -0.6264648438,        0.4448242188,        0.0600585938,        9.9487304688,        2.1667480469,       94.6655273438
1494036560.7779378891,       -0.6264648438,        0.4448242188,        0.0600585938,       15.1824951172,        2.1667480469,       94.6655273438
1494036560.7804920673,       -0.6264648438,        0.4448242188,        0.0600585938,       15.1824951172,        2.1667480469,       96.9848632812
1494036560.7830500603,       -0.6264648438,        0.4448242188,        0.0600585938,       17.1508789062,        3.1280517578,       96.9848632812
1494036560.7858951092,       -0.6215820312,        0.4262695312,        0.0327148438,       17.1508789062,        3.1280517578,       99.1973876953
1494036560.7884559631,       -0.6215820312,        0.4262695312,        0.0327148438,       16.3116455078,        4.2877197266,       99.1973876953
1494036560.7910099030,       -0.6215820312,        0.4262695312,        0.0327148438,       16.3116455078,        4.2877197266,       99.1973876953
1494036560.7936649323,       -0.6215820312,        0.4262695312,        0.0327148438,       12.6495361328,        5.5084228516,      100.4486083984
1494036560.7963409424,       -0.6176757812,        0.4926757812,        0.0029296875,       12.6495361328,        5.5084228516,      104.3548583984
1494036560.7990739346,       -0.6176757812,        0.4926757812,        0.0029296875,       10.6353759766,        6.0882568359,      101.7608642578
1494036560.8019120693,       -0.6176757812,        0.4926757812,        0.0029296875,       10.6353759766,        6.0882568359,      103.6682128906
1494036560.8049170971,       -0.6176757812,        0.4995117188,       -0.0048828125,        9.9334716797,        6.7443847656,      103.6682128906
1494036560.8076140881,       -0.6328125000,        0.4995117188,       -0.0048828125,        9.9334716797,        6.7443847656,      103.7597656250
1494036560.8103089333,       -0.6328125000,        0.4995117188,       -0.0048828125,        9.2773437500,        7.8582763672,      103.7597656250
1494036560.8130109310,       -0.6328125000,        0.4995117188,       -0.0048828125,        9.2773437500,        7.8582763672,      103.1341552734
1494036560.8157188892,       -0.5888671875,        0.4785156250,        0.0351562500,        8.9721679688,        8.3160400391,      103.1341552734
1494036560.8184161186,       -0.5888671875,        0.4785156250,        0.0351562500,        8.9721679688,        8.3160400391,      102.2796630859
1494036560.8211069107,       -0.5888671875,        0.4785156250,        0.0351562500,        7.5378417969,        7.9193115234,      102.2796630859
1494036560.8238019943,       -0.5888671875,        0.4785156250,        0.0351562500,        7.5378417969,        7.9193115234,      101.0131835938
1494036560.8265049458,       -0.5288085938,        0.5390625000,        0.0927734375,        6.2713623047,        7.5073242188,      101.0131835938
1494036560.8292019367,       -0.5288085938,        0.5390625000,        0.0927734375,        6.2713623047,        7.5073242188,      101.2268066406
1494036560.8318951130,       -0.5288085938,        0.5390625000,        0.0927734375,        7.0343017578,        6.6375732422,      101.2268066406
1494036560.8345301151,       -0.5288085938,        0.5390625000,        0.2177734375,        7.0343017578,        6.6375732422,      101.2268066406
1494036560.8370809555,       -0.4799804688,        0.6040039062,        0.1391601562,       10.6201171875,        4.4708251953,      101.5014648438
1494036560.8396449089,       -0.4799804688,        0.6040039062,        0.1391601562,       10.6201171875,        4.4708251953,      101.5014648438
1494036560.8421900272,       -0.4799804688,        0.6040039062,        0.1391601562,       15.8386230469,        1.3275146484,      101.0894775391
1494036560.8447959423,       -0.4799804688,        0.6040039062,        0.2094726562,       15.8386230469,        1.3275146484,      101.0894775391
1494036560.8473589420,       -0.4658203125,        0.6254882812,        0.2094726562,       22.3083496094,       -2.4719238281,       99.4110107422
1494036560.8499140739,       -0.4658203125,        0.6254882812,        0.2094726562,       22.3083496094,       -2.4719238281,       99.4110107422
1494036560.8524689674,       -0.4658203125,        0.6254882812,        0.2094726562,       30.0140380859,       -6.3476562500,       99.1058349609
1494036560.8551590443,       -0.4658203125,        0.5004882812,        0.2055664062,       30.0140380859,       -6.3476562500,       99.1058349609
1494036560.8577170372,       -0.4936523438,        0.5781250000,        0.2055664062,       36.6058349609,       -9.7045898438,       98.1597900391
1494036560.8603940010,       -0.4936523438,        0.5781250000,        0.2055664062,       36.6058349609,       -9.7045898438,       98.1597900391
1494036560.8629519939,       -0.4936523438,        0.5781250000,        0.2055664062,       40.1000976562,      -11.6271972656,       96.4813232422
1494036560.8657989502,       -0.5000000000,        0.5747070312,        0.0659179688,       40.1000976562,      -11.6271972656,       96.4813232422
1494036560.8685019016,       -0.5000000000,        0.5747070312,        0.0659179688,       42.1447753906,      -12.8173828125,       96.5270996094
1494036560.8712019920,       -0.5000000000,        0.5747070312,        0.0659179688,       42.1447753906,      -12.8173828125,       96.5270996094
1494036560.8738861084,       -0.5000000000,        0.5747070312,        0.0659179688,       42.6025390625,      -14.2517089844,       96.0693359375
1494036560.8764491081,       -0.5966796875,        0.6528320312,       -0.0419921875,       42.6025390625,      -14.2517089844,       96.0693359375
1494036560.8790059090,       -0.5966796875,        0.6528320312,       -0.0419921875,       42.6025390625,      -14.7247314453,       96.5576171875
1494036560.8815670013,       -0.5966796875,        0.6528320312,       -0.0419921875,       41.5496826172,      -14.7247314453,       96.5576171875
1494036560.8841838837,       -0.5966796875,        0.6528320312,       -0.0419921875,       41.5496826172,      -14.2974853516,       99.0142822266
1494036560.8868799210,       -0.6914062500,        0.6059570312,       -0.1420898438,       39.8406982422,      -14.2974853516,       99.0142822266
1494036560.8895800114,       -0.6914062500,        0.6059570312,       -0.1420898438,       39.8406982422,      -13.6260986328,      101.7150878906
1494036560.8922760487,       -0.6914062500,        0.6059570312,       -0.1420898438,       36.9415283203,      -13.6260986328,      101.7150878906
1494036560.8949000835,       -0.6914062500,        0.6059570312,       -0.1420898438,       36.9415283203,      -13.6260986328,      104.5837402344
1494036560.8974609375,       -0.7285156250,        0.5639648438,       -0.1372070312,       31.6772460938,      -12.7868652344,      104.5837402344
1494036560.9000129700,       -0.7285156250,        0.5639648438,       -0.1372070312,       31.6772460938,      -12.7868652344,      108.4899902344
1494036560.9025740623,       -0.7285156250,        0.5639648438,       -0.1372070312,       26.1077880859,      -12.5427246094,      107.6965332031
1494036560.9053030014,       -0.7285156250,        0.5639648438,       -0.0717773438,       26.1077880859,      -12.5427246094,      111.6027832031
1494036560.9080109596,       -0.8266601562,        0.6738281250,       -0.0717773438,       22.1099853516,      -12.7410888672,      110.6414794922
1494036560.9107139111,       -0.8266601562,        0.6738281250,       -0.0717773438,       22.1099853516,      -12.7410888672,      114.5477294922
1494036560.9134590626,       -0.8266601562,        0.6738281250,       -0.0717773438,       20.3857421875,      -14.0075683594,      114.8071289062
1494036560.9161601067,       -0.9516601562,        0.7021484375,        0.0249023438,       20.3857421875,      -14.0075683594,      118.7133789062
1494036560.9188649654,       -0.9409179688,        0.7021484375,        0.0249023438,       20.9197998047,      -16.4031982422,      119.7204589844
1494036560.9217529297,       -0.9409179688,        0.7021484375,        0.0249023438,       20.9197998047,      -16.4031982422,      124.3591308594
1494036560.9248170853,       -0.9409179688,        0.7021484375,        0.0249023438,       21.1486816406,      -18.7683105469,      124.3591308594
1494036560.9273738861,       -1.0444335938,        0.6767578125,        0.0864257812,       21.1486816406,      -18.7683105469,      129.3182373047
1494036560.9299330711,       -1.0444335938,        0.6767578125,        0.0864257812,       20.9503173828,      -20.8129882812,      129.3182373047
1494036560.9326028824,       -1.0444335938,        0.6767578125,        0.0864257812,       20.9503173828,      -20.8129882812,      134.8419189453
1494036560.9353189468,       -1.0444335938,        0.6767578125,        0.2114257812,       22.5830078125,      -23.4985351562,      134.8419189453
1494036560.9380269051,       -1.1206054688,        0.8486328125,        0.1464843750,       22.5830078125,      -23.4985351562,      138.7481689453
1494036560.9407238960,       -1.1206054688,        0.8486328125,        0.1464843750,       25.9399414062,      -27.6336669922,      139.6789550781
1494036560.9434649944,       -1.1206054688,        0.8486328125,        0.1464843750,       25.9399414062,      -27.6336669922,      143.5852050781
1494036560.9461710453,       -1.1206054688,        0.8886718750,        0.2055664062,       29.8614501953,      -32.5927734375,      142.8985595703
1494036560.9488739967,       -1.2836914062,        0.8886718750,        0.2055664062,       29.8614501953,      -32.5927734375,      146.8048095703
1494036560.9515750408,       -1.2836914062,        0.8886718750,        0.2055664062,       34.3322753906,      -36.5142822266,      145.3552246094
1494036560.9542360306,       -1.2836914062,        0.8886718750,        0.2055664062,       34.3322753906,      -36.5142822266,      145.3552246094
1494036560.9567968845,       -1.4257812500,        0.8208007812,        0.2133789062,       38.9709472656,      -41.1071777344,      148.6053466797
1494036560.9593560696,       -1.4257812500,        0.8208007812,        0.2133789062,       38.9709472656,      -41.1071777344,      148.6053466797
1494036560.9619190693,       -1.4257812500,        0.8208007812,        0.2133789062,       44.2047119141,      -45.4864501953,      151.6723632812
1494036560.9644830227,       -1.4257812500,        0.8208007812,        0.2133789062,       44.2047119141,      -45.4864501953,      151.6723632812
1494036560.9670500755,       -1.5278320312,        0.6801757812,        0.2338867188,       48.0041503906,      -47.7752685547,      152.7404785156
1494036560.9696080685,       -1.5278320312,        0.6801757812,        0.2338867188,       48.0041503906,      -47.7752685547,      152.7404785156
1494036560.9721629620,       -1.5278320312,        0.6801757812,        0.2338867188,       48.3856201172,      -48.0194091797,      150.8789062500
1494036560.9747719765,       -1.5278320312,        0.6801757812,        0.2338867188,       48.3856201172,      -48.0194091797,      150.8789062500
1494036560.9773280621,       -1.4990234375,        0.5205078125,        0.1557617188,       48.8586425781,      -48.5076904297,      149.7192382812
1494036560.9798920155,       -1.4990234375,        0.5205078125,        0.1557617188,       48.8586425781,      -48.5076904297,      149.7192382812
1494036560.9824459553,       -1.4990234375,        0.5205078125,        0.1557617188,       48.6755371094,      -48.3703613281,      146.7285156250
1494036560.9852299690,       -1.4990234375,        0.5205078125,        0.1557617188,       48.6755371094,      -48.3703613281,      146.7285156250
1494036560.9879341125,       -1.3945312500,        0.3212890625,        0.1220703125,       48.2482910156,      -47.0275878906,      141.3574218750
1494036560.9906270504,       -1.3945312500,        0.3212890625,        0.1220703125,       48.2482910156,      -47.0275878906,      141.3574218750
1494036560.9933300018,       -1.3945312500,        0.3212890625,        0.1220703125,       44.7235107422,      -44.7235107422,      133.3770751953
1494036560.9960339069,       -1.3945312500,        0.3212890625,        0.1210937500,       44.7235107422,      -44.7235107422,      133.3770751953
1494036560.9987289906,       -1.1162109375,        0.0922851562,        0.1210937500,       40.8172607422,      -41.5649414062,      123.0468750000
1494036561.0014319420,       -1.1162109375,        0.0922851562,        0.1210937500,       39.0930175781,      -41.5649414062,      123.0468750000
1494036561.0041460991,       -1.1162109375,        0.0922851562,        0.1210937500,       27.3742675781,      -36.6363525391,      109.2681884766
1494036561.0069539547,       -0.8662109375,        0.0488281250,        0.0771484375,       30.6091308594,      -36.6363525391,      109.2681884766
1494036561.0096590519,       -0.8369140625,        0.0488281250,        0.0771484375,       18.8903808594,      -31.8298339844,       93.3227539062
1494036561.0123550892,       -0.8369140625,        0.0488281250,        0.0771484375,       19.2260742188,      -31.8298339844,       93.3227539062
1494036561.0150868893,       -0.8369140625,        0.0488281250,        0.0771484375,        7.5073242188,      -30.3802490234,       72.8759765625
1494036561.0177841187,       -0.4887695312,        0.1386718750,        0.0180664062,        5.1422119141,      -30.3802490234,       72.8759765625
1494036561.0204799175,       -0.4887695312,        0.1386718750,        0.0180664062,      -10.4827880859,      -31.3720703125,       49.3621826172
1494036561.0231919289,       -0.4887695312,        0.1386718750,        0.0180664062,       -9.8419189453,      -31.3720703125,       49.3621826172
1494036561.0257461071,       -0.4887695312,        0.1386718750,        0.0180664062,       -9.8419189453,      -27.7862548828,       33.7829589844
1494036561.0282969475,       -0.1308593750,        0.2915039062,       -0.1640625000,      -19.4854736328,      -27.7862548828,       33.7829589844
1494036561.0308539867,       -0.1308593750,        0.2915039062,       -0.1640625000,      -19.4854736328,      -27.7862548828,       33.5083007812
1494036561.0334680080,       -0.1308593750,        0.2915039062,       -0.1640625000,       -9.3078613281,      -15.5944824219,       33.5083007812
1494036561.0360209942,       -0.1308593750,        0.2915039062,       -0.1640625000,       -9.3078613281,      -15.5944824219,       37.4145507812
1494036561.0385799408,        0.2612304688,        0.6459960938,       -0.2905273438,       14.3127441406,       -9.2010498047,       38.1469726562
1494036561.0414071083,        0.2612304688,        0.6459960938,       -0.2905273438,       14.3127441406,       -9.2010498047,       34.7137451172
1494036561.0443129539,        0.2612304688,        0.6459960938,       -0.2905273438,       27.5726318359,       -4.4860839844,       34.7137451172
1494036561.0470089912,        0.2612304688,        0.2563476562,        0.0869140625,       27.5726318359,       -4.4860839844,       18.0358886719
1494036561.0497009754,        0.4179687500,        0.2563476562,        0.0869140625,       34.1339111328,       -3.1280517578,       18.0358886719
1494036561.0524010658,        0.4179687500,        0.2563476562,        0.0869140625,       34.1339111328,       -3.1280517578,      -16.4337158203
1494036561.0551059246,        0.4179687500,        0.2563476562,        0.0869140625,       44.3725585938,       -8.2244873047,      -16.4337158203
1494036561.0578041077,        0.4169921875,       -1.6601562500,       -0.0122070312,       44.3725585938,       -8.2244873047,      -66.6046142578
1494036561.0605039597,        0.4169921875,       -1.6601562500,       -0.0122070312,       49.5910644531,       -3.6773681641,      -66.6046142578
1494036561.0632069111,        0.4169921875,       -1.6601562500,       -0.0122070312,       49.5910644531,       -3.6773681641,     -105.6671142578
1494036561.0659089088,        0.4169921875,       -1.6601562500,       -0.0122070312,       24.8413085938,        2.9907226562,     -107.2692871094
1494036561.0686030388,        0.1772460938,       -1.6240234375,        0.2602539062,       24.8413085938,        2.9907226562,     -115.0817871094
1494036561.0713028908,        0.1772460938,       -1.6240234375,        0.2602539062,      -29.8767089844,        0.8087158203,     -116.0430908203
1494036561.0739719868,        0.1772460938,       -1.6240234375,        0.2602539062,      -29.8767089844,        0.8087158203,     -116.0430908203
1494036561.0765280724,        0.1772460938,       -1.6240234375,        0.0102539062,      -74.8138427734,       -0.9155273438,     -116.1651611328
1494036561.0790910721,       -0.3251953125,       -1.1694335938,        0.0854492188,      -74.8138427734,       -0.9155273438,     -116.1651611328
1494036561.0817649364,       -0.3251953125,       -1.1694335938,        0.0854492188,      -84.3505859375,        4.7149658203,     -131.2255859375
1494036561.0843260288,       -0.3251953125,       -1.1694335938,        0.0854492188,      -84.3505859375,        4.7149658203,     -131.2255859375
1494036561.0868868828,       -0.3251953125,       -1.1694335938,        0.2138671875,      -61.4471435547,       10.8489990234,     -148.2391357422
1494036561.0894451141,       -0.3471679688,       -0.1396484375,        0.2138671875,      -61.4471435547,       10.8489990234,     -148.2391357422
1494036561.0920000076,       -0.3471679688,       -0.1396484375,        0.2138671875,      -25.8178710938,        9.9487304688,     -160.0646972656
1494036561.0947329998,       -0.3471679688,       -0.1396484375,        0.2138671875,      -25.8178710938,        9.9487304688,     -160.0646972656
1494036561.0972890854,       -0.3471679688,        0.1103515625,        0.2705078125,        3.8299560547,        3.3264160156,     -175.9185791016
1494036561.0998430252,       -0.0786132812,        0.0947265625,        0.2705078125,        3.8299560547,        3.3264160156,     -175.9185791016
1494036561.1023910046,       -0.0786132812,        0.0947265625,        0.2705078125,       25.6500244141,       -1.6937255859,     -197.5860595703
1494036561.1052000523,       -0.0786132812,        0.0947265625,        0.2705078125,       25.6500244141,       -1.6937255859,     -197.5860595703
1494036561.1079020500,       -0.2041015625,       -0.1591796875,        0.0966796875,       36.1480712891,       -5.4168701172,     -216.2170410156
1494036561.1106019020,       -0.2041015625,       -0.1591796875,        0.0966796875,       36.1480712891,       -5.4168701172,     -216.2170410156
1494036561.1133139133,       -0.2041015625,       -0.1591796875,        0.0966796875,       41.5649414062,       -6.1187744141,     -227.6000976562
1494036561.1160130501,       -0.2041015625,       -0.1591796875,        0.0966796875,       41.5649414062,       -6.1187744141,     -227.6000976562
1494036561.1187109947,       -0.3686523438,       -0.0874023438,        0.0009765625,       52.4444580078,       -6.0577392578,     -233.0474853516
1494036561.1214089394,       -0.3686523438,       -0.0874023438,        0.0009765625,       52.4444580078,       -6.0577392578,     -233.0474853516
1494036561.1240739822,       -0.3686523438,       -0.0874023438,        0.0009765625,       64.6667480469,       -7.1105957031,     -236.7706298828
1494036561.1266310215,       -0.3686523438,       -0.0874023438,        0.0009765625,       64.6667480469,       -7.1105957031,     -236.7706298828
1494036561.1291890144,       -0.4213867188,       -0.0263671875,       -0.0004882812,       64.6667480469,       -9.8419189453,     -242.8131103516
1494036561.1317460537,       -0.4213867188,       -0.0263671875,       -0.0004882812,       68.4509277344,       -9.8419189453,     -242.8131103516
1494036561.1343700886,       -0.4213867188,       -0.0263671875,       -0.0004882812,       68.4509277344,      -13.7481689453,     -250.8544921875
1494036561.1370749474,       -0.4213867188,       -0.0263671875,       -0.0004882812,       61.5081787109,      -12.5274658203,     -250.8544921875
1494036561.1397678852,       -0.4697265625,       -0.0307617188,       -0.0361328125,       61.5081787109,      -12.5274658203,     -257.5378417969
1494036561.1424698830,       -0.4697265625,       -0.0307617188,       -0.0361328125,       47.2869873047,      -14.2974853516,     -257.5378417969
1494036561.1451849937,       -0.4697265625,       -0.0307617188,       -0.0361328125,       47.2869873047,      -14.2974853516,     -261.8255615234
1494036561.1478869915,       -0.4697265625,        0.0654296875,       -0.1030273438,       30.4718017578,      -15.2893066406,     -261.8255615234
1494036561.1505899429,       -0.5415039062,        0.0654296875,       -0.1030273438,       30.4718017578,      -15.2893066406,     -263.7786865234
1494036561.1534459591,       -0.5415039062,        0.0654296875,       -0.1030273438,       13.5345458984,      -15.1824951172,     -263.7786865234
1494036561.1561501026,       -0.5415039062,        0.0654296875,       -0.1030273438,       13.5345458984,      -15.1824951172,     -264.8620605469
1494036561.1588590145,       -0.6215820312,        0.1821289062,       -0.1088867188,       -1.9378662109,      -14.8468017578,     -264.8620605469
1494036561.1616458893,       -0.6215820312,        0.1821289062,       -0.1088867188,       -1.9378662109,      -14.8468017578,     -265.8081054688
1494036561.1644999981,       -0.6215820312,        0.1821289062,       -0.1088867188,      -14.1906738281,      -14.3737792969,     -265.8081054688
1494036561.1672129631,       -0.6215820312,        0.1821289062,       -0.1088867188,      -14.1906738281,      -13.7176513672,     -267.7459716797
1494036561.1699130535,       -0.6635742188,        0.2304687500,       -0.0800781250,      -24.2462158203,      -13.7176513672,     -267.7459716797
1494036561.1726140976,       -0.6635742188,        0.2304687500,       -0.0800781250,      -24.2462158203,      -13.7176513672,     -269.7601318359
