time_stamp before, Acceleration x, Acceleration y, Acceleration z, Gyro x, Gyro y, Gyro z
1494036409.7952198982,       -0.4125976562,        0.1665039062,       -0.0468750000,       -2.6092529297,        7.6599121094,      -30.2124023438
1494036409.8072769642,       -0.4125976562,        0.1665039062,       -0.0468750000,       -2.6092529297,        7.6599121094,      -30.2124023438
1494036409.8099689484,       -0.4125976562,        0.1665039062,       -0.0468750000,       -2.5939941406,        7.3089599609,      -34.6069335938
1494036409.8125169277,       -0.4008789062,        0.1494140625,       -0.0463867188,       -2.5939941406,        7.3089599609,      -34.6069335938
1494036409.8156270981,       -0.4008789062,        0.1494140625,       -0.0463867188,       -3.1738281250,        6.8664550781,      -39.3829345703
1494036409.8181691170,       -0.4008789062,        0.1494140625,       -0.0463867188,       -3.1738281250,        6.8664550781,      -39.3829345703
1494036409.8207190037,       -0.4008789062,        0.1494140625,       -0.0581054688,       -3.7078857422,        6.3781738281,      -44.6777343750
1494036409.8232529163,       -0.4038085938,        0.1455078125,       -0.0581054688,       -3.7078857422,        6.3781738281,      -44.6777343750
1494036409.8257958889,       -0.4038085938,        0.1455078125,       -0.0581054688,       -4.5623779297,        5.0659179688,      -49.2248535156
1494036409.8283350468,       -0.4038085938,        0.1455078125,       -0.0581054688,       -4.5623779297,        5.0659179688,      -49.2248535156
1494036409.8308689594,       -0.4038085938,        0.1455078125,       -0.0581054688,       -5.7373046875,        4.5471191406,      -53.8482666016
1494036409.8334619999,       -0.3930664062,        0.1289062500,       -0.0581054688,       -5.7373046875,        4.5471191406,      -53.8482666016
1494036409.8359990120,       -0.3930664062,        0.1289062500,       -0.0581054688,       -7.7362060547,        4.3945312500,      -58.3953857422
1494036409.8385410309,       -0.3930664062,        0.1289062500,       -0.0581054688,       -7.7362060547,        4.3945312500,      -58.3953857422
1494036409.8410840034,       -0.3930664062,        0.1303710938,       -0.0625000000,       -7.7362060547,        4.6234130859,      -63.3392333984
1494036409.8436799049,       -0.4023437500,        0.1303710938,       -0.0625000000,      -10.6048583984,        4.6234130859,      -63.3392333984
1494036409.8462269306,       -0.4023437500,        0.1303710938,       -0.0625000000,      -10.6048583984,        4.6234130859,      -68.1915283203
1494036409.8487789631,       -0.4023437500,        0.1303710938,       -0.0625000000,      -12.1917724609,        4.2114257812,      -68.1915283203
1494036409.8513329029,       -0.4023437500,        0.1669921875,       -0.0527343750,      -12.1917724609,        4.2114257812,      -72.0977783203
1494036409.8538990021,       -0.4125976562,        0.1669921875,       -0.0527343750,      -12.7258300781,        3.4790039062,      -73.1506347656
1494036409.8564550877,       -0.4125976562,        0.1669921875,       -0.0527343750,      -12.7258300781,        3.4790039062,      -73.1506347656
1494036409.8590149879,       -0.4125976562,        0.1669921875,       -0.0527343750,      -12.9699707031,        3.0212402344,      -77.8045654297
1494036409.8615789413,       -0.4125976562,        0.1767578125,       -0.0454101562,      -12.9699707031,        3.0212402344,      -77.8045654297
1494036409.8642609119,       -0.4262695312,        0.1767578125,       -0.0454101562,      -12.6800537109,        2.1209716797,      -82.0312500000
1494036409.8668200970,       -0.4262695312,        0.1767578125,       -0.0454101562,      -12.6800537109,        2.1209716797,      -82.0312500000
1494036409.8693809509,       -0.4262695312,        0.1767578125,       -0.0454101562,      -12.1002197266,        1.3580322266,      -85.9985351562
1494036409.8719398975,       -0.4291992188,        0.1889648438,       -0.0463867188,      -12.1002197266,        1.3580322266,      -85.9985351562
1494036409.8747220039,       -0.4291992188,        0.1889648438,       -0.0463867188,      -10.7574462891,        0.7019042969,      -89.5080566406
1494036409.8775660992,       -0.4291992188,        0.1889648438,       -0.0463867188,      -10.7574462891,        0.7019042969,      -89.5080566406
1494036409.8802680969,       -0.4291992188,        0.1889648438,       -0.0463867188,       -8.7432861328,       -0.0152587891,      -93.3532714844
1494036409.8829679489,       -0.4331054688,        0.2084960938,       -0.0307617188,       -8.7432861328,       -0.0152587891,      -93.3532714844
1494036409.8856699467,       -0.4331054688,        0.2084960938,       -0.0307617188,       -6.0729980469,       -0.9155273438,      -97.1374511719
1494036409.8883709908,       -0.4331054688,        0.2084960938,       -0.0307617188,       -6.0729980469,       -0.9155273438,      -97.1374511719
1494036409.8910570145,       -0.4331054688,        0.2084960938,       -0.0507812500,       -3.8604736328,       -1.8310546875,     -100.7537841797
1494036409.8937458992,       -0.4316406250,        0.2148437500,       -0.0507812500,       -3.8604736328,       -1.8310546875,     -100.7537841797
1494036409.8962988853,       -0.4316406250,        0.2148437500,       -0.0507812500,       -1.9226074219,       -1.9683837891,     -103.5766601562
1494036409.8988490105,       -0.4316406250,        0.2148437500,       -0.0507812500,       -1.9226074219,       -1.9683837891,     -103.5766601562
1494036409.9013979435,       -0.4316406250,        0.2148437500,       -0.0585937500,       -0.3204345703,       -2.8228759766,     -106.6131591797
1494036409.9039640427,       -0.4331054688,        0.2143554688,       -0.0585937500,       -0.3204345703,       -2.8228759766,     -106.6131591797
1494036409.9065139294,       -0.4331054688,        0.2143554688,       -0.0585937500,        3.5858154297,       -3.4637451172,     -109.4818115234
1494036409.9090669155,       -0.4331054688,        0.2143554688,       -0.0585937500,        0.9765625000,       -3.4637451172,     -109.4818115234
1494036409.9116249084,       -0.4331054688,        0.2143554688,       -0.0673828125,        0.9765625000,       -7.3699951172,     -112.5488281250
1494036409.9142949581,       -0.4462890625,        0.2285156250,       -0.0673828125,        3.6773681641,       -4.0588378906,     -112.5488281250
1494036409.9169909954,       -0.4462890625,        0.2285156250,       -0.0673828125,        3.6773681641,       -4.0588378906,     -114.9444580078
1494036409.9196870327,       -0.4462890625,        0.2285156250,       -0.0673828125,        5.6915283203,       -4.4097900391,     -114.9444580078
1494036409.9223759174,       -0.4545898438,        0.2177734375,       -0.0927734375,        5.6915283203,       -4.4097900391,     -117.4316406250
1494036409.9251809120,       -0.4545898438,        0.2177734375,       -0.0927734375,        6.5612792969,       -4.5623779297,     -117.4316406250
1494036409.9278290272,       -0.4545898438,        0.2177734375,       -0.0927734375,        6.5612792969,       -4.5623779297,     -120.1171875000
1494036409.9306309223,       -0.4545898438,        0.2177734375,       -0.0927734375,        6.7901611328,       -4.6691894531,     -120.1171875000
1494036409.9333229065,       -0.4667968750,        0.2543945312,       -0.0849609375,        6.7901611328,       -4.6691894531,     -122.3144531250
1494036409.9360189438,       -0.4667968750,        0.2543945312,       -0.0849609375,        7.9803466797,       -4.8217773438,     -122.3144531250
1494036409.9387118816,       -0.4667968750,        0.2543945312,       -0.0849609375,        7.9803466797,       -4.8217773438,     -123.9318847656
1494036409.9414050579,       -0.4667968750,        0.2543945312,       -0.0849609375,        9.6740722656,       -5.3405761719,     -123.9318847656
1494036409.9440629482,       -0.4858398438,        0.2836914062,       -0.0820312500,        9.6740722656,       -5.3405761719,     -125.2899169922
1494036409.9466159344,       -0.4858398438,        0.2836914062,       -0.0820312500,       12.1459960938,       -6.1645507812,     -125.2899169922
1494036409.9492809772,       -0.4858398438,        0.2836914062,       -0.0820312500,       12.1459960938,       -6.1645507812,     -125.2899169922
1494036409.9518411160,       -0.4858398438,        0.2836914062,       -0.0820312500,       15.1367187500,       -5.7220458984,     -126.5411376953
1494036409.9545099735,       -0.5102539062,        0.2988281250,       -0.0820312500,       15.1367187500,       -5.7220458984,     -126.5411376953
1494036409.9572029114,       -0.5102539062,        0.2988281250,       -0.0820312500,       16.7083740234,       -6.1340332031,     -127.1057128906
1494036409.9598970413,       -0.5102539062,        0.2988281250,       -0.0820312500,       16.7083740234,       -6.1340332031,     -127.1057128906
1494036409.9625909328,       -0.5102539062,        0.3437500000,       -0.0893554688,       18.3715820312,       -6.1492919922,     -127.9449462891
1494036409.9651989937,       -0.5332031250,        0.3437500000,       -0.0893554688,       18.3715820312,       -6.1492919922,     -127.9449462891
1494036409.9677579403,       -0.5332031250,        0.3437500000,       -0.0893554688,       20.4620361328,       -6.5917968750,     -128.3874511719
1494036409.9703099728,       -0.5332031250,        0.3437500000,       -0.0893554688,       20.4620361328,       -6.5917968750,     -128.3874511719
1494036409.9728701115,       -0.5620117188,        0.3740234375,       -0.0859375000,       21.8505859375,       -6.5307617188,     -128.8146972656
1494036409.9755320549,       -0.5620117188,        0.3740234375,       -0.0859375000,       21.8505859375,       -6.5307617188,     -128.8146972656
1494036409.9780900478,       -0.5620117188,        0.3740234375,       -0.0859375000,       23.0102539062,       -6.4239501953,     -128.5095214844
1494036409.9806449413,       -0.5620117188,        0.3740234375,       -0.0859375000,       23.0102539062,       -6.4239501953,     -128.5095214844
1494036409.9833099842,       -0.5976562500,        0.4116210938,       -0.0834960938,       24.3072509766,       -5.9814453125,     -127.9907226562
1494036409.9860041142,       -0.5976562500,        0.4116210938,       -0.0834960938,       24.3072509766,       -5.9814453125,     -127.9907226562
1494036409.9886989594,       -0.5976562500,        0.4116210938,       -0.0834960938,       25.0854492188,       -5.7678222656,     -127.1057128906
1494036409.9913890362,       -0.5976562500,        0.4116210938,       -0.0834960938,       25.0854492188,       -5.7678222656,     -127.1057128906
1494036409.9940590858,       -0.6264648438,        0.4252929688,       -0.0893554688,       26.0314941406,       -5.5694580078,     -125.5187988281
1494036409.9966158867,       -0.6264648438,        0.4252929688,       -0.0893554688,       26.0314941406,       -5.5694580078,     -125.5187988281
1494036409.9991691113,       -0.6264648438,        0.4252929688,       -0.0893554688,       25.4364013672,       -5.1879882812,     -123.2452392578
1494036410.0017220974,       -0.6264648438,        0.4252929688,       -0.0893554688,       25.4364013672,       -5.1879882812,     -123.2452392578
1494036410.0043559074,       -0.6430664062,        0.4345703125,       -0.0888671875,       25.4364013672,       -4.9896240234,     -121.0021972656
1494036410.0070540905,       -0.6430664062,        0.4345703125,       -0.0888671875,       24.8565673828,       -4.9896240234,     -121.0021972656
1494036410.0097510815,       -0.6430664062,        0.4345703125,       -0.0888671875,       24.8565673828,       -4.5928955078,     -118.1335449219
1494036410.0124440193,       -0.6430664062,        0.4345703125,       -0.1030273438,       23.3306884766,       -4.5928955078,     -118.1335449219
1494036410.0151569843,       -0.6601562500,        0.4584960938,       -0.1030273438,       23.3306884766,       -4.3029785156,     -114.8376464844
1494036410.0178499222,       -0.6601562500,        0.4584960938,       -0.1030273438,       21.5606689453,       -4.3029785156,     -114.8376464844
1494036410.0205481052,       -0.6601562500,        0.4584960938,       -0.1030273438,       21.5606689453,       -4.1046142578,     -111.2670898438
1494036410.0234270096,       -0.6752929688,        0.4541015625,       -0.1010742188,       19.0582275391,       -4.1046142578,     -111.2670898438
1494036410.0261230469,       -0.6752929688,        0.4541015625,       -0.1010742188,       19.0582275391,       -3.7689208984,     -107.7423095703
1494036410.0288169384,       -0.6752929688,        0.4541015625,       -0.1010742188,       16.3574218750,       -3.7689208984,     -107.7423095703
1494036410.0315120220,       -0.6752929688,        0.4541015625,       -0.1010742188,       16.3574218750,       -3.8299560547,     -103.7139892578
1494036410.0342099667,       -0.6884765625,        0.4755859375,       -0.0986328125,       14.6942138672,       -3.8299560547,     -103.7139892578
1494036410.0369050503,       -0.6884765625,        0.4755859375,       -0.0986328125,       14.6942138672,       -3.9367675781,     -100.3417968750
1494036410.0395960808,       -0.6884765625,        0.4755859375,       -0.0986328125,       13.8092041016,       -3.9367675781,     -100.3417968750
1494036410.0422809124,       -0.6884765625,        0.4755859375,       -0.0986328125,       13.8092041016,       -0.0305175781,      -96.4813232422
1494036410.0449039936,       -0.6904296875,        0.4882812500,       -0.0854492188,       12.1917724609,       -3.5400390625,      -96.4813232422
1494036410.0474569798,       -0.6904296875,        0.4882812500,       -0.0854492188,       12.1917724609,       -3.5400390625,      -92.1325683594
1494036410.0500059128,       -0.6904296875,        0.4882812500,       -0.0854492188,       11.0168457031,       -3.5400390625,      -92.1325683594
1494036410.0525619984,       -0.6904296875,        0.4882812500,       -0.0605468750,       11.0168457031,       -3.5400390625,      -88.2263183594
1494036410.0552759171,       -0.6933593750,        0.4692382812,       -0.0605468750,        9.6282958984,       -3.3416748047,      -88.0584716797
1494036410.0579719543,       -0.6933593750,        0.4692382812,       -0.0605468750,        9.6282958984,       -3.3416748047,      -84.1522216797
1494036410.0606660843,       -0.6933593750,        0.4692382812,       -0.0605468750,        7.8430175781,       -3.2196044922,      -83.6791992188
1494036410.0634040833,       -0.6933593750,        0.4716796875,       -0.0688476562,        7.8430175781,       -3.2196044922,      -79.7729492188
1494036410.0660920143,       -0.6928710938,        0.4716796875,       -0.0688476562,        5.7525634766,       -2.6702880859,      -79.9713134766
1494036410.0687820911,       -0.6928710938,        0.4716796875,       -0.0688476562,        5.7525634766,       -2.6702880859,      -79.9713134766
1494036410.0714700222,       -0.6928710938,        0.4716796875,       -0.0688476562,        2.3956298828,       -2.0294189453,      -76.4617919922
1494036410.0741679668,       -0.6933593750,        0.4848632812,       -0.0698242188,        2.3956298828,       -2.0294189453,      -76.4617919922
1494036410.0768580437,       -0.6933593750,        0.4848632812,       -0.0698242188,       -0.5645751953,       -0.7171630859,      -72.1282958984
1494036410.0795459747,       -0.6933593750,        0.4848632812,       -0.0698242188,       -0.5645751953,       -0.7171630859,      -72.1282958984
1494036410.0822379589,       -0.6933593750,        0.4848632812,       -0.0698242188,       -2.8533935547,        1.4495849609,      -67.0318603516
1494036410.0848629475,       -0.6689453125,        0.5351562500,       -0.0751953125,       -2.8533935547,        1.4495849609,      -67.0318603516
1494036410.0874149799,       -0.6689453125,        0.5351562500,       -0.0751953125,       -4.9133300781,        1.9378662109,      -61.5997314453
1494036410.0899660587,       -0.6689453125,        0.5351562500,       -0.0751953125,       -4.9133300781,        1.9378662109,      -61.5997314453
1494036410.0925130844,       -0.6689453125,        0.5351562500,       -0.0751953125,       -7.3547363281,        1.7852783203,      -56.0760498047
1494036410.0952730179,       -0.6474609375,        0.5366210938,       -0.0659179688,       -7.3547363281,        1.7852783203,      -56.0760498047
1494036410.0980749130,       -0.6474609375,        0.5366210938,       -0.0659179688,      -10.4522705078,        1.4953613281,      -52.1850585938
1494036410.1007781029,       -0.6474609375,        0.5366210938,       -0.0659179688,      -10.4522705078,        1.4953613281,      -52.1850585938
1494036410.1034829617,       -0.6474609375,        0.5092773438,       -0.0610351562,      -13.3209228516,        1.6632080078,      -49.1485595703
1494036410.1061758995,       -0.6518554688,        0.5092773438,       -0.0610351562,      -13.3209228516,        1.6632080078,      -49.1485595703
1494036410.1088678837,       -0.6518554688,        0.5092773438,       -0.0610351562,      -14.8162841797,        3.2501220703,      -45.0744628906
1494036410.1115639210,       -0.6518554688,        0.5092773438,       -0.0610351562,      -14.8162841797,        3.2501220703,      -45.0744628906
1494036410.1142730713,       -0.7929687500,        0.6181640625,       -0.1347656250,      -12.5885009766,        6.0577392578,      -39.0319824219
1494036410.1169629097,       -0.7929687500,        0.6181640625,       -0.1347656250,      -12.5885009766,        6.0577392578,      -39.0319824219
1494036410.1196529865,       -0.7929687500,        0.6181640625,       -0.1347656250,      -16.5557861328,        8.7738037109,      -28.2135009766
1494036410.1223471165,       -0.7929687500,        0.6181640625,       -0.1347656250,      -16.5557861328,        8.7738037109,      -28.2135009766
1494036410.1250851154,       -0.9941406250,        0.9560546875,       -0.0908203125,      -30.0445556641,       10.5590820312,      -11.7492675781
1494036410.1277840137,       -0.9941406250,        0.9560546875,       -0.0908203125,      -30.0445556641,       10.5590820312,      -11.7492675781
1494036410.1304800510,       -0.9941406250,        0.9560546875,       -0.0908203125,      -45.9442138672,        8.0871582031,        4.0283203125
1494036410.1331830025,       -0.9941406250,        0.9560546875,        0.1591796875,      -45.9442138672,        8.0871582031,        4.0283203125
1494036410.1357390881,       -1.0761718750,        1.0131835938,        0.1362304688,      -58.7158203125,        2.5482177734,       13.0157470703
1494036410.1382889748,       -1.0761718750,        1.0131835938,        0.1362304688,      -58.7158203125,        2.5482177734,       13.0157470703
1494036410.1408379078,       -1.0761718750,        1.0131835938,        0.1362304688,      -62.1185302734,       -0.7324218750,       14.2974853516
1494036410.1434528828,       -1.0761718750,        1.0131835938,        0.1201171875,      -62.1185302734,       -0.7324218750,       14.2974853516
1494036410.1462149620,       -1.0683593750,        0.5957031250,        0.1201171875,      -53.0090332031,       -2.3040771484,       11.5509033203
1494036410.1487770081,       -1.0683593750,        0.5957031250,        0.1201171875,      -53.0090332031,       -2.3040771484,       11.5509033203
1494036410.1513381004,       -1.0683593750,        0.5957031250,        0.1201171875,      -53.0090332031,       -4.2266845703,       11.6424560547
1494036410.1540150642,       -1.0683593750,        0.2622070312,        0.0429687500,      -38.5589599609,       -4.2266845703,       11.6424560547
1494036410.1566739082,       -0.8950195312,        0.2622070312,        0.0429687500,      -38.5589599609,       -5.6610107422,       15.3808593750
1494036410.1594460011,       -0.8950195312,        0.2622070312,        0.0429687500,      -24.5208740234,       -5.6610107422,       15.3808593750
1494036410.1629059315,       -0.8950195312,        0.2622070312,        0.0429687500,      -13.2293701172,       -5.8898925781,       21.3317871094
1494036410.1656119823,       -0.7812500000,        0.2177734375,       -0.0249023438,      -13.2293701172,       -5.8898925781,       21.3317871094
1494036410.1683030128,       -0.7812500000,        0.2177734375,       -0.0249023438,       -2.0904541016,       -4.8675537109,       24.6734619141
1494036410.1711070538,       -0.7812500000,        0.2177734375,       -0.0249023438,       -2.0904541016,       -4.8675537109,       24.6734619141
1494036410.1737759113,       -0.7812500000,        0.2177734375,       -0.0971679688,        7.9650878906,       -3.0517578125,       25.1159667969
1494036410.1763260365,       -0.6748046875,        0.1445312500,       -0.0971679688,        7.9650878906,       -3.0517578125,       25.1159667969
1494036410.1788868904,       -0.6748046875,        0.1445312500,       -0.0971679688,       14.0533447266,       -1.0375976562,       24.2309570312
1494036410.1814420223,       -0.6748046875,        0.1445312500,       -0.0971679688,       14.0533447266,       -1.0375976562,       24.2309570312
1494036410.1840910912,       -0.6748046875,        0.0195312500,       -0.1372070312,       17.9595947266,        0.0762939453,       23.1018066406
1494036410.1867959499,       -0.5932617188,        0.0830078125,       -0.1372070312,       17.7154541016,        0.0762939453,       23.1018066406
1494036410.1894969940,       -0.5932617188,        0.0830078125,       -0.1372070312,       17.7154541016,        0.0457763672,       21.5454101562
1494036410.1921958923,       -0.5932617188,        0.0830078125,       -0.1372070312,       19.2108154297,        0.0457763672,       21.5454101562
1494036410.1948299408,       -0.5942382812,        0.0600585938,       -0.1469726562,       19.2108154297,        0.1983642578,       19.9279785156
1494036410.1973850727,       -0.5942382812,        0.0600585938,       -0.1469726562,       16.3726806641,        0.1983642578,       19.9279785156
1494036410.1999380589,       -0.5942382812,        0.0600585938,       -0.1469726562,       16.3726806641,        0.1983642578,       19.0582275391
1494036410.2024989128,       -0.5942382812,        0.0600585938,       -0.1469726562,        9.5825195312,        1.0986328125,       19.0582275391
1494036410.2051389217,       -0.6552734375,        0.1284179688,       -0.0922851562,        9.5825195312,        1.0986328125,       19.0582275391
1494036410.2076969147,       -0.6552734375,        0.1284179688,       -0.0922851562,        1.7089843750,        1.3885498047,       19.1040039062
1494036410.2102470398,       -0.6552734375,        0.1284179688,       -0.0922851562,        1.7089843750,        1.3885498047,       19.1040039062
1494036410.2128019333,       -0.6552734375,        0.1284179688,       -0.0922851562,       -3.8757324219,        1.8005371094,       20.2026367188
1494036410.2156140804,       -0.7036132812,        0.2202148438,       -0.0253906250,       -3.8757324219,        1.8005371094,       20.2026367188
1494036410.2183089256,       -0.7036132812,        0.2202148438,       -0.0253906250,       -7.2479248047,        1.5411376953,       21.3928222656
1494036410.2210009098,       -0.7036132812,        0.2202148438,       -0.0253906250,       -7.2479248047,        1.5411376953,       21.3928222656
1494036410.2236800194,       -0.7036132812,        0.2202148438,       -0.0253906250,       -9.1857910156,        0.4730224609,       22.3541259766
1494036410.2262339592,       -0.7558593750,        0.2265625000,        0.0068359375,       -9.1857910156,        0.4730224609,       22.3541259766
1494036410.2287940979,       -0.7558593750,        0.2265625000,        0.0068359375,      -10.1470947266,       -0.4272460938,       23.2086181641
1494036410.2313480377,       -0.7558593750,        0.2265625000,        0.0068359375,      -10.1470947266,       -0.4272460938,       23.2086181641
1494036410.2339661121,       -0.7558593750,        0.2265625000,       -0.1181640625,      -11.2915039062,       -1.1138916016,       24.5056152344
1494036410.2366580963,       -0.7758789062,        0.2055664062,       -0.0058593750,      -11.2915039062,       -1.1138916016,       24.5056152344
1494036410.2393589020,       -0.7758789062,        0.2055664062,       -0.0058593750,      -14.5416259766,       -1.0986328125,       25.6500244141
1494036410.2420630455,       -0.7758789062,        0.2055664062,       -0.0058593750,      -14.5416259766,       -1.0986328125,       25.6500244141
1494036410.2448821068,       -0.7758789062,        0.1650390625,       -0.0146484375,      -18.9971923828,       -0.6713867188,       26.7181396484
1494036410.2475879192,       -0.7592773438,        0.1650390625,       -0.0146484375,      -18.9971923828,       -0.6713867188,       26.7181396484
1494036410.2502961159,       -0.7592773438,        0.1650390625,       -0.0146484375,      -23.7274169922,        0.3814697266,       27.7709960938
1494036410.2529940605,       -0.7592773438,        0.1650390625,       -0.0146484375,      -23.7274169922,        0.3814697266,       27.7709960938
1494036410.2557079792,       -0.7260742188,        0.1479492188,       -0.0195312500,      -28.4576416016,        1.3885498047,       29.0832519531
1494036410.2583940029,       -0.7260742188,        0.1479492188,       -0.0195312500,      -28.4576416016,        1.3885498047,       29.0832519531
1494036410.2610890865,       -0.7260742188,        0.1479492188,       -0.0195312500,      -32.5927734375,        2.1972656250,       29.8614501953
1494036410.2637979984,       -0.7260742188,        0.1479492188,       -0.0195312500,      -32.5927734375,        2.1972656250,       29.8614501953
1494036410.2664959431,       -0.6894531250,        0.1572265625,       -0.0522460938,      -35.1715087891,        2.4719238281,       30.6396484375
1494036410.2692420483,       -0.6894531250,        0.1572265625,       -0.0522460938,      -35.1715087891,        2.4719238281,       30.6396484375
1494036410.2719790936,       -0.6894531250,        0.1572265625,       -0.0522460938,      -34.7747802734,        2.4871826172,       31.7077636719
1494036410.2746119499,       -0.6894531250,        0.1572265625,       -0.0654296875,      -34.7747802734,        2.4871826172,       31.7077636719
1494036410.2771649361,       -0.6987304688,        0.1914062500,       -0.0654296875,      -33.8745117188,        2.3193359375,       32.9742431641
1494036410.2797169685,       -0.6987304688,        0.1914062500,       -0.0654296875,      -33.8745117188,        2.3193359375,       32.9742431641
1494036410.2822690010,       -0.6987304688,        0.1914062500,       -0.0654296875,      -32.5164794922,        2.0904541016,       34.0118408203
1494036410.2849380970,       -0.6987304688,        0.1914062500,       -0.0722656250,      -32.5164794922,        2.0904541016,       34.0118408203
1494036410.2876300812,       -0.7094726562,        0.2192382812,       -0.0722656250,      -30.0445556641,        1.6937255859,       34.6679687500
1494036410.2903261185,       -0.7094726562,        0.2192382812,       -0.0722656250,      -30.0445556641,        1.6937255859,       34.6679687500
1494036410.2930250168,       -0.7094726562,        0.2192382812,       -0.0722656250,      -30.0445556641,        0.9765625000,       35.3240966797
1494036410.2957329750,       -0.7197265625,        0.2304687500,       -0.0581054688,      -27.8625488281,        0.9765625000,       35.3240966797
1494036410.2984330654,       -0.7197265625,        0.2304687500,       -0.0581054688,      -23.9562988281,        0.3662109375,       35.9039306641
1494036410.3011300564,       -0.7197265625,        0.2304687500,       -0.0581054688,      -24.8565673828,        0.3662109375,       35.9039306641
1494036410.3038480282,       -0.7197265625,        0.2304687500,       -0.0581054688,      -20.9503173828,        0.0762939453,       36.4990234375
1494036410.3064041138,       -0.7236328125,        0.2529296875,       -0.0747070312,      -22.7355957031,        0.0762939453,       36.4990234375
1494036410.3089599609,       -0.7236328125,        0.2529296875,       -0.0747070312,      -22.7355957031,       -3.8299560547,       36.4685058594
1494036410.3115129471,       -0.7236328125,        0.2529296875,       -0.0747070312,      -20.2941894531,       -0.3662109375,       36.4685058594
1494036410.3142020702,       -0.7236328125,        0.2529296875,       -0.0747070312,      -20.2941894531,       -0.3662109375,       36.5753173828
1494036410.3167610168,       -0.7172851562,        0.2656250000,       -0.0664062500,      -18.4631347656,       -0.9765625000,       36.5753173828
1494036410.3194270134,       -0.7172851562,        0.2656250000,       -0.0664062500,      -18.4631347656,       -0.9765625000,       36.5753173828
1494036410.3219819069,       -0.7172851562,        0.2656250000,       -0.0664062500,      -17.7307128906,       -1.4953613281,       36.3006591797
1494036410.3245689869,       -0.7172851562,        0.2656250000,       -0.0664062500,      -17.7307128906,       -1.4953613281,       36.3006591797
1494036410.3271269798,       -0.7104492188,        0.2836914062,       -0.0708007812,      -17.3339843750,       -1.5869140625,       36.2243652344
1494036410.3296859264,       -0.7104492188,        0.2836914062,       -0.0708007812,      -17.3339843750,       -1.5869140625,       36.2243652344
1494036410.3322360516,       -0.7104492188,        0.2836914062,       -0.0708007812,      -17.2576904297,       -1.8463134766,       36.7584228516
1494036410.3349230289,       -0.7104492188,        0.2836914062,       -0.0708007812,      -17.2576904297,       -1.8463134766,       36.7584228516
1494036410.3376240730,       -0.7001953125,        0.2890625000,       -0.0869140625,      -16.5710449219,       -2.7770996094,       37.2467041016
1494036410.3403170109,       -0.7001953125,        0.2890625000,       -0.0869140625,      -16.5710449219,       -2.7770996094,       37.2467041016
1494036410.3430099487,       -0.7001953125,        0.2890625000,       -0.0869140625,      -15.5181884766,       -4.1046142578,       37.1398925781
1494036410.3457109928,       -0.7001953125,        0.2666015625,       -0.0815429688,      -15.5181884766,       -4.1046142578,       37.1398925781
1494036410.3484039307,       -0.6816406250,        0.2666015625,       -0.0815429688,      -15.8233642578,       -5.3558349609,       37.2009277344
1494036410.3510990143,       -0.6816406250,        0.2666015625,       -0.0815429688,      -15.8233642578,       -5.3558349609,       37.2009277344
1494036410.3537960052,       -0.6816406250,        0.2666015625,       -0.0815429688,      -16.0522460938,       -5.7830810547,       36.9567871094
1494036410.3564879894,       -0.6860351562,        0.2436523438,       -0.0820312500,      -16.0522460938,       -5.7830810547,       36.9567871094
1494036410.3591909409,       -0.6860351562,        0.2436523438,       -0.0820312500,      -16.2048339844,       -6.8054199219,       36.9415283203
1494036410.3618910313,       -0.6860351562,        0.2436523438,       -0.0820312500,      -16.2048339844,       -6.8054199219,       36.9415283203
1494036410.3645880222,       -0.6860351562,        0.2436523438,       -0.0820312500,      -17.0440673828,       -7.5683593750,       37.1856689453
1494036410.3672859669,       -0.6855468750,        0.2241210938,       -0.0708007812,      -17.0440673828,       -7.5683593750,       37.1856689453
1494036410.3699820042,       -0.6855468750,        0.2241210938,       -0.0708007812,      -17.8680419922,       -8.4533691406,       37.3840332031
1494036410.3726720810,       -0.6855468750,        0.2241210938,       -0.0708007812,      -17.8680419922,       -8.4533691406,       37.3840332031
1494036410.3752729893,       -0.6855468750,        0.2241210938,       -0.0708007812,      -18.9208984375,       -9.3078613281,       37.4298095703
1494036410.3778269291,       -0.6821289062,        0.2280273438,       -0.0595703125,      -18.9208984375,       -9.3078613281,       37.4298095703
1494036410.3803770542,       -0.6821289062,        0.2280273438,       -0.0595703125,      -20.6146240234,       -9.3383789062,       37.7655029297
1494036410.3829340935,       -0.6821289062,        0.2280273438,       -0.0595703125,      -20.6146240234,       -9.3383789062,       37.7655029297
1494036410.3856220245,       -0.6821289062,        0.2280273438,       -0.0517578125,      -22.8576660156,       -9.0026855469,       38.0096435547
1494036410.3883140087,       -0.7021484375,        0.2548828125,       -0.0517578125,      -22.8576660156,       -9.0026855469,       38.0096435547
1494036410.3911159039,       -0.7021484375,        0.2548828125,       -0.0517578125,      -24.0631103516,       -8.7432861328,       38.4063720703
1494036410.3938119411,       -0.7021484375,        0.2548828125,       -0.0517578125,      -24.0631103516,       -8.7432861328,       38.4063720703
1494036410.3965089321,       -0.7011718750,        0.2915039062,       -0.0532226562,      -24.0325927734,       -8.9569091797,       38.7268066406
1494036410.3992021084,       -0.7011718750,        0.2915039062,       -0.0532226562,      -24.0325927734,       -8.9569091797,       38.7268066406
1494036410.4018990993,       -0.7011718750,        0.2915039062,       -0.0532226562,      -24.0325927734,       -9.3078613281,       39.0319824219
1494036410.4045979977,       -0.7011718750,        0.2915039062,       -0.0532226562,      -23.6816406250,       -9.3078613281,       39.0319824219
1494036410.4072918892,       -0.7021484375,        0.2993164062,       -0.0302734375,      -19.7753906250,      -10.3149414062,       39.1845703125
1494036410.4099891186,       -0.7021484375,        0.2993164062,       -0.0302734375,      -22.7203369141,      -10.3149414062,       39.1845703125
1494036410.4126889706,       -0.7021484375,        0.2993164062,       -0.0302734375,      -22.7203369141,      -10.6964111328,       39.1845703125
1494036410.4153940678,       -0.7021484375,        0.2993164062,       -0.0302734375,      -21.4843750000,      -10.6964111328,       39.1845703125
1494036410.4180929661,       -0.6933593750,        0.2861328125,       -0.0292968750,      -17.5781250000,      -10.8489990234,       39.0167236328
1494036410.4207880497,       -0.6933593750,        0.2861328125,       -0.0292968750,      -19.3939208984,      -10.8489990234,       39.0167236328
1494036410.4234900475,       -0.6933593750,        0.2861328125,       -0.0292968750,      -19.3939208984,      -11.0168457031,       39.2456054688
1494036410.4260439873,       -0.6933593750,        0.2861328125,       -0.0249023438,      -17.6849365234,      -11.0168457031,       39.2456054688
1494036410.4286010265,       -0.6748046875,        0.2714843750,       -0.0249023438,      -17.6849365234,      -11.0168457031,       39.0930175781
1494036410.4311599731,       -0.6748046875,        0.2714843750,       -0.0249023438,      -15.4571533203,      -10.9558105469,       39.0930175781
1494036410.4337570667,       -0.6748046875,        0.2714843750,       -0.0249023438,      -15.4571533203,      -10.9558105469,       38.9251708984
1494036410.4364519119,       -0.6748046875,        0.2578125000,       -0.0249023438,      -13.7939453125,      -10.8184814453,       38.9251708984
1494036410.4391438961,       -0.6518554688,        0.2578125000,       -0.0249023438,      -13.7939453125,      -10.8184814453,       38.9251708984
1494036410.4418399334,       -0.6518554688,        0.2578125000,       -0.0249023438,      -13.0920410156,      -10.8795166016,       38.7420654297
1494036410.4445519447,       -0.6518554688,        0.2578125000,       -0.0249023438,      -13.0920410156,      -10.8795166016,       38.7420654297
1494036410.4472520351,       -0.6435546875,        0.2573242188,       -0.0073242188,      -12.9547119141,      -10.8184814453,       38.8031005859
1494036410.4499530792,       -0.6435546875,        0.2573242188,       -0.0073242188,      -12.9547119141,      -10.8184814453,       38.8031005859
1494036410.4526550770,       -0.6435546875,        0.2573242188,       -0.0073242188,      -13.6718750000,      -10.2386474609,       38.9099121094
1494036410.4553689957,       -0.6435546875,        0.2573242188,       -0.0073242188,      -13.6718750000,      -10.2386474609,       38.9099121094
1494036410.4580669403,       -0.6630859375,        0.2905273438,       -0.0058593750,      -14.1296386719,      -10.1470947266,       39.0472412109
1494036410.4607679844,       -0.6630859375,        0.2905273438,       -0.0058593750,      -14.1296386719,      -10.1470947266,       42.9534912109
1494036410.4634809494,       -0.6630859375,        0.2905273438,       -0.0058593750,      -14.4042968750,      -10.7421875000,       39.1387939453
1494036410.4662849903,       -0.6630859375,        0.2905273438,       -0.0161132812,      -14.4042968750,      -10.7421875000,       35.2325439453
1494036410.4689888954,       -0.6762695312,        0.3193359375,       -0.0161132812,      -14.5263671875,      -10.8947753906,       38.5742187500
1494036410.4716830254,       -0.6762695312,        0.3193359375,       -0.0161132812,      -14.5263671875,      -10.8947753906,       38.5742187500
1494036410.4743320942,       -0.6762695312,        0.3193359375,       -0.0161132812,      -14.2669677734,      -10.5285644531,       37.8265380859
1494036410.4768838882,       -0.6762695312,        0.3237304688,       -0.0429687500,      -14.2669677734,      -10.5285644531,       37.8265380859
1494036410.4794390202,       -0.6689453125,        0.3237304688,       -0.0429687500,      -14.3737792969,      -10.5285644531,       37.0941162109
1494036410.4819979668,       -0.6689453125,        0.3237304688,       -0.0429687500,      -14.3737792969,      -10.5285644531,       37.0941162109
1494036410.4846909046,       -0.6689453125,        0.3237304688,       -0.0429687500,      -14.4500732422,      -11.3830566406,       37.0483398438
1494036410.4873919487,       -0.6513671875,        0.2968750000,       -0.0556640625,      -14.4500732422,      -11.3830566406,       37.0483398438
1494036410.4900910854,       -0.6513671875,        0.2968750000,       -0.0556640625,      -14.6331787109,      -11.6882324219,       36.9262695312
1494036410.4927859306,       -0.6513671875,        0.2968750000,       -0.0556640625,      -14.6331787109,      -11.6882324219,       36.9262695312
1494036410.4954929352,       -0.6513671875,        0.2968750000,       -0.0556640625,      -14.5111083984,      -12.1459960938,       36.3922119141
1494036410.4981911182,       -0.6352539062,        0.2358398438,       -0.0859375000,      -14.5111083984,      -12.1459960938,       36.3922119141
1494036410.5008859634,       -0.6352539062,        0.2358398438,       -0.0859375000,      -15.6250000000,      -11.7645263672,       35.4461669922
1494036410.5035870075,       -0.6352539062,        0.2358398438,       -0.0859375000,      -15.6250000000,      -11.7645263672,       35.4461669922
1494036410.5062859058,       -0.6352539062,        0.2358398438,       -0.0859375000,      -16.4642333984,      -11.3067626953,       34.1644287109
1494036410.5089828968,       -0.6337890625,        0.2617187500,       -0.0512695312,      -16.4642333984,      -11.3067626953,       34.1644287109
1494036410.5116760731,       -0.6337890625,        0.2617187500,       -0.0512695312,      -17.5018310547,      -10.9558105469,       32.8063964844
1494036410.5143339634,       -0.6337890625,        0.2617187500,       -0.0512695312,      -17.5018310547,      -10.9558105469,       32.8063964844
1494036410.5168890953,       -0.6337890625,        0.2617187500,       -0.0327148438,      -18.5852050781,      -11.5051269531,       31.8145751953
1494036410.5194470882,       -0.6704101562,        0.3515625000,       -0.0327148438,      -18.5852050781,      -11.5051269531,       31.8145751953
1494036410.5220038891,       -0.6704101562,        0.3515625000,       -0.0327148438,      -18.2800292969,      -12.0086669922,       30.2734375000
1494036410.5246860981,       -0.6704101562,        0.3515625000,       -0.0327148438,      -18.2800292969,      -12.0086669922,       30.2734375000
1494036410.5273849964,       -0.6704101562,        0.4228515625,       -0.0415039062,      -17.6391601562,      -12.0086669922,       28.0609130859
1494036410.5300850868,       -0.6606445312,        0.4228515625,       -0.0415039062,      -17.6391601562,      -12.0086669922,       28.0609130859
1494036410.5327799320,       -0.6606445312,        0.4228515625,       -0.0415039062,      -18.0053710938,      -12.0697021484,       25.3448486328
1494036410.5354900360,       -0.6606445312,        0.4228515625,       -0.0415039062,      -18.0053710938,      -12.0697021484,       25.3448486328
1494036410.5381860733,       -0.6381835938,        0.4931640625,       -0.0488281250,      -17.4407958984,      -13.3972167969,       23.0255126953
1494036410.5409920216,       -0.6381835938,        0.4931640625,       -0.0488281250,      -17.4407958984,      -13.3972167969,       23.0255126953
1494036410.5436999798,       -0.6381835938,        0.4931640625,       -0.0488281250,      -14.5416259766,      -15.9606933594,       21.1791992188
1494036410.5466339588,       -0.6381835938,        0.4931640625,       -0.0488281250,      -14.5416259766,      -15.9606933594,       21.1791992188
1494036410.5493390560,       -0.6220703125,        0.4819335938,       -0.0776367188,      -11.1541748047,      -17.9443359375,       18.4783935547
1494036410.5520420074,       -0.6220703125,        0.4819335938,       -0.0776367188,      -11.1541748047,      -17.9443359375,       18.4783935547
1494036410.5546801090,       -0.6220703125,        0.4819335938,       -0.0776367188,       -7.6751708984,      -18.7835693359,       16.0217285156
1494036410.5572381020,       -0.6220703125,        0.4819335938,       -0.0625000000,       -7.6751708984,      -18.7835693359,       16.0217285156
1494036410.5597939491,       -0.6215820312,        0.4360351562,       -0.0625000000,       -7.6751708984,      -19.2260742188,       13.4582519531
1494036410.5623478889,       -0.6215820312,        0.4360351562,       -0.0625000000,       -4.7454833984,      -19.2260742188,       13.4582519531
1494036410.5650091171,       -0.6215820312,        0.4360351562,       -0.0625000000,       -4.7454833984,      -19.3481445312,       10.9100341797
1494036410.5677030087,       -0.6215820312,        0.4462890625,       -0.0209960938,       -2.9449462891,      -19.3481445312,       10.9100341797
1494036410.5703940392,       -0.6499023438,        0.4462890625,       -0.0209960938,       -2.9449462891,      -19.7906494141,        8.8958740234
1494036410.5730779171,       -0.6499023438,        0.4462890625,       -0.0209960938,       -1.9378662109,      -19.7906494141,        8.8958740234
1494036410.5757780075,       -0.6499023438,        0.4462890625,       -0.0209960938,       -1.9378662109,      -20.6298828125,        6.3476562500
1494036410.5784690380,       -0.6591796875,        0.4306640625,       -0.0283203125,       -1.5563964844,      -20.6298828125,        6.3476562500
1494036410.5811579227,       -0.6591796875,        0.4306640625,       -0.0283203125,       -1.5563964844,      -20.6298828125,        4.1809082031
1494036410.5838670731,       -0.6591796875,        0.4306640625,       -0.0283203125,       -1.3732910156,      -20.6604003906,        4.1809082031
1494036410.5865640640,       -0.6591796875,        0.4306640625,       -0.0283203125,       -1.3732910156,      -20.6604003906,        1.9683837891
1494036410.5892570019,       -0.6235351562,        0.4169921875,       -0.0312500000,       -1.5563964844,      -19.9127197266,        1.9683837891
1494036410.5919499397,       -0.6235351562,        0.4169921875,       -0.0312500000,       -1.5563964844,      -16.0064697266,       -0.0915527344
1494036410.5946838856,       -0.6235351562,        0.4169921875,       -0.0312500000,       -2.3040771484,      -19.1040039062,       -0.0915527344
1494036410.5973770618,       -0.6235351562,        0.4169921875,       -0.0405273438,       -2.3040771484,      -19.1040039062,       -1.5106201172
1494036410.6000759602,       -0.6059570312,        0.4287109375,       -0.0405273438,       -3.0670166016,      -19.1192626953,       -1.5106201172
1494036410.6027650833,       -0.6059570312,        0.4287109375,       -0.0405273438,       -3.0670166016,      -19.1192626953,       -4.0283203125
1494036410.6053490639,       -0.6059570312,        0.4287109375,       -0.0405273438,       -4.1809082031,      -18.3868408203,       -4.0283203125
1494036410.6078979969,       -0.6059570312,        0.4287109375,       -0.0327148438,       -4.1809082031,      -18.3868408203,       -4.0283203125
1494036410.6104519367,       -0.6298828125,        0.4160156250,       -0.0327148438,       -5.1879882812,      -17.5933837891,       -6.1340332031
1494036410.6131091118,       -0.6298828125,        0.4160156250,       -0.0327148438,       -5.1879882812,      -17.5933837891,       -6.1340332031
1494036410.6157970428,       -0.6298828125,        0.4160156250,       -0.0327148438,       -6.6833496094,      -17.0440673828,       -8.0718994141
1494036410.6184830666,       -0.6840820312,        0.4003906250,        0.0141601562,       -6.6833496094,      -17.0440673828,       -8.0718994141
1494036410.6211678982,       -0.6840820312,        0.4003906250,        0.0141601562,       -8.6059570312,      -17.1051025391,       -9.8724365234
1494036410.6238589287,       -0.6840820312,        0.4003906250,        0.0141601562,       -8.6059570312,      -17.1051025391,       -9.8724365234
1494036410.6265408993,       -0.6840820312,        0.4003906250,        0.0141601562,      -10.0250244141,      -16.7541503906,      -11.3983154297
1494036410.6292290688,       -0.6796875000,        0.3808593750,        0.0708007812,      -10.0250244141,      -16.7541503906,      -11.3983154297
1494036410.6319169998,       -0.6796875000,        0.3808593750,        0.0708007812,      -10.9558105469,      -16.6473388672,      -12.2528076172
1494036410.6345920563,       -0.6796875000,        0.3808593750,        0.0708007812,      -10.9558105469,      -16.6473388672,      -12.2528076172
1494036410.6372480392,       -0.6796875000,        0.3808593750,        0.0708007812,       -9.7503662109,      -16.2963867188,      -13.1988525391
1494036410.6399040222,       -0.6728515625,        0.3833007812,        0.0976562500,       -9.7503662109,      -16.2963867188,      -13.1988525391
1494036410.6425569057,       -0.6728515625,        0.3833007812,        0.0976562500,       -7.9040527344,      -15.9606933594,      -14.3585205078
1494036410.6452949047,       -0.6728515625,        0.3833007812,        0.0976562500,       -7.9040527344,      -15.9606933594,      -14.3585205078
1494036410.6479909420,       -0.6728515625,        0.3833007812,        0.1044921875,       -6.6528320312,      -15.8843994141,      -16.2658691406
1494036410.6506841183,       -0.6474609375,        0.4321289062,        0.1044921875,       -6.6528320312,      -15.8843994141,      -16.2658691406
1494036410.6534280777,       -0.6474609375,        0.4321289062,        0.1044921875,       -4.6691894531,      -15.9759521484,      -18.3563232422
1494036410.6559879780,       -0.6474609375,        0.4321289062,        0.1044921875,       -4.6691894531,      -15.9759521484,      -18.3563232422
1494036410.6585419178,       -0.6474609375,        0.4111328125,        0.0805664062,       -3.0517578125,      -15.7165527344,      -20.0653076172
1494036410.6610949039,       -0.6547851562,        0.4111328125,        0.0805664062,       -3.0517578125,      -15.7165527344,      -20.0653076172
1494036410.6637129784,       -0.6547851562,        0.4111328125,        0.0805664062,       -1.6479492188,      -15.3045654297,      -21.1486816406
1494036410.6664080620,       -0.6547851562,        0.4111328125,        0.0805664062,       -1.6479492188,      -15.3045654297,      -21.1486816406
1494036410.6691029072,       -0.6591796875,        0.3852539062,        0.0751953125,        0.1983642578,      -14.3890380859,      -22.5524902344
1494036410.6718010902,       -0.6591796875,        0.3852539062,        0.0751953125,        0.1983642578,      -14.3890380859,      -22.5524902344
1494036410.6745080948,       -0.6591796875,        0.3852539062,        0.0751953125,        1.2817382812,      -13.0615234375,      -23.6358642578
1494036410.6772029400,       -0.6591796875,        0.3852539062,        0.0751953125,        1.2817382812,      -13.0615234375,      -23.6358642578
1494036410.6798999310,       -0.6645507812,        0.3530273438,        0.1049804688,        2.1972656250,      -11.6119384766,      -25.2838134766
1494036410.6825919151,       -0.6645507812,        0.3530273438,        0.1049804688,        2.1972656250,      -11.6119384766,      -25.2838134766
1494036410.6853001118,       -0.6645507812,        0.3530273438,        0.1049804688,        2.5939941406,      -10.4675292969,      -26.2298583984
1494036410.6881020069,       -0.6645507812,        0.3530273438,        0.1049804688,        2.5939941406,      -10.4675292969,      -26.2298583984
1494036410.6908009052,       -0.6660156250,        0.3344726562,        0.1044921875,        3.8452148438,      -10.3454589844,      -26.7639160156
1494036410.6935050488,       -0.6660156250,        0.3344726562,        0.1044921875,        3.8452148438,      -10.3454589844,      -26.7639160156
1494036410.6962020397,       -0.6660156250,        0.3344726562,        0.1044921875,        4.7607421875,       -9.5672607422,      -26.5350341797
1494036410.6989009380,       -0.6660156250,        0.3217773438,        0.0854492188,        4.7607421875,       -9.5672607422,      -26.5350341797
1494036410.7015919685,       -0.6669921875,        0.3217773438,        0.0854492188,        4.9896240234,       -8.5144042969,      -26.3366699219
1494036410.7042429447,       -0.6669921875,        0.3217773438,        0.0854492188,        4.9896240234,       -8.5144042969,      -26.3366699219
1494036410.7067949772,       -0.6669921875,        0.3217773438,        0.0854492188,        4.9896240234,       -7.3089599609,      -27.0233154297
1494036410.7093429565,       -0.6630859375,        0.3139648438,        0.0903320312,        5.4168701172,       -7.3089599609,      -27.0233154297
1494036410.7118909359,       -0.6630859375,        0.3139648438,        0.0903320312,        5.4168701172,       -6.5307617188,      -26.7791748047
1494036410.7145318985,       -0.6630859375,        0.3139648438,        0.0903320312,        5.8593750000,       -6.5307617188,      -26.7791748047
1494036410.7172279358,       -0.6630859375,        0.3139648438,        0.0903320312,        5.8593750000,       -6.5307617188,      -25.8483886719
1494036410.7199220657,       -0.6567382812,        0.3154296875,        0.0825195312,        7.0495605469,       -6.3018798828,      -25.8483886719
1494036410.7226109505,       -0.6567382812,        0.3154296875,        0.0825195312,        7.0495605469,       -6.3018798828,      -25.1922607422
1494036410.7253170013,       -0.6567382812,        0.3154296875,        0.0825195312,        8.4533691406,       -6.3171386719,      -25.1922607422
1494036410.7280099392,       -0.6567382812,        0.3154296875,        0.0825195312,        8.4533691406,       -6.3171386719,      -24.7802734375
1494036410.7307000160,       -0.6899414062,        0.3305664062,        0.0590820312,        9.9945068359,       -6.1340332031,      -24.7802734375
1494036410.7334499359,       -0.6899414062,        0.3305664062,        0.0590820312,        9.9945068359,       -6.1340332031,      -24.1699218750
1494036410.7361440659,       -0.6899414062,        0.3305664062,        0.0590820312,       10.6811523438,       -5.8441162109,      -24.1699218750
1494036410.7388389111,       -0.6899414062,        0.3305664062,        0.0322265625,       10.6811523438,       -5.8441162109,      -24.2004394531
1494036410.7415349483,       -0.6826171875,        0.3334960938,        0.0322265625,       11.0626220703,       -5.9204101562,      -24.2004394531
1494036410.7442739010,       -0.6826171875,        0.3334960938,        0.0322265625,       11.0626220703,       -5.9204101562,      -24.1546630859
1494036410.7469739914,       -0.6826171875,        0.3334960938,        0.0322265625,       11.3372802734,       -6.3323974609,      -24.1546630859
1494036410.7496700287,       -0.6967773438,        0.3095703125,        0.0122070312,       11.3372802734,       -6.3323974609,      -23.7121582031
1494036410.7523660660,       -0.6967773438,        0.3095703125,        0.0122070312,       11.4898681641,       -6.9274902344,      -23.7121582031
1494036410.7549829483,       -0.6967773438,        0.3095703125,        0.0122070312,       11.4898681641,       -6.9274902344,      -23.2849121094
1494036410.7575409412,       -0.6967773438,        0.3095703125,        0.0122070312,       11.3830566406,       -6.9885253906,      -23.2849121094
1494036410.7600970268,       -0.6923828125,        0.2895507812,        0.0112304688,       11.3830566406,       -6.9885253906,      -23.2849121094
1494036410.7627630234,       -0.6923828125,        0.2895507812,        0.0112304688,       10.6353759766,       -7.1716308594,      -22.7661132812
1494036410.7654879093,       -0.6923828125,        0.2895507812,        0.0112304688,       10.6353759766,       -7.1716308594,      -22.7661132812
1494036410.7681870461,       -0.6923828125,        0.2895507812,        0.0112304688,        9.0484619141,       -8.1329345703,      -22.3693847656
1494036410.7708790302,       -0.6948242188,        0.2988281250,       -0.0078125000,        9.0484619141,       -8.1329345703,      -22.3693847656
1494036410.7735800743,       -0.6948242188,        0.2988281250,       -0.0078125000,        9.1552734375,       -9.0942382812,      -22.1252441406
1494036410.7762699127,       -0.6948242188,        0.2988281250,       -0.0078125000,        9.1552734375,       -9.0942382812,      -22.1252441406
1494036410.7789630890,       -0.6948242188,        0.2988281250,       -0.0180664062,        8.8348388672,       -9.2315673828,      -22.4761962891
1494036410.7816550732,       -0.7167968750,        0.3164062500,       -0.0180664062,        8.8348388672,       -9.2315673828,      -22.4761962891
1494036410.7843639851,       -0.7167968750,        0.3164062500,       -0.0180664062,        7.9498291016,       -9.7808837891,      -22.6745605469
1494036410.7870569229,       -0.7167968750,        0.3164062500,       -0.0180664062,        7.9498291016,       -9.7808837891,      -22.6745605469
1494036410.7897539139,       -0.7167968750,        0.3247070312,       -0.0263671875,        6.9732666016,      -10.2844238281,      -22.0794677734
1494036410.7924480438,       -0.6953125000,        0.3247070312,       -0.0263671875,        6.9732666016,      -10.2844238281,      -22.0794677734
1494036410.7951509953,       -0.6953125000,        0.3247070312,       -0.0263671875,        5.7067871094,      -11.4440917969,      -22.2473144531
1494036410.7978498936,       -0.6953125000,        0.3247070312,       -0.0263671875,        5.7067871094,      -11.4440917969,      -22.2473144531
1494036410.8005490303,       -0.6811523438,        0.3378906250,       -0.0136718750,        5.5084228516,      -11.7950439453,      -22.8881835938
1494036410.8032579422,       -0.6811523438,        0.3378906250,       -0.0136718750,        5.5084228516,      -11.7950439453,      -22.8881835938
1494036410.8058099747,       -0.6811523438,        0.3378906250,       -0.0136718750,        5.7067871094,      -12.0086669922,      -23.0102539062
1494036410.8083651066,       -0.6811523438,        0.3378906250,       -0.0136718750,        5.7067871094,      -12.0086669922,      -23.0102539062
1494036410.8109240532,       -0.6552734375,        0.3325195312,        0.0083007812,        5.8288574219,      -12.7105712891,      -23.1781005859
1494036410.8135170937,       -0.6552734375,        0.3325195312,        0.0083007812,        5.8288574219,      -12.7105712891,      -23.1781005859
1494036410.8162150383,       -0.6552734375,        0.3325195312,        0.0083007812,        6.5460205078,      -14.4805908203,      -23.1781005859
1494036410.8189120293,       -0.6552734375,        0.3325195312,        0.0083007812,        6.5460205078,      -14.4805908203,      -23.1781005859
1494036410.8216059208,       -0.6674804688,        0.3134765625,        0.0268554688,        7.6141357422,      -16.2506103516,      -22.6593017578
1494036410.8243119717,       -0.6674804688,        0.3134765625,        0.0268554688,        7.6141357422,      -16.2506103516,      -22.6593017578
1494036410.8270089626,       -0.6674804688,        0.3134765625,        0.0268554688,        9.2315673828,      -17.1966552734,      -23.0255126953
1494036410.8297080994,       -0.6674804688,        0.3134765625,        0.0087890625,        9.2315673828,      -17.1966552734,      -23.0255126953
1494036410.8324069977,       -0.6972656250,        0.3056640625,        0.0087890625,       10.7269287109,      -17.2271728516,      -23.3764648438
1494036410.8352289200,       -0.6972656250,        0.3056640625,        0.0087890625,       10.7269287109,      -17.2271728516,      -23.3764648438
1494036410.8379271030,       -0.6972656250,        0.3056640625,        0.0087890625,       12.2528076172,      -17.2576904297,      -22.9339599609
1494036410.8406279087,       -0.7045898438,        0.2998046875,        0.0092773438,       12.2528076172,      -17.2576904297,      -22.9339599609
1494036410.8433289528,       -0.7045898438,        0.2998046875,        0.0092773438,       12.7410888672,      -17.3034667969,      -22.3388671875
1494036410.8460309505,       -0.7045898438,        0.2998046875,        0.0092773438,       12.7410888672,      -17.3034667969,      -22.3388671875
1494036410.8487288952,       -0.7045898438,        0.2998046875,        0.0092773438,       12.2222900391,      -17.9443359375,      -22.2473144531
1494036410.8514258862,       -0.6899414062,        0.3208007812,        0.0200195312,       12.2222900391,      -17.9443359375,      -22.2473144531
1494036410.8540980816,       -0.6899414062,        0.3208007812,        0.0200195312,       12.0697021484,      -17.7154541016,      -22.9797363281
1494036410.8566579819,       -0.6899414062,        0.3208007812,        0.0200195312,       12.0697021484,      -17.7154541016,      -22.9797363281
1494036410.8592178822,       -0.6899414062,        0.3208007812,        0.0200195312,       12.9394531250,      -17.1508789062,      -23.1781005859
1494036410.8617789745,       -0.7021484375,        0.3129882812,        0.0341796875,       12.9394531250,      -17.1508789062,      -23.1781005859
1494036410.8644089699,       -0.7021484375,        0.3129882812,        0.0341796875,       12.9394531250,      -16.5405273438,      -23.2238769531
1494036410.8671119213,       -0.7021484375,        0.3129882812,        0.0341796875,       13.8854980469,      -16.5405273438,      -23.2238769531
1494036410.8698070049,       -0.7021484375,        0.3129882812,        0.0561523438,       13.8854980469,      -16.1743164062,      -23.8494873047
1494036410.8725039959,       -0.6811523438,        0.3090820312,        0.0561523438,       14.4653320312,      -16.1743164062,      -23.8494873047
1494036410.8752028942,       -0.6811523438,        0.3090820312,        0.0561523438,       14.4653320312,      -15.5181884766,      -23.9105224609
1494036410.8779010773,       -0.6811523438,        0.3090820312,        0.0561523438,       14.2517089844,      -15.5181884766,      -23.9105224609
1494036410.8806018829,       -0.6811523438,        0.3251953125,        0.0722656250,       14.2517089844,      -15.4724121094,      -23.9410400391
1494036410.8833100796,       -0.6704101562,        0.3251953125,        0.0722656250,       14.2974853516,      -15.4724121094,      -23.9410400391
1494036410.8860120773,       -0.6704101562,        0.3251953125,        0.0722656250,       14.2974853516,      -15.4724121094,      -24.3225097656
1494036410.8887031078,       -0.6704101562,        0.3251953125,        0.0722656250,       15.8843994141,      -15.2130126953,      -24.3225097656
1494036410.8914020061,       -0.6923828125,        0.3081054688,        0.0654296875,       15.8843994141,      -15.2130126953,      -24.9633789062
1494036410.8941850662,       -0.6923828125,        0.3081054688,        0.0654296875,       17.9901123047,      -14.3432617188,      -24.9633789062
1494036410.8967609406,       -0.6923828125,        0.3081054688,        0.0654296875,       17.9901123047,      -14.3432617188,      -26.2756347656
1494036410.8993229866,       -0.6923828125,        0.3081054688,        0.0654296875,       18.1427001953,      -13.6413574219,      -26.2756347656
1494036410.9018850327,       -0.7202148438,        0.2773437500,        0.0527343750,       18.1427001953,      -13.6413574219,      -27.5878906250
1494036410.9045820236,       -0.7202148438,        0.2773437500,        0.0527343750,       16.6320800781,      -12.7868652344,      -27.5878906250
1494036410.9071431160,       -0.7202148438,        0.2773437500,        0.0527343750,       16.6320800781,      -12.7868652344,      -27.5878906250
1494036410.9099190235,       -0.7202148438,        0.2773437500,        0.0527343750,       14.4958496094,      -12.5579833984,      -27.8320312500
1494036410.9132890701,       -0.6987304688,        0.2675781250,        0.0434570312,       14.4958496094,      -12.1154785156,      -27.2827148438
1494036410.9159989357,       -0.6987304688,        0.2675781250,        0.0434570312,       11.8865966797,      -12.1154785156,      -27.2827148438
1494036410.9186999798,       -0.6987304688,        0.2675781250,        0.0434570312,       11.8865966797,      -11.7340087891,      -26.2298583984
1494036410.9213979244,       -0.6904296875,        0.2685546875,        0.0322265625,       10.6506347656,      -11.7340087891,      -26.2298583984
1494036410.9241089821,       -0.6904296875,        0.2685546875,        0.0322265625,       10.6506347656,       -7.8277587891,      -25.2990722656
1494036410.9268040657,       -0.6904296875,        0.2685546875,        0.0322265625,       10.8337402344,      -11.2152099609,      -25.2990722656
1494036410.9295079708,       -0.6904296875,        0.2685546875,        0.0322265625,       10.8337402344,      -11.2152099609,      -24.3988037109
1494036410.9322121143,       -0.6772460938,        0.2568359375,        0.0439453125,       10.9710693359,      -10.7574462891,      -24.3988037109
1494036410.9348359108,       -0.6772460938,        0.2568359375,        0.0439453125,       10.9710693359,      -10.7574462891,      -23.9562988281
1494036410.9373970032,       -0.6772460938,        0.2568359375,        0.0439453125,       10.6048583984,       -9.4299316406,      -23.9562988281
1494036410.9399540424,       -0.6772460938,        0.2568359375,        0.0439453125,       10.6048583984,       -9.4299316406,      -23.9562988281
1494036410.9425079823,       -0.6845703125,        0.2280273438,        0.0810546875,        9.6282958984,       -7.8582763672,      -23.5443115234
1494036410.9451799393,       -0.6845703125,        0.2280273438,        0.0810546875,        9.6282958984,       -7.8582763672,      -23.5443115234
1494036410.9477279186,       -0.6845703125,        0.2280273438,        0.0810546875,        9.2010498047,       -6.6375732422,      -23.1170654297
1494036410.9502809048,       -0.6845703125,        0.2280273438,        0.0810546875,        9.2010498047,       -6.6375732422,      -23.1170654297
1494036410.9528419971,       -0.6821289062,        0.1987304688,        0.1010742188,        8.8958740234,       -5.9967041016,      -22.0947265625
1494036410.9554090500,       -0.6821289062,        0.1987304688,        0.1010742188,        8.8958740234,       -5.9967041016,      -22.0947265625
1494036410.9579598904,       -0.6821289062,        0.1987304688,        0.1010742188,        8.3618164062,       -6.2866210938,      -21.4843750000
1494036410.9605209827,       -0.6821289062,        0.1987304688,        0.1010742188,        8.3618164062,       -6.2866210938,      -21.4843750000
1494036410.9630711079,       -0.6801757812,        0.2309570312,        0.0751953125,        8.8043212891,       -6.4544677734,      -20.7366943359
1494036410.9657618999,       -0.6801757812,        0.2309570312,        0.0751953125,        8.8043212891,       -6.4544677734,      -20.7366943359
1494036410.9683120251,       -0.6801757812,        0.2309570312,        0.0751953125,        9.6588134766,       -4.7912597656,      -19.7753906250
1494036410.9708619118,       -0.6801757812,        0.2309570312,        0.0600585938,        9.6588134766,       -4.7912597656,      -19.7753906250
1494036410.9735810757,       -0.6997070312,        0.2221679688,        0.0600585938,        9.5214843750,       -3.4637451172,      -18.6920166016
1494036410.9762771130,       -0.6997070312,        0.2221679688,        0.0600585938,        9.5214843750,       -3.4637451172,      -18.6920166016
1494036410.9789769650,       -0.6997070312,        0.2221679688,        0.0600585938,        8.3770751953,       -2.5329589844,      -17.5781250000
1494036410.9816799164,       -0.6977539062,        0.2260742188,        0.0893554688,        8.3770751953,       -2.5329589844,      -17.5781250000
1494036410.9844899178,       -0.6977539062,        0.2260742188,        0.0893554688,        5.9051513672,       -1.9226074219,      -16.6625976562
1494036410.9871950150,       -0.6977539062,        0.2260742188,        0.0893554688,        5.9051513672,       -1.9226074219,      -16.6625976562
1494036410.9898929596,       -0.6977539062,        0.2260742188,        0.0893554688,        4.3640136719,       -1.3732910156,      -16.2658691406
1494036410.9925858974,       -0.6928710938,        0.2280273438,        0.0957031250,        4.3640136719,       -1.3732910156,      -16.2658691406
1494036410.9951870441,       -0.6928710938,        0.2280273438,        0.0957031250,        4.3640136719,       -0.5493164062,      -15.6402587891
1494036410.9977390766,       -0.6928710938,        0.2280273438,        0.0957031250,        4.6539306641,       -0.5493164062,      -15.6402587891
1494036411.0002889633,       -0.6928710938,        0.2280273438,        0.0957031250,        4.6539306641,       -0.5493164062,      -14.8620605469
1494036411.0028409958,       -0.6875000000,        0.2353515625,        0.0839843750,        4.6691894531,       -0.1068115234,      -14.8620605469
1494036411.0054080486,       -0.6875000000,        0.2353515625,        0.0839843750,        4.6691894531,       -0.1068115234,      -13.9007568359
1494036411.0079629421,       -0.6875000000,        0.2353515625,        0.0839843750,        5.4321289062,        0.1373291016,      -13.9007568359
1494036411.0105159283,       -0.6875000000,        0.2353515625,        0.0839843750,        5.4321289062,        0.1373291016,      -13.9007568359
1494036411.0130710602,       -0.6845703125,        0.2465820312,        0.0590820312,        6.1035156250,        0.1220703125,      -13.1988525391
1494036411.0157279968,       -0.6845703125,        0.2465820312,        0.0590820312,        6.1035156250,        0.1220703125,      -13.1988525391
1494036411.0182828903,       -0.6845703125,        0.2465820312,        0.0590820312,        6.7749023438,        0.1068115234,      -12.9394531250
1494036411.0208420753,       -0.6845703125,        0.2465820312,        0.0590820312,        6.7749023438,        0.1068115234,      -12.9394531250
1494036411.0234770775,       -0.7099609375,        0.2250976562,        0.0307617188,        7.6904296875,        0.1525878906,      -12.6037597656
1494036411.0261719227,       -0.7099609375,        0.2250976562,        0.0307617188,        7.6904296875,        0.1525878906,      -12.6037597656
1494036411.0288720131,       -0.7099609375,        0.2250976562,        0.0307617188,        6.9580078125,        1.0833740234,      -11.3983154297
1494036411.0316560268,       -0.7099609375,        0.1728515625,        0.0327148438,        6.9580078125,        1.0833740234,      -11.3983154297
1494036411.0343549252,       -0.7260742188,        0.1728515625,        0.0327148438,        6.2255859375,        1.9836425781,      -10.0097656250
1494036411.0370469093,       -0.7260742188,        0.1728515625,        0.0327148438,        6.2255859375,        1.9836425781,      -10.0097656250
1494036411.0397329330,       -0.7260742188,        0.1728515625,        0.0327148438,        4.0283203125,        2.2430419922,       -8.8195800781
1494036411.0424230099,       -0.7280273438,        0.1655273438,        0.0664062500,        4.0283203125,        2.2430419922,       -8.8195800781
1494036411.0450301170,       -0.7280273438,        0.1655273438,        0.0664062500,        0.5035400391,        3.0822753906,       -7.8277587891
1494036411.0475769043,       -0.7280273438,        0.1655273438,        0.0664062500,        0.5035400391,        3.0822753906,       -7.8277587891
1494036411.0501239300,       -0.7280273438,        0.1655273438,        0.0664062500,       -2.2125244141,        3.5400390625,       -6.7901611328
1494036411.0526709557,       -0.6953125000,        0.2163085938,        0.0805664062,       -2.2125244141,        3.5400390625,       -6.7901611328
1494036411.0553309917,       -0.6953125000,        0.2163085938,        0.0805664062,       -4.4097900391,        3.6621093750,       -6.4239501953
1494036411.0578820705,       -0.6953125000,        0.2163085938,        0.0805664062,       -4.4097900391,        3.6621093750,       -6.4239501953
1494036411.0604319572,       -0.6953125000,        0.2163085938,        0.0805664062,       -4.4097900391,        3.6926269531,       -6.1645507812
1494036411.0629839897,       -0.6684570312,        0.2290039062,        0.0991210938,       -5.1727294922,        3.6926269531,       -6.1645507812
1494036411.0655748844,       -0.6684570312,        0.2290039062,        0.0991210938,       -5.1727294922,        3.6926269531,       -5.8746337891
1494036411.0681250095,       -0.6684570312,        0.2290039062,        0.0991210938,       -5.5847167969,        3.4484863281,       -5.8746337891
1494036411.0706748962,       -0.6684570312,        0.2290039062,        0.0991210938,       -5.5847167969,        3.4484863281,       -5.8746337891
1494036411.0733048916,       -0.6660156250,        0.2236328125,        0.1274414062,       -7.1868896484,        2.6092529297,       -5.9814453125
1494036411.0758559704,       -0.6660156250,        0.2236328125,        0.1274414062,       -7.1868896484,        2.6092529297,       -5.9814453125
1494036411.0783989429,       -0.6660156250,        0.2236328125,        0.1274414062,       -9.0179443359,        1.8005371094,       -5.6762695312
1494036411.0809459686,       -0.6660156250,        0.2236328125,        0.1274414062,       -9.0179443359,        1.8005371094,       -5.6762695312
1494036411.0835969448,       -0.6596679688,        0.2031250000,        0.1503906250,       -9.9792480469,        1.8463134766,       -5.0048828125
1494036411.0862829685,       -0.6596679688,        0.2031250000,        0.1503906250,       -9.9792480469,        1.8463134766,       -5.0048828125
1494036411.0889770985,       -0.6596679688,        0.2031250000,        0.1503906250,      -11.0168457031,        2.2888183594,       -4.7912597656
1494036411.0916669369,       -0.6596679688,        0.2031250000,        0.0253906250,      -11.0168457031,        2.2888183594,       -4.7912597656
1494036411.0943269730,       -0.6660156250,        0.2460937500,        0.1215820312,      -11.9171142578,        2.6245117188,       -4.5471191406
1494036411.0968821049,       -0.6660156250,        0.2460937500,        0.1215820312,      -11.9171142578,        2.6245117188,       -4.5471191406
1494036411.0994389057,       -0.6660156250,        0.2460937500,        0.1215820312,      -12.2985839844,        2.8381347656,       -4.1046142578
1494036411.1019930840,       -0.6660156250,        0.2460937500,        0.0712890625,      -12.2985839844,        2.8381347656,       -4.1046142578
1494036411.1046750546,       -0.6992187500,        0.2670898438,        0.0712890625,      -10.1623535156,        2.3498535156,       -3.6468505859
1494036411.1073720455,       -0.6992187500,        0.2670898438,        0.0712890625,      -10.1623535156,        2.3498535156,       -3.6468505859
1494036411.1100668907,       -0.6992187500,        0.2670898438,        0.0712890625,       -6.9427490234,        2.5024414062,       -3.1738281250
1494036411.1127500534,       -0.6992187500,        0.2324218750,        0.0444335938,       -6.9427490234,        2.5024414062,       -3.1738281250
1494036411.1154890060,       -0.7353515625,        0.2324218750,        0.0444335938,       -4.4708251953,        3.3721923828,       -2.4871826172
1494036411.1181740761,       -0.7353515625,        0.2324218750,        0.0444335938,       -4.4708251953,        3.3721923828,       -2.4871826172
1494036411.1208579540,       -0.7353515625,        0.2324218750,        0.0444335938,       -4.4708251953,        4.0283203125,       -1.9531250000
1494036411.1235580444,       -0.7348632812,        0.2167968750,       -0.0004882812,       -4.4708251953,        4.0283203125,       -1.9531250000
1494036411.1262409687,       -0.7348632812,        0.2167968750,       -0.0004882812,       -6.0119628906,        3.8604736328,       -0.8087158203
1494036411.1290330887,       -0.7348632812,        0.2167968750,       -0.0004882812,       -6.0119628906,        3.8604736328,       -0.8087158203
1494036411.1317229271,       -0.7348632812,        0.2167968750,       -0.0004882812,       -8.0566406250,        3.3264160156,       -0.0457763672
1494036411.1343970299,       -0.7343750000,        0.2387695312,       -0.0053710938,       -8.0566406250,        3.3264160156,       -0.0457763672
1494036411.1369481087,       -0.7343750000,        0.2387695312,       -0.0053710938,       -8.4533691406,        3.5552978516,        0.9002685547
1494036411.1394970417,       -0.7343750000,        0.2387695312,       -0.0053710938,       -8.4533691406,        3.5552978516,        0.9002685547
1494036411.1420459747,       -0.7343750000,        0.2387695312,       -0.0053710938,       -4.5471191406,        3.5858154297,        1.9378662109
1494036411.1447050571,       -0.7304687500,        0.2333984375,       -0.0283203125,       -7.1563720703,        3.5858154297,        1.9378662109
1494036411.1473801136,       -0.7304687500,        0.2333984375,       -0.0283203125,       -7.1563720703,        3.7231445312,        2.1209716797
1494036411.1500489712,       -0.7304687500,        0.2333984375,       -0.0283203125,       -5.8898925781,        3.7231445312,        2.1209716797
1494036411.1527159214,       -0.7304687500,        0.2324218750,       -0.0205078125,       -5.8898925781,        3.7231445312,        3.0364990234
1494036411.1553869247,       -0.7167968750,        0.2324218750,       -0.0205078125,       -6.3629150391,        3.7689208984,        3.0364990234
1494036411.1580579281,       -0.7167968750,        0.2324218750,       -0.0205078125,       -6.3629150391,        3.7689208984,        4.0588378906
1494036411.1607329845,       -0.7167968750,        0.2324218750,       -0.0205078125,       -6.7749023438,        3.4027099609,        4.0588378906
1494036411.1634531021,       -0.7246093750,        0.2480468750,       -0.0117187500,       -6.7749023438,        3.4027099609,        5.2032470703
1494036411.1661229134,       -0.7246093750,        0.2480468750,       -0.0117187500,       -6.9580078125,        3.2196044922,        5.2032470703
1494036411.1687939167,       -0.7246093750,        0.2480468750,       -0.0117187500,       -6.9580078125,        3.2196044922,        5.8593750000
1494036411.1714611053,       -0.7246093750,        0.2480468750,       -0.0117187500,       -6.0882568359,        3.1280517578,        5.8593750000
1494036411.1742510796,       -0.7299804688,        0.2265625000,       -0.0029296875,       -6.0882568359,        3.1280517578,        6.6375732422
1494036411.1768219471,       -0.7299804688,        0.2265625000,       -0.0029296875,       -5.6762695312,        3.3569335938,        6.6375732422
1494036411.1794619560,       -0.7299804688,        0.2265625000,       -0.0029296875,       -5.6762695312,        3.3569335938,        6.6375732422
1494036411.1820230484,       -0.7299804688,        0.2265625000,       -0.0029296875,       -5.8135986328,        2.8381347656,        7.4005126953
1494036411.1847419739,       -0.7041015625,        0.2456054688,        0.0292968750,       -5.8135986328,        2.8381347656,        7.4005126953
1494036411.1872899532,       -0.7041015625,        0.2456054688,        0.0292968750,       -5.7067871094,        2.5482177734,        8.0413818359
1494036411.1899340153,       -0.7041015625,        0.2456054688,        0.0292968750,       -5.7067871094,        2.5482177734,        8.0413818359
1494036411.1928761005,       -0.7041015625,        0.3706054688,        0.0434570312,       -4.0435791016,        1.9531250000,        8.3923339844
1494036411.1955709457,       -0.6977539062,        0.2548828125,        0.0434570312,       -4.0435791016,        1.9531250000,        8.3923339844
1494036411.1982638836,       -0.6977539062,        0.2548828125,        0.0434570312,       -2.4261474609,        1.6326904297,        8.6975097656
1494036411.2009530067,       -0.6977539062,        0.2548828125,        0.0434570312,       -2.4261474609,        1.6326904297,        8.6975097656
1494036411.2037611008,       -0.7031250000,        0.2597656250,        0.0366210938,       -1.4190673828,        1.3885498047,        9.5520019531
1494036411.2064559460,       -0.7031250000,        0.2597656250,        0.0366210938,       -1.4190673828,        1.3885498047,        9.5520019531
1494036411.2091419697,       -0.7031250000,        0.2597656250,        0.0366210938,       -0.2746582031,        0.3814697266,       10.2691650391
1494036411.2118411064,       -0.7031250000,        0.2597656250,        0.0366210938,       -0.2746582031,        0.3814697266,       10.2691650391
1494036411.2145459652,       -0.7109375000,        0.2270507812,        0.0214843750,        1.3885498047,       -0.2593994141,       10.8184814453
1494036411.2172400951,       -0.7109375000,        0.2270507812,        0.0214843750,        1.3885498047,       -0.2593994141,       10.8184814453
1494036411.2199399471,       -0.7109375000,        0.2270507812,        0.0214843750,        2.3651123047,       -0.3814697266,       10.7879638672
1494036411.2226328850,       -0.7109375000,        0.2270507812,        0.0214843750,        2.3651123047,       -0.3814697266,       10.7879638672
1494036411.2252318859,       -0.7177734375,        0.2475585938,        0.0122070312,        2.0294189453,       -0.3662109375,       11.6271972656
1494036411.2277929783,       -0.7177734375,        0.2475585938,        0.0122070312,        2.0294189453,       -0.3662109375,       11.6271972656
1494036411.2303509712,       -0.7177734375,        0.2475585938,        0.0122070312,        2.1209716797,       -0.7324218750,       12.0239257812
1494036411.2329111099,       -0.7177734375,        0.2475585938,        0.0122070312,        2.1209716797,       -0.7324218750,       12.0239257812
1494036411.2355179787,       -0.7084960938,        0.2465820312,        0.0224609375,        1.7242431641,       -0.2441406250,       12.2070312500
1494036411.2380719185,       -0.7084960938,        0.2465820312,        0.0224609375,        1.7242431641,       -0.2441406250,       12.2070312500
1494036411.2406229973,       -0.7084960938,        0.2465820312,        0.0224609375,        1.9378662109,       -0.0305175781,       12.8326416016
1494036411.2433030605,       -0.7084960938,        0.2465820312,        0.0292968750,        1.9378662109,       -0.0305175781,       12.8326416016
1494036411.2459990978,       -0.6977539062,        0.2631835938,        0.0292968750,        1.4343261719,       -0.1831054688,       12.7563476562
1494036411.2486970425,       -0.6977539062,        0.2631835938,        0.0292968750,        1.4343261719,       -0.1831054688,       12.7563476562
1494036411.2513880730,       -0.6977539062,        0.2631835938,        0.0292968750,        0.9155273438,       -0.4730224609,       12.7410888672
1494036411.2540988922,       -0.6899414062,        0.2763671875,        0.0429687500,        0.9155273438,       -0.4730224609,       12.7410888672
1494036411.2567899227,       -0.6899414062,        0.2763671875,        0.0429687500,        1.7700195312,       -0.6561279297,       12.5885009766
1494036411.2594769001,       -0.6899414062,        0.2763671875,        0.0429687500,        1.7700195312,       -0.6561279297,       12.5885009766
1494036411.2621729374,       -0.6899414062,        0.2763671875,        0.0429687500,        3.1280517578,       -0.8544921875,       12.8936767578
1494036411.2648758888,       -0.6938476562,        0.2739257812,        0.0429687500,        3.1280517578,       -0.8544921875,       12.8936767578
1494036411.2675681114,       -0.6938476562,        0.2739257812,        0.0429687500,        3.6621093750,       -1.2817382812,       12.2985839844
1494036411.2702620029,       -0.6938476562,        0.2739257812,        0.0429687500,        3.6621093750,       -1.2817382812,       12.2985839844
1494036411.2729520798,       -0.6938476562,        0.2739257812,        0.0429687500,        5.1879882812,       -1.7547607422,       11.7645263672
1494036411.2756650448,       -0.7006835938,        0.3056640625,        0.0502929688,        5.1879882812,       -1.7547607422,       11.7645263672
1494036411.2782170773,       -0.7006835938,        0.3056640625,        0.0502929688,        9.0942382812,       -1.8615722656,       11.1236572266
1494036411.2807650566,       -0.7006835938,        0.3056640625,        0.0502929688,        7.9803466797,       -1.8615722656,       11.1236572266
1494036411.2833330631,       -0.7006835938,        0.3056640625,        0.0502929688,        7.9803466797,       -1.8615722656,       11.0321044922
1494036411.2860260010,       -0.7075195312,        0.2866210938,        0.0087890625,       10.7879638672,       -2.7313232422,       11.0321044922
1494036411.2887279987,       -0.7075195312,        0.2866210938,        0.0087890625,       10.7879638672,       -2.7313232422,       11.1389160156
1494036411.2914268970,       -0.7075195312,        0.2866210938,        0.0087890625,       12.4664306641,       -3.6315917969,       11.1389160156
1494036411.2941350937,       -0.7075195312,        0.2695312500,        0.0166015625,       12.4664306641,       -7.5378417969,       12.3138427734
1494036411.2968280315,       -0.7065429688,        0.2695312500,        0.0166015625,       13.1072998047,       -4.0588378906,       12.3138427734
1494036411.2995460033,       -0.7065429688,        0.2695312500,        0.0166015625,       13.1072998047,       -4.0588378906,       13.2751464844
1494036411.3022460938,       -0.7065429688,        0.2695312500,        0.0166015625,       12.9394531250,       -4.2724609375,       13.2751464844
1494036411.3051939011,       -0.7255859375,        0.2490234375,        0.0151367188,       12.9394531250,       -4.5166015625,       13.5192871094
1494036411.3078930378,       -0.7255859375,        0.2490234375,        0.0151367188,       13.4887695312,       -4.5166015625,       13.5192871094
1494036411.3106019497,       -0.7255859375,        0.2490234375,        0.0151367188,       13.4887695312,       -4.5166015625,       14.8315429688
1494036411.3133060932,       -0.7255859375,        0.2490234375,        0.0151367188,       13.9312744141,       -5.1116943359,       14.8315429688
1494036411.3158609867,       -0.7363281250,        0.2456054688,       -0.0068359375,       13.9312744141,       -5.1116943359,       16.0827636719
1494036411.3184199333,       -0.7363281250,        0.2456054688,       -0.0068359375,       14.0228271484,       -6.4086914062,       16.0827636719
1494036411.3209741116,       -0.7363281250,        0.2456054688,       -0.0068359375,       14.0228271484,       -6.4086914062,       16.0827636719
1494036411.3235569000,       -0.7363281250,        0.2456054688,       -0.0068359375,       14.5568847656,       -7.7972412109,       16.8609619141
1494036411.3262519836,       -0.7241210938,        0.2812500000,       -0.0141601562,       14.5568847656,       -7.7972412109,       16.8609619141
1494036411.3289430141,       -0.7241210938,        0.2812500000,       -0.0141601562,       15.8081054688,       -9.1247558594,       17.8222656250
1494036411.3316419125,       -0.7241210938,        0.2812500000,       -0.0141601562,       15.8081054688,       -9.1247558594,       17.8222656250
1494036411.3342959881,       -0.7241210938,        0.2812500000,       -0.0200195312,       17.3492431641,       -9.8419189453,       18.2342529297
1494036411.3368480206,       -0.7099609375,        0.3081054688,       -0.0200195312,       17.3492431641,       -9.8419189453,       18.2342529297
1494036411.3394019604,       -0.7099609375,        0.3081054688,       -0.0200195312,       18.9361572266,      -10.7727050781,       17.9901123047
1494036411.3419630527,       -0.7099609375,        0.3081054688,       -0.0200195312,       18.9361572266,      -10.7727050781,       17.9901123047
1494036411.3445320129,       -0.7099609375,        0.3051757812,       -0.0058593750,       20.2484130859,      -11.7034912109,       17.9748535156
1494036411.3470950127,       -0.6821289062,        0.3051757812,       -0.0058593750,       20.2484130859,      -11.7034912109,       17.9748535156
1494036411.3497610092,       -0.6821289062,        0.3051757812,       -0.0058593750,       20.0653076172,      -12.0086669922,       17.8527832031
1494036411.3523271084,       -0.6821289062,        0.3051757812,       -0.0058593750,       20.0653076172,      -12.0086669922,       17.8527832031
1494036411.3549840450,       -0.7026367188,        0.3017578125,        0.0209960938,       18.6309814453,      -11.5051269531,       17.5018310547
1494036411.3575410843,       -0.7026367188,        0.3017578125,        0.0209960938,       18.6309814453,      -11.5051269531,       17.5018310547
1494036411.3601078987,       -0.7026367188,        0.3017578125,        0.0209960938,       18.1274414062,      -10.6201171875,       17.5781250000
1494036411.3626639843,       -0.7026367188,        0.3017578125,        0.0209960938,       18.1274414062,      -10.6201171875,       17.5781250000
1494036411.3654029369,       -0.7373046875,        0.2465820312,        0.0439453125,       18.1274414062,       -9.0179443359,       18.0053710938
1494036411.3679609299,       -0.7373046875,        0.2465820312,        0.0439453125,       18.0969238281,       -9.0179443359,       18.0053710938
1494036411.3705229759,       -0.7373046875,        0.2465820312,        0.0439453125,       18.0969238281,       -5.1116943359,       18.7683105469
1494036411.3730850220,       -0.7373046875,        0.2465820312,        0.0439453125,       17.4713134766,       -6.8664550781,       18.7683105469
1494036411.3757889271,       -0.7124023438,        0.2338867188,        0.1118164062,       17.4713134766,       -6.8664550781,       19.3939208984
1494036411.3784770966,       -0.7124023438,        0.2338867188,        0.1118164062,       15.8691406250,       -5.1879882812,       19.3939208984
1494036411.3811790943,       -0.7124023438,        0.2338867188,        0.1118164062,       15.8691406250,       -1.2817382812,       19.7448730469
1494036411.3838911057,       -0.7124023438,        0.2338867188,        0.1118164062,       14.1143798828,       -3.6926269531,       19.7448730469
1494036411.3865900040,       -0.6708984375,        0.3007812500,        0.1250000000,       14.1143798828,       -3.6926269531,       19.1345214844
1494036411.3892951012,       -0.6708984375,        0.3007812500,        0.1250000000,       14.0075683594,       -3.3721923828,       19.1345214844
1494036411.3919930458,       -0.6708984375,        0.3007812500,        0.1250000000,       14.0075683594,       -3.3721923828,       18.1732177734
1494036411.3946340084,       -0.6708984375,        0.3007812500,        0.0727539062,       15.3350830078,       -3.3569335938,       18.1732177734
1494036411.3971920013,       -0.6860351562,        0.3056640625,        0.0727539062,       15.3350830078,       -3.3569335938,       18.1732177734
1494036411.3997490406,       -0.6860351562,        0.3056640625,        0.0727539062,       16.4337158203,       -3.0517578125,       16.8609619141
1494036411.4023170471,       -0.6860351562,        0.3056640625,        0.0727539062,       16.4337158203,       -3.0517578125,       16.8609619141
1494036411.4050230980,       -0.6860351562,        0.3237304688,        0.0507812500,       16.9372558594,       -2.3956298828,       16.3269042969
1494036411.4075860977,       -0.6791992188,        0.3237304688,        0.0507812500,       16.9372558594,       -2.3956298828,       16.3269042969
1494036411.4101510048,       -0.6791992188,        0.3237304688,        0.0507812500,       17.0898437500,       -1.9683837891,       15.7165527344
1494036411.4127070904,       -0.6791992188,        0.3237304688,        0.0507812500,       17.0898437500,       -1.9683837891,       15.7165527344
1494036411.4153659344,       -0.6791992188,        0.3579101562,        0.0180664062,       16.5252685547,       -1.8157958984,       14.4958496094
1494036411.4179189205,       -0.6821289062,        0.3579101562,        0.0180664062,       16.5252685547,       -1.8157958984,       14.4958496094
1494036411.4207260609,       -0.6821289062,        0.3579101562,        0.0180664062,       16.0522460938,       -1.5716552734,       13.3972167969
1494036411.4238429070,       -0.6821289062,        0.3579101562,        0.0180664062,       16.0522460938,       -1.5716552734,       13.3972167969
1494036411.4265420437,       -0.7070312500,        0.3164062500,       -0.0039062500,       16.4184570312,       -1.5716552734,       12.8479003906
1494036411.4292490482,       -0.7070312500,        0.3164062500,       -0.0039062500,       16.4184570312,       -1.5716552734,       12.8479003906
1494036411.4319438934,       -0.7070312500,        0.3164062500,       -0.0039062500,       17.2271728516,       -1.1291503906,       12.9394531250
1494036411.4346840382,       -0.7070312500,        0.3164062500,        0.1210937500,       17.2271728516,       -1.1291503906,       12.9394531250
1494036411.4373819828,       -0.7329101562,        0.2832031250,        0.0117187500,       17.0593261719,       -0.3814697266,       14.2974853516
1494036411.4400739670,       -0.7329101562,        0.2832031250,        0.0117187500,       17.0593261719,       -0.3814697266,       14.2974853516
1494036411.4427831173,       -0.7329101562,        0.2832031250,        0.0117187500,       16.9219970703,       -0.3204345703,       14.9993896484
1494036411.4454898834,       -0.7329101562,        0.2734375000,        0.0200195312,       16.9219970703,       -0.3204345703,       14.9993896484
1494036411.4481871128,       -0.7534179688,        0.2734375000,        0.0200195312,       17.3950195312,       -0.1068115234,       15.3198242188
1494036411.4508891106,       -0.7534179688,        0.2734375000,        0.0200195312,       17.3950195312,       -0.1068115234,       15.3198242188
1494036411.4535698891,       -0.7534179688,        0.2734375000,        0.0200195312,       17.2424316406,        0.2441406250,       15.7012939453
1494036411.4561240673,       -0.7504882812,        0.2944335938,        0.0239257812,       17.2424316406,        0.2441406250,       15.7012939453
1494036411.4586811066,       -0.7504882812,        0.2944335938,        0.0239257812,       18.3258056641,        0.7781982422,       16.6778564453
1494036411.4612379074,       -0.7504882812,        0.2944335938,        0.0239257812,       18.3258056641,        0.7781982422,       16.6778564453
1494036411.4638519287,       -0.7504882812,        0.2944335938,        0.0239257812,       18.7377929688,        0.9765625000,       17.1508789062
1494036411.4664061069,       -0.7255859375,        0.3208007812,        0.0341796875,       18.7377929688,        0.9765625000,       17.1508789062
1494036411.4689691067,       -0.7255859375,        0.3208007812,        0.0341796875,       19.2565917969,        0.9460449219,       16.9830322266
1494036411.4715270996,       -0.7255859375,        0.3208007812,        0.0341796875,       19.2565917969,        0.9460449219,       16.9830322266
1494036411.4742159843,       -0.7255859375,        0.3208007812,        0.0341796875,       23.1628417969,        1.1749267578,       16.5100097656
1494036411.4767730236,       -0.7060546875,        0.3452148438,        0.0258789062,       20.1263427734,        1.1749267578,       16.5100097656
1494036411.4793329239,       -0.7060546875,        0.3452148438,        0.0258789062,       20.1263427734,        1.1749267578,       16.1437988281
1494036411.4818859100,       -0.7060546875,        0.3452148438,        0.0258789062,       21.0571289062,        0.9460449219,       16.1437988281
1494036411.4846210480,       -0.7060546875,        0.3452148438,        0.0258789062,       21.0571289062,        0.9460449219,       15.5792236328
1494036411.4873239994,       -0.7021484375,        0.3461914062,        0.0332031250,       22.0642089844,        0.9155273438,       15.5792236328
1494036411.4900209904,       -0.7021484375,        0.3461914062,        0.0332031250,       22.0642089844,        0.9155273438,       15.5334472656
1494036411.4927220345,       -0.7021484375,        0.3461914062,        0.0332031250,       23.0255126953,        1.4801025391,       15.5334472656
1494036411.4954509735,       -0.7021484375,        0.3461914062,        0.0122070312,       23.0255126953,        1.4801025391,       14.7552490234
1494036411.4980180264,       -0.7124023438,        0.3305664062,        0.0122070312,       23.4375000000,        1.9378662109,       14.7552490234
1494036411.5005769730,       -0.7124023438,        0.3305664062,        0.0122070312,       23.4375000000,        1.9378662109,       14.7552490234
1494036411.5031280518,       -0.7124023438,        0.3305664062,        0.0122070312,       24.7192382812,        2.2430419922,       14.4195556641
1494036411.5058720112,       -0.7124023438,        0.3188476562,        0.0136718750,       24.7192382812,        2.2430419922,       14.4195556641
1494036411.5085649490,       -0.7260742188,        0.3188476562,        0.0136718750,       25.5584716797,        2.7008056641,       14.3890380859
1494036411.5112669468,       -0.7260742188,        0.3188476562,        0.0136718750,       25.5584716797,        2.7008056641,       14.3890380859
1494036411.5139520168,       -0.7260742188,        0.3188476562,        0.0136718750,       26.2908935547,        3.0670166016,       14.1754150391
1494036411.5165090561,       -0.7290039062,        0.3173828125,        0.0170898438,       26.2908935547,        3.0670166016,       14.1754150391
1494036411.5190699100,       -0.7290039062,        0.3173828125,        0.0170898438,       26.3977050781,        4.0740966797,       14.2059326172
1494036411.5216279030,       -0.7290039062,        0.3173828125,        0.0170898438,       26.3977050781,        4.0740966797,       14.2059326172
1494036411.5243010521,       -0.7290039062,        0.3173828125,        0.0170898438,       25.4058837891,        5.0506591797,       14.0838623047
1494036411.5270020962,       -0.7299804688,        0.3203125000,        0.0107421875,       25.4058837891,        5.0506591797,       14.0838623047
1494036411.5296978951,       -0.7299804688,        0.3203125000,        0.0107421875,       24.7802734375,        5.4931640625,       14.2669677734
1494036411.5323920250,       -0.7299804688,        0.3203125000,        0.0107421875,       24.7802734375,        5.4931640625,       14.2669677734
1494036411.5350990295,       -0.7299804688,        0.3203125000,        0.0107421875,       23.7426757812,        6.2713623047,       14.0686035156
1494036411.5377919674,       -0.7207031250,        0.3198242188,        0.0195312500,       23.7426757812,        6.2713623047,       14.0686035156
1494036411.5406489372,       -0.7207031250,        0.3198242188,        0.0195312500,       23.2543945312,        7.6446533203,       13.2904052734
1494036411.5437059402,       -0.7207031250,        0.3198242188,        0.0195312500,       23.2543945312,        7.6446533203,       13.2904052734
1494036411.5462698936,       -0.7207031250,        0.3691406250,        0.0341796875,       22.7355957031,        9.2926025391,       12.3901367188
1494036411.5488340855,       -0.7065429688,        0.3691406250,        0.0341796875,       22.7355957031,        9.2926025391,       12.3901367188
1494036411.5513899326,       -0.7065429688,        0.3691406250,        0.0341796875,       22.8118896484,       10.7421875000,       12.6495361328
1494036411.5539939404,       -0.7065429688,        0.3691406250,        0.0341796875,       22.8118896484,       10.7421875000,       12.6495361328
1494036411.5566959381,       -0.7065429688,        0.3120117188,        0.0546875000,       22.2320556641,       11.0931396484,       11.4898681641
1494036411.5593929291,       -0.7041015625,        0.3120117188,        0.0546875000,       22.2320556641,       11.0931396484,       11.4898681641
1494036411.5620980263,       -0.7041015625,        0.3120117188,        0.0546875000,       23.1323242188,       10.7879638672,        9.1857910156
1494036411.5647959709,       -0.7041015625,        0.3120117188,        0.0546875000,       23.1323242188,       10.7879638672,        9.1857910156
1494036411.5674960613,       -0.7182617188,        0.2753906250,        0.0913085938,       24.0631103516,       11.5356445312,        8.2702636719
1494036411.5703029633,       -0.7182617188,        0.2753906250,        0.0913085938,       24.0631103516,       11.5356445312,        8.2702636719
1494036411.5729999542,       -0.7182617188,        0.2753906250,        0.0913085938,       23.6663818359,       13.1072998047,        8.1939697266
1494036411.5755779743,       -0.7182617188,        0.2753906250,        0.0913085938,       23.6663818359,       13.1072998047,        8.1939697266
1494036411.5781409740,       -0.7353515625,        0.2827148438,        0.1166992188,       23.8952636719,       13.7481689453,        7.8735351562
1494036411.5806961060,       -0.7353515625,        0.2827148438,        0.1166992188,       23.8952636719,       13.7481689453,        7.8735351562
1494036411.5832569599,       -0.7353515625,        0.2827148438,        0.1166992188,       24.0783691406,       13.4277343750,        7.7667236328
1494036411.5858170986,       -0.7353515625,        0.2827148438,        0.1166992188,       24.0783691406,       13.4277343750,        7.7667236328
1494036411.5883800983,       -0.7592773438,        0.2895507812,        0.1040039062,       24.0783691406,       13.7481689453,        7.3089599609
1494036411.5909419060,       -0.7592773438,        0.2895507812,        0.1040039062,       22.2320556641,       13.7481689453,        7.3089599609
1494036411.5936160088,       -0.7592773438,        0.2895507812,        0.1040039062,       22.2320556641,       13.7481689453,        6.9274902344
1494036411.5961890221,       -0.7592773438,        0.2895507812,        0.1040039062,       20.1568603516,       15.2435302734,        6.9274902344
1494036411.5987460613,       -0.7548828125,        0.2998046875,        0.1230468750,       20.1568603516,       15.2435302734,        6.5002441406
1494036411.6013019085,       -0.7548828125,        0.2998046875,        0.1230468750,       18.8903808594,       15.8386230469,        6.5002441406
1494036411.6040129662,       -0.7548828125,        0.2998046875,        0.1230468750,       18.8903808594,       15.8386230469,        6.5002441406
1494036411.6066958904,       -0.7548828125,        0.2998046875,        0.1069335938,       17.0288085938,       15.4113769531,        5.3100585938
1494036411.6093750000,       -0.7465820312,        0.3618164062,        0.1069335938,       17.0288085938,       15.4113769531,        1.4038085938
1494036411.6120579243,       -0.7465820312,        0.3618164062,        0.1069335938,       17.3187255859,       14.9383544922,        3.6163330078
1494036411.6147499084,       -0.7465820312,        0.3618164062,        0.1069335938,       17.3187255859,       14.9383544922,        3.6163330078
1494036411.6174259186,       -0.7646484375,        0.3574218750,        0.0815429688,       18.9514160156,       14.8468017578,        2.0599365234
1494036411.6201078892,       -0.7646484375,        0.3574218750,        0.0815429688,       18.9514160156,       14.8468017578,        2.0599365234
1494036411.6227838993,       -0.7646484375,        0.3574218750,        0.0815429688,       20.9197998047,       15.7165527344,        0.3662109375
1494036411.6254830360,       -0.7646484375,        0.3574218750,        0.0815429688,       20.9197998047,       15.7165527344,        0.3662109375
1494036411.6281650066,       -0.7768554688,        0.3618164062,        0.0541992188,       22.0184326172,       16.1590576172,       -1.6937255859
1494036411.6308441162,       -0.7768554688,        0.3618164062,        0.0541992188,       22.0184326172,       16.1590576172,       -1.6937255859
1494036411.6335229874,       -0.7768554688,        0.3618164062,        0.0541992188,       23.0102539062,       15.4876708984,       -3.7994384766
1494036411.6360750198,       -0.7768554688,        0.3618164062,        0.0541992188,       23.0102539062,       15.4876708984,       -3.7994384766
1494036411.6386179924,       -0.8349609375,        0.3828125000,        0.0351562500,       24.5056152344,       15.0146484375,       -5.4016113281
1494036411.6411790848,       -0.8349609375,        0.3828125000,        0.0351562500,       24.5056152344,       15.0146484375,       -5.4016113281
1494036411.6438789368,       -0.8349609375,        0.3828125000,        0.0351562500,       26.1688232422,       15.0299072266,       -6.2255859375
1494036411.6464450359,       -0.8349609375,        0.3828125000,        0.0351562500,       26.1688232422,       15.0299072266,       -6.2255859375
1494036411.6489961147,       -0.8706054688,        0.3666992188,        0.0219726562,       28.4729003906,       14.8773193359,       -7.3089599609
1494036411.6515519619,       -0.8706054688,        0.3666992188,        0.0219726562,       28.4729003906,       14.8773193359,       -7.3089599609
1494036411.6543850899,       -0.8706054688,        0.3666992188,        0.0219726562,       30.7922363281,       14.7094726562,       -8.8500976562
1494036411.6570808887,       -0.8706054688,        0.3666992188,       -0.0068359375,       30.7922363281,       14.7094726562,       -8.8500976562
1494036411.6598351002,       -0.8906250000,        0.3256835938,       -0.0068359375,       33.0200195312,       14.8620605469,      -10.6658935547
1494036411.6625380516,       -0.8906250000,        0.3256835938,       -0.0068359375,       33.0200195312,       14.8620605469,      -10.6658935547
1494036411.6656908989,       -0.8906250000,        0.3256835938,       -0.0068359375,       33.8287353516,       15.4266357422,      -12.3138427734
1494036411.6683959961,       -0.9018554688,        0.3022460938,       -0.0478515625,       33.8287353516,       15.4266357422,      -12.3138427734
1494036411.6710970402,       -0.9018554688,        0.3022460938,       -0.0478515625,       33.9050292969,       15.0756835938,      -13.1683349609
1494036411.6737949848,       -0.9018554688,        0.3022460938,       -0.0478515625,       33.9050292969,       15.0756835938,      -13.1683349609
1494036411.6764988899,       -0.9018554688,        0.3022460938,       -0.0478515625,       33.4167480469,       14.6789550781,      -13.8244628906
1494036411.6791999340,       -0.9179687500,        0.2495117188,       -0.0424804688,       33.4167480469,       14.6789550781,      -13.8244628906
1494036411.6819109917,       -0.9179687500,        0.2495117188,       -0.0424804688,       34.0728759766,       14.6789550781,      -15.3503417969
1494036411.6846199036,       -0.9179687500,        0.2495117188,       -0.0424804688,       34.0728759766,       14.6789550781,      -15.3503417969
1494036411.6873180866,       -0.9179687500,        0.3745117188,       -0.0512695312,       34.7747802734,       15.0299072266,      -16.1285400391
1494036411.6900200844,       -0.9252929688,        0.2534179688,       -0.0512695312,       34.7747802734,       15.0299072266,      -16.1285400391
1494036411.6927199364,       -0.9252929688,        0.2534179688,       -0.0512695312,       35.4766845703,       15.0604248047,      -17.2882080078
1494036411.6953029633,       -0.9252929688,        0.2534179688,       -0.0512695312,       35.4766845703,       15.0604248047,      -17.2882080078
1494036411.6978669167,       -0.9252929688,        0.2592773438,       -0.0532226562,       37.8265380859,       14.3432617188,      -18.6462402344
1494036411.7004280090,       -0.9409179688,        0.2592773438,       -0.0532226562,       37.8265380859,       14.3432617188,      -18.6462402344
1494036411.7029960155,       -0.9409179688,        0.2592773438,       -0.0532226562,       41.1071777344,       14.1143798828,      -19.4549560547
1494036411.7056009769,       -0.9409179688,        0.2592773438,       -0.0532226562,       41.1071777344,       14.1143798828,      -19.4549560547
1494036411.7081639767,       -0.9301757812,        0.2192382812,       -0.0517578125,       41.1071777344,       14.2517089844,      -19.6228027344
1494036411.7107360363,       -0.9301757812,        0.2192382812,       -0.0517578125,       45.2270507812,       14.2517089844,      -19.6228027344
1494036411.7133929729,       -0.9301757812,        0.2192382812,       -0.0517578125,       45.2270507812,       14.2517089844,      -19.6380615234
1494036411.7160708904,       -0.9301757812,        0.2192382812,       -0.0517578125,       46.3867187500,       14.5874023438,      -19.6380615234
1494036411.7186350822,       -0.9062500000,        0.1630859375,       -0.0668945312,       46.3867187500,       14.5874023438,      -19.1192626953
1494036411.7211930752,       -0.9062500000,        0.1630859375,       -0.0668945312,       46.4019775391,       14.5568847656,      -19.1192626953
1494036411.7239151001,       -0.9062500000,        0.1630859375,       -0.0668945312,       46.4019775391,       14.5568847656,      -18.2800292969
1494036411.7266209126,       -0.9062500000,        0.1630859375,       -0.0668945312,       45.2423095703,       15.5029296875,      -18.2800292969
1494036411.7293241024,       -0.8837890625,        0.1196289062,       -0.0693359375,       45.2423095703,       15.5029296875,      -17.8375244141
1494036411.7320311069,       -0.8837890625,        0.1196289062,       -0.0693359375,       42.6788330078,       16.3879394531,      -17.8375244141
1494036411.7347409725,       -0.8837890625,        0.1196289062,       -0.0693359375,       42.6788330078,       16.3879394531,      -16.8762207031
1494036411.7374360561,       -0.8837890625,        0.1196289062,       -0.0463867188,       38.3148193359,       16.2963867188,      -16.8762207031
1494036411.7401399612,       -0.8471679688,        0.0834960938,       -0.0463867188,       38.3148193359,       16.2963867188,      -16.0827636719
1494036411.7428359985,       -0.8471679688,        0.0834960938,       -0.0463867188,       32.8674316406,       16.3574218750,      -16.0827636719
1494036411.7454309464,       -0.8471679688,        0.0834960938,       -0.0463867188,       32.8674316406,       16.3574218750,      -16.0827636719
1494036411.7479889393,       -0.8471679688,        0.1259765625,       -0.0532226562,       26.2451171875,       16.8457031250,      -14.2364501953
1494036411.7505450249,       -0.8193359375,        0.1259765625,       -0.0532226562,       26.2451171875,       16.8457031250,      -14.2364501953
1494036411.7531108856,       -0.8193359375,        0.1259765625,       -0.0532226562,       17.4407958984,       16.4337158203,      -11.4898681641
1494036411.7556729317,       -0.8193359375,        0.1259765625,       -0.0532226562,       17.4407958984,       16.4337158203,      -11.4898681641
1494036411.7582290173,       -0.8193359375,        0.2275390625,       -0.0053710938,        7.9040527344,       16.1132812500,       -7.3242187500
1494036411.7607870102,       -0.8061523438,        0.2275390625,       -0.0053710938,        7.9040527344,       16.1132812500,       -7.3242187500
1494036411.7633459568,       -0.8061523438,        0.2275390625,       -0.0053710938,        0.1220703125,       15.1977539062,       -3.9978027344
1494036411.7660529613,       -0.8061523438,        0.2275390625,       -0.0053710938,        0.1220703125,       15.1977539062,       -3.9978027344
1494036411.7687430382,       -0.7734375000,        0.2006835938,        0.0659179688,       -4.4097900391,       12.4664306641,       -2.3345947266
1494036411.7714369297,       -0.7734375000,        0.2006835938,        0.0659179688,       -4.4097900391,       12.4664306641,       -2.3345947266
1494036411.7741420269,       -0.7734375000,        0.2006835938,        0.0659179688,       -8.3465576172,       10.0250244141,       -0.6866455078
1494036411.7768380642,       -0.7734375000,        0.2006835938,        0.0659179688,       -8.3465576172,       10.0250244141,       -0.6866455078
1494036411.7795450687,       -0.7568359375,        0.2265625000,        0.0961914062,      -12.5885009766,        7.6293945312,        1.1749267578
1494036411.7822380066,       -0.7568359375,        0.2265625000,        0.0961914062,      -12.5885009766,        7.6293945312,        1.1749267578
1494036411.7851839066,       -0.7568359375,        0.2265625000,        0.0961914062,      -15.7928466797,        5.8288574219,        2.6855468750
1494036411.7878820896,       -0.7568359375,        0.2265625000,        0.0571289062,      -15.7928466797,        5.8288574219,        2.6855468750
1494036411.7906789780,       -0.7705078125,        0.2592773438,        0.0571289062,      -18.5699462891,        5.6457519531,        4.9285888672
1494036411.7934200764,       -0.7705078125,        0.2592773438,        0.0571289062,      -18.5699462891,        5.6457519531,        4.9285888672
1494036411.7959809303,       -0.7705078125,        0.2592773438,        0.0571289062,      -20.7824707031,        6.5917968750,        8.3007812500
1494036411.7985360622,       -0.7705078125,        0.2919921875,        0.0922851562,      -20.7824707031,        6.5917968750,        8.3007812500
1494036411.8010969162,       -0.7456054688,        0.2919921875,        0.0922851562,      -22.5372314453,        5.5999755859,       12.1612548828
1494036411.8037109375,       -0.7456054688,        0.2919921875,        0.0922851562,      -22.5372314453,        5.5999755859,       12.1612548828
1494036411.8064079285,       -0.7456054688,        0.2919921875,        0.0922851562,      -23.2696533203,        3.8909912109,       15.4876708984
1494036411.8091280460,       -0.7192382812,        0.3027343750,        0.1323242188,      -23.2696533203,        3.8909912109,       15.4876708984
1494036411.8118278980,       -0.7192382812,        0.3027343750,        0.1323242188,      -26.7791748047,        3.7689208984,       20.0042724609
1494036411.8144750595,       -0.7192382812,        0.3027343750,        0.1323242188,      -26.7791748047,        3.7689208984,       20.0042724609
1494036411.8170399666,       -0.7192382812,        0.3027343750,        0.1323242188,      -26.7791748047,        5.6762695312,       25.6042480469
1494036411.8195950985,       -0.7080078125,        0.4462890625,        0.0620117188,      -31.1126708984,        5.6762695312,       25.6042480469
1494036411.8221569061,       -0.7080078125,        0.4462890625,        0.0620117188,      -31.1126708984,        5.6762695312,       32.1197509766
1494036411.8247220516,       -0.7080078125,        0.4462890625,        0.0620117188,      -34.0728759766,        7.5531005859,       32.1197509766
1494036411.8272809982,       -0.7080078125,        0.4462890625,        0.0620117188,      -34.0728759766,        7.5531005859,       39.9322509766
1494036411.8298380375,       -0.6997070312,        0.5800781250,        0.0156250000,      -33.9965820312,        7.6751708984,       39.6423339844
1494036411.8323950768,       -0.6997070312,        0.5800781250,        0.0156250000,      -33.9965820312,        7.6751708984,       39.6423339844
1494036411.8351008892,       -0.6997070312,        0.5800781250,        0.0156250000,      -31.2194824219,        5.1269531250,       47.5769042969
1494036411.8376629353,       -0.6997070312,        0.5800781250,        0.0156250000,      -31.2194824219,        5.1269531250,       47.5769042969
1494036411.8402130604,       -0.7490234375,        0.7084960938,        0.0209960938,      -24.9786376953,        2.7008056641,       54.9926757812
1494036411.8427720070,       -0.7490234375,        0.7084960938,        0.0209960938,      -24.9786376953,        2.7008056641,       54.9926757812
1494036411.8454720974,       -0.7490234375,        0.7084960938,        0.0209960938,      -19.5922851562,       -0.1678466797,       62.0574951172
1494036411.8480300903,       -0.7490234375,        0.7084960938,        0.0209960938,      -19.5922851562,       -0.1678466797,       62.0574951172
1494036411.8505868912,       -0.7685546875,        0.7924804688,        0.0590820312,      -11.4288330078,       -3.7689208984,       68.2525634766
1494036411.8531420231,       -0.7685546875,        0.7924804688,        0.0590820312,      -11.4288330078,       -3.7689208984,       68.2525634766
1494036411.8558969498,       -0.7685546875,        0.7924804688,        0.0590820312,        3.2043457031,       -8.2550048828,       74.2034912109
1494036411.8585870266,       -0.7685546875,        0.7924804688,        0.0815429688,        3.2043457031,       -8.2550048828,       74.2034912109
1494036411.8612849712,       -0.8203125000,        0.9477539062,        0.0815429688,       24.5361328125,      -14.2974853516,       81.5582275391
1494036411.8641018867,       -0.8203125000,        0.9477539062,        0.0815429688,       24.5361328125,      -14.2974853516,       81.5582275391
1494036411.8668010235,       -0.8203125000,        0.9477539062,        0.0815429688,       45.3338623047,      -21.5454101562,       88.5772705078
1494036411.8694970608,       -0.9453125000,        0.8964843750,        0.0859375000,       45.3338623047,      -21.5454101562,       88.5772705078
1494036411.8721990585,       -0.9018554688,        0.8964843750,        0.0859375000,       63.6291503906,      -27.0690917969,       92.4224853516
1494036411.8749089241,       -0.9018554688,        0.8964843750,        0.0859375000,       63.6291503906,      -27.0690917969,       92.4224853516
1494036411.8776121140,       -0.9018554688,        0.8964843750,        0.0859375000,       80.9173583984,      -30.1055908203,       93.3380126953
1494036411.8803141117,       -0.9082031250,        0.6508789062,        0.0161132812,       80.9173583984,      -30.1055908203,       93.3380126953
1494036411.8830111027,       -0.9082031250,        0.6508789062,        0.0161132812,       94.9707031250,      -31.4788818359,       94.9859619141
1494036411.8855938911,       -0.9082031250,        0.6508789062,        0.0161132812,       94.9707031250,      -31.4788818359,       94.9859619141
1494036411.8881540298,       -0.9082031250,        0.6508789062,        0.0161132812,      101.3183593750,      -30.8532714844,       97.3205566406
1494036411.8907148838,       -0.9116210938,        0.4428710938,       -0.0756835938,      101.3183593750,      -30.8532714844,       97.3205566406
1494036411.8932700157,       -0.9116210938,        0.4428710938,       -0.0756835938,      101.3183593750,      -27.2064208984,       99.2889404297
1494036411.8958280087,       -0.9116210938,        0.4428710938,       -0.0756835938,      100.9979248047,      -27.2064208984,       99.2889404297
1494036411.8983840942,       -0.9116210938,        0.4428710938,       -0.0756835938,      100.9979248047,      -23.3001708984,      102.4017333984
1494036411.9010450840,       -0.9194335938,        0.2978515625,       -0.1445312500,       98.0377197266,      -22.2473144531,      102.4017333984
1494036411.9040520191,       -0.9194335938,        0.2978515625,       -0.1445312500,       98.0377197266,      -16.1437988281,      105.5450439453
1494036411.9067549706,       -0.9194335938,        0.2978515625,       -0.1445312500,       93.5821533203,      -16.1437988281,      105.5450439453
1494036411.9094550610,       -0.9194335938,        0.2792968750,       -0.1040039062,       93.5821533203,      -11.0931396484,      108.6578369141
1494036411.9121580124,       -0.9082031250,        0.2792968750,       -0.1040039062,       85.9375000000,      -11.0931396484,      108.6578369141
1494036411.9149041176,       -0.9082031250,        0.2792968750,       -0.1040039062,       85.9375000000,       -6.9580078125,      111.9384765625
1494036411.9175970554,       -0.9082031250,        0.2792968750,       -0.1040039062,       76.6448974609,       -6.9580078125,      111.9384765625
1494036411.9203000069,       -0.9008789062,        0.3408203125,       -0.0683593750,       76.6448974609,       -4.5318603516,      115.0360107422
1494036411.9230029583,       -0.9008789062,        0.3408203125,       -0.0683593750,       68.0236816406,       -4.5318603516,      115.0360107422
1494036411.9257130623,       -0.9008789062,        0.3408203125,       -0.0683593750,       68.0236816406,       -0.6256103516,      117.4316406250
1494036411.9284119606,       -0.9008789062,        0.3408203125,       -0.0683593750,       60.4553222656,       -2.9144287109,      117.4316406250
1494036411.9311039448,       -0.8769531250,        0.4272460938,       -0.0522460938,       60.4553222656,       -2.9144287109,      119.7204589844
1494036411.9337780476,       -0.8769531250,        0.4272460938,       -0.0522460938,       54.3823242188,       -2.1057128906,      119.7204589844
1494036411.9364459515,       -0.8769531250,        0.4272460938,       -0.0522460938,       54.3823242188,       -2.1057128906,      121.2310791016
1494036411.9390010834,       -0.8769531250,        0.4272460938,       -0.0522460938,       49.4384765625,       -1.6479492188,      121.2310791016
1494036411.9415650368,       -0.8647460938,        0.4863281250,       -0.0634765625,       49.4384765625,       -1.6479492188,      121.2310791016
1494036411.9441289902,       -0.8647460938,        0.4863281250,       -0.0634765625,       44.5404052734,       -1.2054443359,      122.0092773438
1494036411.9466850758,       -0.8647460938,        0.4863281250,       -0.0634765625,       44.5404052734,       -1.2054443359,      122.0092773438
1494036411.9492440224,       -0.8647460938,        0.4863281250,       -0.0634765625,       41.0308837891,       -1.5716552734,      121.5209960938
1494036411.9518010616,       -0.8496093750,        0.5048828125,       -0.0722656250,       41.0308837891,       -1.5716552734,      121.5209960938
1494036411.9545331001,       -0.8496093750,        0.5048828125,       -0.0722656250,       37.5366210938,       -1.7395019531,      120.7733154297
