time_stamp before, Acceleration x, Acceleration y, Acceleration z, Gyro x, Gyro y, Gyro z
1494295052.8498489857,       -0.7133789062,       -0.0092773438,       -0.0307617188,       13.8549804688,        7.2326660156,      -43.1671142578
1494295052.8545029163,       -0.7163085938,       -0.0092773438,       -0.0307617188,       15.5334472656,        6.8206787109,      -43.1671142578
1494295052.8573310375,       -0.7163085938,       -0.0092773438,       -0.0307617188,       19.4396972656,        6.4239501953,      -42.3889160156
1494295052.8598899841,       -0.7163085938,       -0.0092773438,       -0.0307617188,       17.8833007812,        6.4239501953,      -42.3889160156
1494295052.8626990318,       -0.7080078125,       -0.0683593750,       -0.0371093750,       21.7895507812,        5.9814453125,      -41.3818359375
1494295052.8653450012,       -0.7080078125,       -0.0683593750,       -0.0371093750,       22.5067138672,        5.9814453125,      -41.3818359375
1494295052.8682470322,       -0.7080078125,       -0.0683593750,       -0.0371093750,       30.8227539062,        6.9580078125,      -39.5507812500
1494295052.8709490299,       -0.7080078125,       -0.1591796875,       -0.0737304688,       30.8227539062,        6.9580078125,      -39.5507812500
1494295052.8736360073,       -0.7089843750,       -0.1591796875,       -0.0737304688,       34.3627929688,        6.7901611328,      -39.4439697266
1494295052.8763239384,       -0.7089843750,       -0.1591796875,       -0.0737304688,       34.3627929688,        6.7901611328,      -39.4439697266
1494295052.8790121078,       -0.7089843750,       -0.1591796875,       -0.0737304688,       38.2690429688,        6.8511962891,      -35.7208251953
1494295052.8817439079,       -0.6933593750,       -0.1713867188,       -0.0893554688,       36.3769531250,        6.8511962891,      -35.7208251953
1494295052.8844270706,       -0.6933593750,       -0.1713867188,       -0.0893554688,       36.3769531250,        6.0272216797,      -32.1960449219
1494295052.8871109486,       -0.6933593750,       -0.1713867188,       -0.0893554688,       36.3159179688,        6.0272216797,      -32.1960449219
1494295052.8898000717,       -0.6933593750,       -0.1713867188,       -0.0893554688,       32.4096679688,        4.9133300781,      -29.1595458984
1494295052.8924019337,       -0.7075195312,       -0.0219726562,       -0.0292968750,       34.3017578125,        4.9133300781,      -29.1595458984
1494295052.8949460983,       -0.7075195312,       -0.0219726562,       -0.0292968750,       34.3017578125,        1.0070800781,      -24.5666503906
1494295052.8974969387,       -0.7075195312,       -0.0219726562,       -0.0292968750,       29.5562744141,        2.7313232422,      -24.5666503906
1494295052.9000380039,       -0.7075195312,       -0.0219726562,       -0.0292968750,       29.5562744141,        2.7313232422,      -20.6604003906
1494295052.9026050568,       -0.7539062500,        0.0068359375,       -0.0048828125,       30.2276611328,        0.4577636719,      -20.0042724609
1494295052.9051589966,       -0.7539062500,        0.0068359375,       -0.0048828125,       30.2276611328,        0.4577636719,      -20.0042724609
1494295052.9077119827,       -0.7539062500,        0.0068359375,       -0.0048828125,       30.5023193359,       -4.3182373047,      -15.1367187500
1494295052.9102718830,       -0.7539062500,        0.0068359375,       -0.0048828125,       30.5023193359,       -4.3182373047,      -15.1367187500
1494295052.9129838943,       -0.6474609375,       -0.1015625000,       -0.0185546875,       26.3671875000,       -8.7127685547,      -11.2457275391
1494295052.9155440331,       -0.6474609375,       -0.1015625000,       -0.0185546875,       26.3671875000,       -8.7127685547,      -11.2457275391
1494295052.9181048870,       -0.6474609375,       -0.1015625000,       -0.0185546875,       33.5083007812,      -10.0860595703,       -8.8806152344
1494295052.9207859039,       -0.6474609375,       -0.1015625000,       -0.0732421875,       33.5083007812,      -10.0860595703,       -8.8806152344
1494295052.9234859943,       -0.6269531250,       -0.1923828125,       -0.0732421875,       50.4760742188,       -0.9613037109,       -8.2855224609
1494295052.9263169765,       -0.6269531250,       -0.1923828125,       -0.0732421875,       50.4760742188,       -0.9613037109,       -8.2855224609
1494295052.9290130138,       -0.6269531250,       -0.1923828125,       -0.0732421875,       68.4661865234,        5.5999755859,       -3.4332275391
1494295052.9317500591,       -0.8769531250,       -0.1166992188,       -0.1518554688,       68.4661865234,        5.5999755859,       -3.4332275391
1494295052.9344370365,       -0.9077148438,       -0.1166992188,       -0.1518554688,       66.8334960938,        5.7373046875,       -1.2207031250
1494295052.9371280670,       -0.9077148438,       -0.1166992188,       -0.1518554688,       66.8334960938,        5.7373046875,       -1.2207031250
1494295052.9398269653,       -0.9077148438,       -0.1166992188,       -0.1518554688,       59.5703125000,        4.9133300781,        1.4495849609
1494295052.9424610138,       -0.8129882812,       -0.1186523438,       -0.1254882812,       59.5703125000,        4.9133300781,        1.4495849609
1494295052.9450170994,       -0.8129882812,       -0.1186523438,       -0.1254882812,       57.4951171875,        2.3498535156,        4.4860839844
1494295052.9475679398,       -0.8129882812,       -0.1186523438,       -0.1254882812,       57.4951171875,        2.3498535156,        4.4860839844
1494295052.9501171112,       -0.8129882812,       -0.1186523438,       -0.1254882812,       55.5114746094,        1.0375976562,        8.4991455078
1494295052.9528129101,       -0.6889648438,       -0.0961914062,       -0.0571289062,       55.5114746094,        1.0375976562,        8.4991455078
1494295052.9555070400,       -0.6889648438,       -0.0961914062,       -0.0571289062,       53.0853271484,       -0.1831054688,       13.3056640625
1494295052.9581990242,       -0.6889648438,       -0.0961914062,       -0.0571289062,       53.0853271484,       -0.1831054688,       13.3056640625
1494295052.9609410763,       -0.6889648438,       -0.0961914062,       -0.0571289062,       50.6439208984,       -0.7781982422,       17.5323486328
1494295052.9636380672,       -0.7070312500,       -0.1606445312,       -0.0395507812,       50.6439208984,       -0.7781982422,       17.5323486328
1494295052.9663400650,       -0.7070312500,       -0.1606445312,       -0.0395507812,       50.5371093750,       -0.4272460938,       18.8293457031
1494295052.9690361023,       -0.7070312500,       -0.1606445312,       -0.0395507812,       50.5371093750,       -0.4272460938,       18.8293457031
1494295052.9717779160,       -0.7070312500,       -0.2812500000,       -0.0039062500,       54.1076660156,        0.5035400391,       18.9361572266
1494295052.9744739532,       -0.7617187500,       -0.2812500000,       -0.0039062500,       54.1076660156,        0.5035400391,       18.9361572266
1494295052.9772961140,       -0.7617187500,       -0.2812500000,       -0.0039062500,       59.3566894531,        1.3122558594,       18.1274414062
1494295052.9800078869,       -0.7617187500,       -0.2812500000,       -0.0039062500,       59.3566894531,        1.3122558594,       18.1274414062
1494295052.9827439785,       -0.8476562500,       -0.2128906250,        0.0864257812,       38.2080078125,        0.6103515625,       14.2517089844
1494295052.9854400158,       -0.8476562500,       -0.2128906250,        0.0864257812,       38.2080078125,        0.6103515625,       14.2517089844
1494295052.9881389141,       -0.8476562500,       -0.2128906250,        0.0864257812,       21.2097167969,       -0.4272460938,       11.9781494141
1494295052.9908719063,       -0.8476562500,       -0.2128906250,        0.0864257812,       21.2097167969,       -0.4272460938,       11.9781494141
1494295052.9934329987,       -0.8134765625,        0.0117187500,        0.2397460938,        8.5144042969,       -0.5340576172,        9.7351074219
1494295052.9960820675,       -0.8134765625,        0.0117187500,        0.2397460938,        8.5144042969,       -0.5340576172,        9.7351074219
1494295052.9995250702,       -0.8134765625,        0.0117187500,        0.2397460938,      -17.0135498047,       -0.5645751953,        7.4920654297
1494295053.0022120476,       -0.8134765625,        0.3554687500,        0.2744140625,      -17.0135498047,       -0.5645751953,        7.4920654297
1494295053.0049099922,       -0.7553710938,        0.3554687500,        0.2744140625,      -26.4282226562,        0.2441406250,        6.3781738281
1494295053.0076038837,       -0.7553710938,        0.3554687500,        0.2744140625,      -26.4282226562,        0.2441406250,        6.3781738281
1494295053.0103011131,       -0.7553710938,        0.3554687500,        0.2744140625,      -31.3415527344,        2.3040771484,        0.9307861328
1494295053.0128870010,       -0.6435546875,        0.4321289062,        0.1650390625,      -31.3415527344,        2.3040771484,        0.9307861328
1494295053.0154440403,       -0.6435546875,        0.4321289062,        0.1650390625,      -29.7393798828,        4.3640136719,       -4.7454833984
1494295053.0180010796,       -0.6435546875,        0.4321289062,        0.1650390625,      -29.7393798828,        4.3640136719,       -4.7454833984
1494295053.0205481052,       -0.6435546875,        0.4321289062,        0.1650390625,      -21.9268798828,        5.7830810547,       -9.0942382812
1494295053.0232551098,       -0.5493164062,        0.2167968750,        0.0068359375,      -21.1639404297,        5.7830810547,       -9.0942382812
1494295053.0259540081,       -0.5493164062,        0.2167968750,        0.0068359375,       -9.4451904297,        6.4849853516,      -11.6729736328
1494295053.0286500454,       -0.5493164062,        0.2167968750,        0.0068359375,       -9.3231201172,        6.4849853516,      -11.6729736328
1494295053.0313320160,       -0.5493164062,        0.2167968750,        0.0068359375,       -9.3231201172,        7.1563720703,      -12.7868652344
1494295053.0338869095,       -0.5898437500,        0.0493164062,       -0.1113281250,        4.7149658203,        7.1563720703,      -12.7868652344
1494295053.0364460945,       -0.5898437500,        0.0493164062,       -0.1113281250,        4.7149658203,        7.1563720703,      -13.0004882812
1494295053.0390019417,       -0.5898437500,        0.0493164062,       -0.1113281250,       17.2882080078,        7.7514648438,      -13.0004882812
1494295053.0416700840,       -0.5898437500,        0.0493164062,       -0.2363281250,       17.2882080078,        7.7514648438,      -13.3514404297
1494295053.0442330837,       -0.7192382812,       -0.0571289062,       -0.2084960938,       27.5573730469,        8.2397460938,      -13.3514404297
1494295053.0467898846,       -0.7192382812,       -0.0571289062,       -0.2084960938,       27.5573730469,        8.2397460938,      -13.3514404297
1494295053.0493481159,       -0.7192382812,       -0.0571289062,       -0.2084960938,       36.7889404297,        7.7972412109,      -13.7939453125
1494295053.0521209240,       -0.7192382812,       -0.0571289062,       -0.2031250000,       36.7889404297,        7.7972412109,      -13.7939453125
1494295053.0548179150,       -0.8867187500,       -0.0634765625,       -0.2031250000,       43.7469482422,        5.9661865234,      -13.4124755859
1494295053.0575211048,       -0.8867187500,       -0.0634765625,       -0.2031250000,       43.7469482422,        5.9661865234,      -13.4124755859
1494295053.0602200031,       -0.8867187500,       -0.0634765625,       -0.2031250000,       49.1333007812,        3.1433105469,      -11.6271972656
1494295053.0629680157,       -0.9711914062,        0.0820312500,       -0.1362304688,       49.1333007812,        3.1433105469,      -11.6271972656
1494295053.0656690598,       -0.9711914062,        0.0820312500,       -0.1362304688,       57.5103759766,        0.5340576172,       -7.6293945312
1494295053.0683701038,       -0.9711914062,        0.0820312500,       -0.1362304688,       57.5103759766,        0.5340576172,       -7.6293945312
1494295053.0710639954,       -0.9711914062,        0.0820312500,       -0.1362304688,       45.9289550781,       -1.8463134766,       -8.4838867188
1494295053.0738930702,       -0.9243164062,        0.2006835938,       -0.0439453125,       45.9289550781,       -1.8463134766,       -8.4838867188
1494295053.0765860081,       -0.9243164062,        0.2006835938,       -0.0439453125,       35.2172851562,       -2.6550292969,       -9.3383789062
1494295053.0792860985,       -0.9243164062,        0.2006835938,       -0.0439453125,       35.2172851562,       -2.6550292969,       -9.3383789062
1494295053.0819280148,       -0.9243164062,        0.2006835938,       -0.0439453125,       38.6352539062,       -0.9613037109,       -8.4991455078
1494295053.0844819546,       -0.8403320312,        0.1723632812,        0.0190429688,       38.6352539062,       -0.9613037109,       -8.4991455078
1494295053.0870409012,       -0.8403320312,        0.1723632812,        0.0190429688,       34.8815917969,        1.1749267578,       -8.8653564453
1494295053.0895850658,       -0.8403320312,        0.1723632812,        0.0190429688,       34.8815917969,        1.1749267578,       -8.8653564453
1494295053.0922310352,       -0.8403320312,        0.1723632812,        0.0190429688,       21.9573974609,        2.9754638672,       -8.7127685547
1494295053.0947880745,       -0.7763671875,        0.2421875000,        0.0356445312,       21.9573974609,        2.9754638672,       -8.7127685547
1494295053.0973410606,       -0.7763671875,        0.2421875000,        0.0356445312,       13.1225585938,        4.8065185547,       -6.8359375000
1494295053.0998969078,       -0.7763671875,        0.2421875000,        0.0356445312,       13.1225585938,        4.8065185547,       -6.8359375000
1494295053.1026220322,       -0.7763671875,        0.3671875000,       -0.0229492188,        5.9356689453,        5.5694580078,       -5.2795410156
1494295053.1052720547,       -0.7612304688,        0.2646484375,       -0.0229492188,        5.9356689453,        5.5694580078,       -5.2795410156
1494295053.1080029011,       -0.7612304688,        0.2646484375,       -0.0229492188,       -0.4119873047,        6.6680908203,       -3.7384033203
1494295053.1106760502,       -0.7612304688,        0.2646484375,       -0.0229492188,       -0.4119873047,        6.6680908203,       -3.7384033203
1494295053.1133689880,       -0.7880859375,        0.2285156250,       -0.0830078125,       -4.8370361328,        7.7972412109,       -2.2735595703
1494295053.1160540581,       -0.7880859375,        0.2285156250,       -0.0830078125,       -4.8370361328,        7.7972412109,       -2.2735595703
1494295053.1187350750,       -0.7880859375,        0.2285156250,       -0.0830078125,       -8.8043212891,        7.9650878906,       -0.6561279297
1494295053.1214349270,       -0.7880859375,        0.2285156250,       -0.0830078125,       -8.8043212891,        7.9650878906,       -0.6561279297
1494295053.1241209507,       -0.7929687500,        0.2143554688,       -0.0336914062,      -11.3525390625,        7.2326660156,        1.5563964844
1494295053.1268119812,       -0.7929687500,        0.2143554688,       -0.0336914062,      -11.3525390625,        7.2326660156,        1.5563964844
1494295053.1295020580,       -0.7929687500,        0.2143554688,       -0.0336914062,      -13.9617919922,        4.8370361328,        6.8664550781
1494295053.1322040558,       -0.7929687500,        0.2143554688,       -0.0336914062,      -13.9617919922,        4.8370361328,        6.8664550781
1494295053.1348900795,       -0.7915039062,        0.4135742188,        0.0839843750,      -20.4010009766,        1.7089843750,       16.5710449219
1494295053.1375861168,       -0.7915039062,        0.4135742188,        0.0839843750,      -20.4010009766,        1.7089843750,       16.5710449219
1494295053.1402790546,       -0.7915039062,        0.4135742188,        0.0839843750,      -12.5885009766,        0.6713867188,       27.3895263672
1494295053.1428630352,       -0.7915039062,        0.4135742188,        0.0898437500,      -14.7552490234,        0.6713867188,       27.3895263672
1494295053.1454150677,       -0.8486328125,        0.5893554688,        0.0898437500,      -14.7552490234,       -3.2348632812,       30.6091308594
1494295053.1480820179,       -0.8486328125,        0.5893554688,        0.0898437500,      -24.2309570312,       -1.1291503906,       30.6091308594
1494295053.1507840157,       -0.8486328125,        0.5893554688,        0.0898437500,      -24.2309570312,       -1.1291503906,       35.2935791016
1494295053.1533451080,       -0.8486328125,        0.6264648438,        0.1225585938,      -29.0679931641,       -1.8920898438,       35.2935791016
1494295053.1559019089,       -0.8969726562,        0.6264648438,        0.1225585938,      -29.0679931641,       -1.8920898438,       39.1998291016
1494295053.1584610939,       -0.8969726562,        0.6264648438,        0.1225585938,      -27.2064208984,       -2.0294189453,       41.8395996094
1494295053.1611158848,       -0.8969726562,        0.6264648438,        0.1225585938,      -27.2064208984,       -2.0294189453,       49.6520996094
1494295053.1638250351,       -0.8134765625,        0.5966796875,        0.1416015625,      -24.6124267578,       -3.4790039062,       49.0264892578
1494295053.1665220261,       -0.8134765625,        0.5966796875,        0.1416015625,      -24.6124267578,       -3.4790039062,       56.8389892578
1494295053.1692209244,       -0.8134765625,        0.5966796875,        0.1416015625,      -26.1840820312,       -5.4779052734,       55.9234619141
1494295053.1719660759,       -0.8134765625,        0.5966796875,        0.1416015625,      -26.1840820312,       -5.4779052734,       59.8297119141
1494295053.1746599674,       -0.7758789062,        0.5556640625,        0.1552734375,      -32.6843261719,       -7.1563720703,       62.3321533203
1494295053.1773550510,       -0.7758789062,        0.5556640625,        0.1552734375,      -32.6843261719,       -7.1563720703,       62.3321533203
1494295053.1800489426,       -0.7758789062,        0.5556640625,        0.1552734375,      -37.1246337891,       -8.8348388672,       68.6645507812
1494295053.1826519966,       -0.7758789062,        0.5556640625,        0.1552734375,      -37.1246337891,       -8.8348388672,       68.6645507812
1494295053.1852118969,       -0.7416992188,        0.5576171875,        0.0971679688,      -36.9720458984,      -10.2386474609,       74.3560791016
1494295053.1877720356,       -0.7416992188,        0.5576171875,        0.0971679688,      -36.9720458984,      -10.2386474609,       74.3560791016
1494295053.1903309822,       -0.7416992188,        0.5576171875,        0.0971679688,      -36.9720458984,      -12.6190185547,       79.5745849609
1494295053.1930189133,       -0.7416992188,        0.5576171875,        0.0971679688,      -36.9720458984,      -12.6190185547,       79.5745849609
1494295053.1956989765,       -0.7597656250,        0.5048828125,        0.0913085938,      -35.7818603516,      -15.2740478516,       83.0383300781
1494295053.1983840466,       -0.7597656250,        0.5048828125,        0.0913085938,      -35.7818603516,      -15.2740478516,       83.0383300781
1494295053.2010641098,       -0.7597656250,        0.5048828125,        0.0913085938,      -34.1644287109,      -17.5018310547,       85.5407714844
1494295053.2038240433,       -0.7597656250,        0.3969726562,        0.1020507812,      -34.1644287109,      -17.5018310547,       85.5407714844
1494295053.2063879967,       -0.7714843750,        0.3969726562,        0.1020507812,      -33.9050292969,      -19.9890136719,       87.4328613281
1494295053.2089500427,       -0.7714843750,        0.3969726562,        0.1020507812,      -33.9050292969,      -19.9890136719,       87.4328613281
1494295053.2117390633,       -0.7714843750,        0.3969726562,        0.1020507812,      -35.7513427734,      -22.7050781250,       88.9282226562
1494295053.2144019604,       -0.7407226562,        0.2915039062,        0.1088867188,      -35.7513427734,      -22.7050781250,       88.9282226562
1494295053.2171549797,       -0.7407226562,        0.2915039062,        0.1088867188,      -39.2456054688,      -26.2451171875,       90.7592773438
1494295053.2203121185,       -0.7407226562,        0.2915039062,        0.1088867188,      -39.2456054688,      -26.2451171875,       90.7592773438
1494295053.2230310440,       -0.7407226562,        0.2915039062,        0.1088867188,      -42.6635742188,      -29.5257568359,       91.8579101562
1494295053.2257299423,       -0.6992187500,        0.2050781250,        0.0913085938,      -42.6635742188,      -29.5257568359,       91.8579101562
1494295053.2284328938,       -0.6992187500,        0.2050781250,        0.0913085938,      -44.8608398438,      -32.3638916016,       92.1325683594
1494295053.2311611176,       -0.6992187500,        0.2050781250,        0.0913085938,      -44.8608398438,      -32.3638916016,       92.1325683594
1494295053.2337169647,       -0.6992187500,        0.2050781250,        0.0683593750,      -46.5393066406,      -33.0963134766,       92.9870605469
1494295053.2362809181,       -0.6650390625,        0.1499023438,        0.0683593750,      -46.5393066406,      -33.0963134766,       92.9870605469
1494295053.2388429642,       -0.6650390625,        0.1499023438,        0.0683593750,      -45.3338623047,      -33.6303710938,       94.3145751953
1494295053.2414529324,       -0.6650390625,        0.1499023438,        0.0683593750,      -45.3338623047,      -33.6303710938,       94.3145751953
1494295053.2441558838,       -0.6650390625,        0.0698242188,        0.0527343750,      -42.3736572266,      -34.8663330078,       96.6033935547
1494295053.2468550205,       -0.6420898438,        0.0698242188,        0.0527343750,      -42.3736572266,      -34.8663330078,       96.6033935547
1494295053.2495579720,       -0.6420898438,        0.0698242188,        0.0527343750,      -37.6892089844,      -35.2630615234,       98.7854003906
1494295053.2521970272,       -0.6420898438,        0.0698242188,        0.0527343750,      -37.6892089844,      -35.2630615234,       98.7854003906
1494295053.2547519207,       -0.5957031250,       -0.0776367188,        0.0249023438,      -30.9753417969,      -36.5753173828,       99.5025634766
1494295053.2573089600,       -0.5957031250,       -0.0776367188,        0.0249023438,      -30.9753417969,      -36.5753173828,       99.5025634766
1494295053.2598700523,       -0.5957031250,       -0.0776367188,        0.0249023438,      -23.1628417969,      -37.1856689453,       98.6022949219
1494295053.2626149654,       -0.5957031250,       -0.0776367188,        0.0249023438,      -20.4010009766,      -37.1856689453,       98.6022949219
1494295053.2651720047,       -0.5463867188,       -0.2500000000,       -0.1093750000,      -20.4010009766,      -37.1856689453,       95.0622558594
1494295053.2677359581,       -0.5463867188,       -0.2500000000,       -0.1093750000,       -6.8817138672,      -35.5987548828,       95.0622558594
1494295053.2702910900,       -0.5463867188,       -0.2500000000,       -0.1093750000,       -6.8817138672,      -35.5987548828,       89.9047851562
1494295053.2730970383,       -0.5463867188,       -0.2500000000,       -0.1093750000,        8.7127685547,      -32.7301025391,       89.9047851562
1494295053.2757909298,       -0.4995117188,       -0.5336914062,       -0.2583007812,        8.7127685547,      -32.7301025391,       82.3669433594
1494295053.2784950733,       -0.4995117188,       -0.5336914062,       -0.2583007812,       27.1148681641,      -28.5339355469,       82.3669433594
1494295053.2811830044,       -0.4995117188,       -0.5336914062,       -0.2583007812,       27.1148681641,      -28.5339355469,       69.9920654297
1494295053.2837429047,       -0.4995117188,       -0.5336914062,       -0.2583007812,       47.7447509766,      -23.5595703125,       69.9920654297
1494295053.2862999439,       -0.4707031250,       -0.8984375000,       -0.3432617188,       47.7447509766,      -23.5595703125,       69.9920654297
1494295053.2888550758,       -0.4707031250,       -0.8984375000,       -0.3432617188,       65.3228759766,      -17.9290771484,       54.5806884766
1494295053.2915129662,       -0.4707031250,       -0.8984375000,       -0.3432617188,       65.3228759766,      -17.9290771484,       54.5806884766
1494295053.2943210602,       -0.4707031250,       -1.2734375000,       -0.4096679688,       73.6236572266,      -13.7176513672,       37.9486083984
1494295053.2970221043,       -0.4526367188,       -1.3442382812,       -0.4096679688,       73.6236572266,      -13.7176513672,       37.9486083984
1494295053.2997250557,       -0.4526367188,       -1.3442382812,       -0.4096679688,       72.7233886719,       -9.4909667969,       18.9056396484
1494295053.3024220467,       -0.4526367188,       -1.3442382812,       -0.4096679688,       72.7233886719,       -9.4909667969,       18.9056396484
1494295053.3051090240,       -0.4414062500,       -1.7548828125,       -0.2827148438,       62.0727539062,       -5.3558349609,       -1.6479492188
1494295053.3077960014,       -0.4414062500,       -1.7548828125,       -0.2827148438,       62.0727539062,       -5.3558349609,       -1.6479492188
1494295053.3104889393,       -0.4414062500,       -1.7548828125,       -0.2827148438,       48.5076904297,       -7.2479248047,      -21.2402343750
1494295053.3132588863,       -0.4414062500,       -1.7548828125,       -0.2827148438,       48.5076904297,       -7.2479248047,      -21.2402343750
1494295053.3159561157,       -0.7226562500,       -0.7895507812,        0.2841796875,       33.1573486328,       -9.6435546875,      -28.4576416016
1494295053.3186430931,       -0.7226562500,       -0.7895507812,        0.2841796875,       33.1573486328,       -9.6435546875,      -28.4576416016
1494295053.3213551044,       -0.7226562500,       -0.7895507812,        0.2841796875,       -1.5411376953,       -6.1340332031,      -15.7012939453
1494295053.3240480423,       -0.7226562500,       -0.7895507812,        0.2841796875,       -1.5411376953,       -6.1340332031,      -15.7012939453
1494295053.3267750740,       -1.1342773438,        0.5400390625,        0.2719726562,      -48.5076904297,       -8.6822509766,       -1.9531250000
1494295053.3295609951,       -1.1342773438,        0.5400390625,        0.2719726562,      -48.5076904297,       -8.6822509766,       -1.9531250000
1494295053.3324489594,       -1.1342773438,        0.5400390625,        0.2719726562,      -73.8677978516,      -12.0391845703,        4.3182373047
1494295053.3350069523,       -1.1342773438,        0.9311523438,        0.2548828125,      -73.8677978516,      -12.0391845703,        4.3182373047
1494295053.3375639915,       -1.3549804688,        0.9311523438,        0.2548828125,      -64.3310546875,      -11.5203857422,       15.9301757812
1494295053.3401250839,       -1.3549804688,        0.9311523438,        0.2548828125,      -64.3310546875,      -11.5203857422,       15.9301757812
1494295053.3428149223,       -1.3549804688,        0.9311523438,        0.2548828125,      -43.9453125000,       -9.4604492188,       34.2712402344
1494295053.3455090523,       -1.1894531250,        0.5932617188,       -0.1547851562,      -43.9453125000,       -9.4604492188,       34.2712402344
1494295053.3482079506,       -1.1894531250,        0.5932617188,       -0.1547851562,      -20.1873779297,      -12.9699707031,       39.3066406250
1494295053.3509449959,       -1.1894531250,        0.5932617188,       -0.1547851562,      -20.1873779297,      -12.9699707031,       39.3066406250
1494295053.3536360264,       -1.1894531250,        0.5932617188,       -0.1547851562,        0.9613037109,      -19.0277099609,       33.1726074219
1494295053.3563299179,       -0.7768554688,       -0.1489257812,       -0.2348632812,        0.9613037109,      -19.0277099609,       33.1726074219
1494295053.3590209484,       -0.7768554688,       -0.1489257812,       -0.2348632812,        2.2583007812,      -21.9421386719,       32.3791503906
1494295053.3617119789,       -0.7768554688,       -0.1489257812,       -0.2348632812,        2.2583007812,      -21.9421386719,       32.3791503906
1494295053.3642659187,       -0.7768554688,       -0.1489257812,       -0.2348632812,      -11.2457275391,      -20.6756591797,       38.0096435547
1494295053.3668251038,       -0.6391601562,       -0.1787109375,       -0.2045898438,      -11.2457275391,      -20.6756591797,       38.0096435547
1494295053.3694980145,       -0.6391601562,       -0.1787109375,       -0.2045898438,      -26.6265869141,      -19.5312500000,       42.0379638672
1494295053.3721120358,       -0.6391601562,       -0.1787109375,       -0.2045898438,      -26.6265869141,      -19.5312500000,       42.0379638672
1494295053.3746709824,       -0.6391601562,       -0.1787109375,       -0.0795898438,      -37.1856689453,      -19.6380615234,       42.5109863281
1494295053.3772320747,       -0.5854492188,        0.1904296875,       -0.1201171875,      -37.1856689453,      -19.6380615234,       42.5109863281
1494295053.3797900677,       -0.5854492188,        0.1904296875,       -0.1201171875,      -37.1856689453,      -18.9056396484,       39.7033691406
1494295053.3824589252,       -0.5854492188,        0.1904296875,       -0.1201171875,      -38.4674072266,      -18.9056396484,       39.7033691406
1494295053.3850209713,       -0.5854492188,        0.1904296875,       -0.0322265625,      -38.4674072266,      -18.6767578125,       37.0941162109
1494295053.3875780106,       -0.5981445312,        0.4223632812,       -0.0322265625,      -32.6995849609,      -18.6767578125,       37.0941162109
1494295053.3901450634,       -0.5981445312,        0.4223632812,       -0.0322265625,      -32.6995849609,      -18.6767578125,       35.8581542969
1494295053.3929378986,       -0.5981445312,        0.4223632812,       -0.0322265625,      -24.8107910156,      -19.1650390625,       35.8581542969
1494295053.3956360817,       -0.5981445312,        0.4428710938,        0.0346679688,      -24.8107910156,      -23.0712890625,       37.5061035156
1494295053.3983380795,       -0.5878906250,        0.4428710938,        0.0346679688,      -19.4244384766,      -20.5993652344,       37.5061035156
1494295053.4010488987,       -0.5878906250,        0.4428710938,        0.0346679688,      -19.4244384766,      -20.5993652344,       40.6951904297
1494295053.4037539959,       -0.5878906250,        0.4428710938,        0.0346679688,      -19.4702148438,      -23.9868164062,       40.6951904297
1494295053.4064590931,       -0.5634765625,        0.3413085938,        0.0678710938,      -19.4702148438,      -23.9868164062,       41.9616699219
1494295053.4091589451,       -0.5634765625,        0.3413085938,        0.0678710938,      -17.6544189453,      -25.7720947266,       41.9616699219
1494295053.4118680954,       -0.5634765625,        0.3413085938,        0.0678710938,      -17.6544189453,      -25.7720947266,       42.0989990234
1494295053.4145660400,       -0.5634765625,        0.3413085938,        0.0678710938,      -14.1906738281,      -26.8859863281,       42.0989990234
1494295053.4172658920,       -0.5297851562,        0.2749023438,        0.0209960938,      -14.1906738281,      -26.8859863281,       42.9687500000
1494295053.4199759960,       -0.5297851562,        0.2749023438,        0.0209960938,      -10.2081298828,      -28.2440185547,       42.9687500000
1494295053.4225718975,       -0.5297851562,        0.2749023438,        0.0209960938,      -10.2081298828,      -28.2440185547,       42.9687500000
1494295053.4251348972,       -0.5297851562,        0.2749023438,       -0.1040039062,       -6.2866210938,      -29.9835205078,       43.4112548828
1494295053.4276878834,       -0.5566406250,        0.2617187500,       -0.0561523438,       -6.2866210938,      -29.9835205078,       43.4112548828
1494295053.4302430153,       -0.5566406250,        0.2617187500,       -0.0561523438,       -1.8157958984,      -29.7393798828,       43.6859130859
1494295053.4329750538,       -0.5566406250,        0.2617187500,       -0.0561523438,       -1.8157958984,      -29.7393798828,       43.6859130859
1494295053.4356579781,       -0.5566406250,        0.2617187500,        0.0180664062,       -0.9460449219,      -29.7698974609,       43.7622070312
1494295053.4383380413,       -0.4985351562,        0.2578125000,        0.0180664062,       -0.9460449219,      -29.7698974609,       43.7622070312
1494295053.4411399364,       -0.4985351562,        0.2578125000,        0.0180664062,       -1.4190673828,      -27.5726318359,       44.0216064453
1494295053.4438219070,       -0.4985351562,        0.2578125000,        0.0180664062,       -1.4190673828,      -27.5726318359,       44.0216064453
1494295053.4465029240,       -0.5224609375,        0.3198242188,        0.0952148438,       -1.8310546875,      -24.7497558594,       44.2657470703
1494295053.4493429661,       -0.5224609375,        0.3198242188,        0.0952148438,       -1.8310546875,      -24.7497558594,       40.3594970703
1494295053.4523680210,       -0.5224609375,        0.3198242188,        0.0952148438,       -2.1362304688,      -22.4151611328,       42.3736572266
1494295053.4550731182,       -0.5224609375,        0.3198242188,        0.0952148438,       -2.1362304688,      -22.4151611328,       42.3736572266
1494295053.4577660561,       -0.6455078125,        0.3422851562,        0.0883789062,        0.0915527344,      -19.9127197266,       39.3676757812
1494295053.4604649544,       -0.6455078125,        0.3422851562,        0.0883789062,        0.0915527344,      -19.9127197266,       35.4614257812
1494295053.4631779194,       -0.6455078125,        0.3422851562,        0.0883789062,        1.6021728516,      -17.5170898438,       36.5447998047
1494295053.4658699036,       -0.6455078125,        0.3422851562,       -0.0415039062,        1.6021728516,      -17.5170898438,       36.5447998047
1494295053.4685699940,       -0.7851562500,        0.3247070312,       -0.0415039062,        3.0975341797,      -16.3726806641,       35.4766845703
1494295053.4712710381,       -0.7851562500,        0.3247070312,       -0.0415039062,        3.0975341797,      -16.3726806641,       35.4766845703
1494295053.4739680290,       -0.7851562500,        0.3247070312,       -0.0415039062,        2.5024414062,      -15.6097412109,       35.3851318359
1494295053.4766650200,       -0.7890625000,        0.3041992188,       -0.0444335938,        2.5024414062,      -15.6097412109,       35.3851318359
1494295053.4793639183,       -0.7890625000,        0.3041992188,       -0.0444335938,       -0.1831054688,       -9.8266601562,       37.8112792969
1494295053.4820048809,       -0.7890625000,        0.3041992188,       -0.0444335938,       -0.1831054688,       -9.8266601562,       37.8112792969
1494295053.4845581055,       -0.7890625000,        0.3041992188,       -0.0444335938,       -5.3253173828,       -1.2359619141,       40.5120849609
1494295053.4871139526,       -0.9726562500,        0.1928710938,       -0.0551757812,       -5.3253173828,       -1.2359619141,       40.5120849609
1494295053.4896659851,       -0.9726562500,        0.1928710938,       -0.0551757812,      -12.5732421875,        4.0435791016,       42.2668457031
1494295053.4922780991,       -0.9726562500,        0.1928710938,       -0.0551757812,      -12.5732421875,        4.0435791016,       42.2668457031
1494295053.4948399067,       -0.9726562500,        0.1928710938,       -0.0551757812,      -20.5078125000,        7.0800781250,       44.0521240234
1494295053.4973969460,       -1.0751953125,        0.0732421875,        0.1611328125,      -20.5078125000,        7.0800781250,       44.0521240234
1494295053.4999558926,       -1.0751953125,        0.0732421875,        0.1611328125,      -28.7475585938,        7.5378417969,       43.2434082031
1494295053.5026650429,       -1.0751953125,        0.0732421875,        0.1611328125,      -28.7475585938,        7.5378417969,       43.2434082031
1494295053.5052249432,       -1.0751953125,        0.0732421875,        0.1611328125,      -37.9028320312,        5.4321289062,       41.1376953125
1494295053.5077810287,       -1.0180664062,       -0.0087890625,        0.3486328125,      -37.9028320312,        5.4321289062,       41.1376953125
1494295053.5103430748,       -1.0180664062,       -0.0087890625,        0.3486328125,      -45.7153320312,        1.8920898438,       41.7327880859
1494295053.5131089687,       -1.0180664062,       -0.0087890625,        0.3486328125,      -44.1131591797,        1.8920898438,       41.7327880859
1494295053.5159239769,       -1.0180664062,       -0.0087890625,        0.3486328125,      -44.8455810547,       -0.6713867188,       44.0979003906
1494295053.5186278820,       -0.9448242188,        0.0761718750,        0.3408203125,      -44.8455810547,       -0.6713867188,       44.0979003906
1494295053.5213639736,       -0.9448242188,        0.0761718750,        0.3408203125,      -44.6319580078,       -3.2806396484,       44.7387695312
1494295053.5240650177,       -0.9448242188,        0.0761718750,        0.3408203125,      -44.6319580078,       -3.2806396484,       44.7387695312
1494295053.5267589092,       -0.9448242188,        0.2119140625,        0.2099609375,      -44.6319580078,       -5.0048828125,       44.4793701172
1494295053.5294589996,       -0.7250976562,        0.2119140625,        0.2099609375,      -43.3197021484,       -5.0048828125,       44.4793701172
1494295053.5320980549,       -0.7250976562,        0.2119140625,        0.2099609375,      -43.3197021484,       -5.2795410156,       42.9840087891
1494295053.5346529484,       -0.7250976562,        0.2119140625,        0.2099609375,      -37.7960205078,       -5.2795410156,       42.9840087891
1494295053.5372149944,       -0.5732421875,        0.3886718750,        0.0551757812,      -37.7960205078,       -5.2795410156,       40.5426025391
1494295053.5397729874,       -0.5732421875,        0.3886718750,        0.0551757812,      -30.8532714844,       -3.2348632812,       40.5426025391
1494295053.5423419476,       -0.5732421875,        0.3886718750,        0.0551757812,      -30.8532714844,       -3.2348632812,       40.5426025391
1494295053.5449030399,       -0.5732421875,        0.3886718750,        0.0551757812,      -24.4903564453,       -0.2593994141,       39.2913818359
1494295053.5474610329,       -0.5825195312,        0.4770507812,       -0.0302734375,      -24.4903564453,       -0.2593994141,       39.2913818359
1494295053.5500171185,       -0.5825195312,        0.4770507812,       -0.0302734375,      -16.5252685547,        2.8686523438,       38.1164550781
1494295053.5527069569,       -0.5825195312,        0.4770507812,       -0.0302734375,      -16.5252685547,        2.8686523438,       38.1164550781
1494295053.5552649498,       -0.5825195312,        0.4770507812,       -0.0302734375,       -9.9487304688,        6.0272216797,       34.9426269531
1494295053.5578238964,       -0.6494140625,        0.4423828125,       -0.0029296875,       -9.9487304688,        6.0272216797,       34.9426269531
1494295053.5603768826,       -0.6494140625,        0.4423828125,       -0.0029296875,      -14.5263671875,        7.6599121094,       28.2440185547
1494295053.5631170273,       -0.6494140625,        0.4423828125,       -0.0029296875,      -14.5263671875,        7.6599121094,       28.2440185547
1494295053.5657839775,       -0.6494140625,        0.4423828125,       -0.0029296875,      -12.9699707031,        7.0495605469,       25.8026123047
1494295053.5687201023,       -0.6298828125,        0.1977539062,        0.1547851562,      -12.9699707031,        7.0495605469,       25.8026123047
1494295053.5717461109,       -0.6298828125,        0.1977539062,        0.1547851562,      -13.4277343750,        4.2572021484,       24.2919921875
1494295053.5744500160,       -0.6298828125,        0.1977539062,        0.1547851562,      -13.4277343750,        4.2572021484,       24.2919921875
1494295053.5771450996,       -0.6298828125,        0.2314453125,        0.2104492188,      -22.2473144531,        1.7089843750,       20.2789306641
1494295053.5798430443,       -0.6015625000,        0.2314453125,        0.2104492188,      -22.2473144531,        1.7089843750,       20.2789306641
1494295053.5824799538,       -0.6015625000,        0.2314453125,        0.2104492188,      -33.0657958984,       -1.6326904297,       16.0217285156
1494295053.5850360394,       -0.6015625000,        0.2314453125,        0.2104492188,      -33.0657958984,       -1.6326904297,       16.0217285156
1494295053.5875940323,       -0.4677734375,        0.2812500000,        0.1137695312,      -26.0620117188,       -2.3956298828,       15.5029296875
1494295053.5902578831,       -0.4677734375,        0.2812500000,        0.1137695312,      -26.0620117188,       -2.3956298828,       15.5029296875
1494295053.5929839611,       -0.4677734375,        0.2812500000,        0.1137695312,      -17.8833007812,       -0.2288818359,       14.0380859375
1494295053.5956780910,       -0.4677734375,        0.2812500000,        0.1137695312,      -17.8833007812,       -0.2288818359,       14.0380859375
1494295053.5983760357,       -0.4902343750,        0.5327148438,        0.0029296875,      -16.9677734375,        2.1362304688,       11.0321044922
1494295053.6010661125,       -0.4902343750,        0.5327148438,        0.0029296875,      -16.9677734375,        2.1362304688,       11.0321044922
1494295053.6036260128,       -0.4902343750,        0.5327148438,        0.0029296875,      -18.0053710938,        5.8441162109,        8.4838867188
1494295053.6061809063,       -0.4902343750,        0.5327148438,        0.0029296875,      -18.0053710938,        5.8441162109,        8.4838867188
1494295053.6087400913,       -0.5893554688,        0.4794921875,       -0.1137695312,       -7.3852539062,        9.3994140625,        7.5073242188
1494295053.6113340855,       -0.5893554688,        0.4794921875,       -0.1137695312,       -7.3852539062,        9.3994140625,        7.5073242188
1494295053.6138880253,       -0.5893554688,        0.4794921875,       -0.1137695312,      -11.2915039062,       14.8925781250,        6.2408447266
1494295053.6164419651,       -0.5893554688,        0.4794921875,       -0.1137695312,       -7.9345703125,       14.8925781250,        6.2408447266
1494295053.6189970970,       -0.7543945312,        0.4858398438,       -0.0815429688,       -7.9345703125,       18.7988281250,        7.4310302734
1494295053.6216619015,       -0.7543945312,        0.4858398438,       -0.0815429688,      -17.5781250000,       18.0816650391,        7.4310302734
1494295053.6242148876,       -0.7543945312,        0.4858398438,       -0.0815429688,      -17.5781250000,       18.0816650391,        9.8114013672
1494295053.6267659664,       -0.7543945312,        0.4858398438,        0.0434570312,      -21.4691162109,       23.0865478516,        9.8114013672
1494295053.6293330193,       -0.7617187500,        0.3002929688,        0.0483398438,      -21.4691162109,       23.0865478516,       12.4969482422
1494295053.6320381165,       -0.7617187500,        0.3002929688,        0.0483398438,      -19.0887451172,       27.5726318359,       12.4969482422
1494295053.6346070766,       -0.7617187500,        0.3002929688,        0.0483398438,      -19.0887451172,       27.5726318359,       12.4969482422
1494295053.6371679306,       -0.7617187500,        0.3002929688,        0.2177734375,      -28.1372070312,       28.0914306641,       13.1530761719
1494295053.6397230625,       -0.8364257812,        0.1665039062,        0.2177734375,      -28.1372070312,       28.0914306641,       13.1530761719
1494295053.6424190998,       -0.8364257812,        0.1665039062,        0.2177734375,      -30.6091308594,       28.9306640625,       14.0991210938
1494295053.6451199055,       -0.8364257812,        0.1665039062,        0.2177734375,      -30.6091308594,       28.9306640625,       14.0991210938
1494295053.6478168964,       -0.8364257812,        0.1547851562,        0.2753906250,      -20.3857421875,       28.9001464844,       15.9301757812
1494295053.6505200863,       -0.8520507812,        0.1547851562,        0.2753906250,      -20.3857421875,       28.9001464844,       15.9301757812
1494295053.6532330513,       -0.8520507812,        0.1547851562,        0.2753906250,      -14.9230957031,       27.9388427734,       15.4113769531
1494295053.6559400558,       -0.8520507812,        0.1547851562,        0.2753906250,      -14.9230957031,       27.9388427734,       15.4113769531
1494295053.6586380005,       -0.8193359375,        0.2509765625,        0.1342773438,      -10.5590820312,       26.6571044922,       14.6789550781
1494295053.6614298820,       -0.8193359375,        0.2509765625,        0.1342773438,      -10.5590820312,       26.6571044922,       14.6789550781
1494295053.6639969349,       -0.8193359375,        0.2509765625,        0.1342773438,       -7.9803466797,       26.0467529297,       13.8244628906
1494295053.6665530205,       -0.8193359375,        0.2509765625,        0.1342773438,       -7.9803466797,       26.0467529297,       13.8244628906
1494295053.6691060066,       -0.6713867188,        0.3598632812,        0.0166015625,       -6.3018798828,       25.5279541016,       13.2598876953
1494295053.6718070507,       -0.6713867188,        0.3598632812,        0.0166015625,       -6.3018798828,       25.5279541016,       13.2598876953
1494295053.6745119095,       -0.6713867188,        0.3598632812,        0.0166015625,       -7.0190429688,       24.7344970703,       12.1765136719
1494295053.6772100925,       -0.6713867188,        0.3598632812,       -0.1083984375,       -7.0190429688,       24.7344970703,       12.1765136719
1494295053.6799070835,       -0.6289062500,        0.4243164062,       -0.0605468750,      -11.5203857422,       24.0936279297,       10.2386474609
1494295053.6825280190,       -0.6289062500,        0.4243164062,       -0.0605468750,      -11.5203857422,       24.0936279297,       10.2386474609
1494295053.6850919724,       -0.6289062500,        0.4243164062,       -0.0605468750,       -6.8054199219,       24.4750976562,        9.8876953125
1494295053.6877930164,       -0.6289062500,        0.2993164062,       -0.0678710938,       -6.8054199219,       24.4750976562,        9.8876953125
1494295053.6903450489,       -0.6879882812,        0.3657226562,       -0.0678710938,       -4.9591064453,       23.6663818359,        9.3231201172
1494295053.6932458878,       -0.6879882812,        0.3657226562,       -0.0678710938,       -4.9591064453,       23.6663818359,        9.3231201172
1494295053.6959400177,       -0.6879882812,        0.3657226562,       -0.0678710938,       -4.6997070312,       22.0642089844,        8.4838867188
1494295053.6986329556,       -0.7480468750,        0.3115234375,       -0.0332031250,       -4.6997070312,       22.0642089844,        8.4838867188
1494295053.7013731003,       -0.7480468750,        0.3115234375,       -0.0332031250,       -4.1961669922,       19.1497802734,        7.5836181641
1494295053.7040660381,       -0.7480468750,        0.3115234375,       -0.0332031250,       -4.1961669922,       19.1497802734,        7.5836181641
1494295053.7067620754,       -0.7480468750,        0.3115234375,       -0.0332031250,       -2.6855468750,       15.0756835938,        6.8359375000
1494295053.7094550133,       -0.8022460938,        0.3120117188,       -0.0854492188,       -2.6855468750,       15.0756835938,        6.8359375000
1494295053.7121610641,       -0.8022460938,        0.3120117188,       -0.0854492188,        0.7019042969,       10.4827880859,        5.6304931641
1494295053.7148540020,       -0.8022460938,        0.3120117188,       -0.0854492188,        0.7019042969,       10.4827880859,        5.6304931641
1494295053.7175428867,       -0.8022460938,        0.3120117188,       -0.2104492188,        3.3721923828,        6.7291259766,        4.8370361328
1494295053.7202320099,       -0.8510742188,        0.3281250000,       -0.1420898438,        3.3721923828,        6.7291259766,        4.8370361328
1494295053.7228479385,       -0.8510742188,        0.3281250000,       -0.1420898438,        3.8299560547,        4.2724609375,        4.5928955078
1494295053.7253921032,       -0.8510742188,        0.3281250000,       -0.1420898438,        3.8299560547,        4.2724609375,        4.5928955078
1494295053.7279419899,       -0.8510742188,        0.3281250000,       -0.0610351562,        3.8299560547,        2.6702880859,        5.1269531250
1494295053.7304859161,       -0.7368164062,        0.3247070312,       -0.0610351562,        3.0975341797,        2.6702880859,        5.1269531250
1494295053.7330749035,       -0.7368164062,        0.3247070312,       -0.0610351562,        3.0975341797,        2.6702880859,        5.3710937500
1494295053.7357289791,       -0.7368164062,        0.3247070312,       -0.0610351562,        2.8839111328,        1.0070800781,        5.3710937500
1494295053.7382779121,       -0.7368164062,        0.3247070312,        0.0214843750,        2.8839111328,        1.0070800781,        5.3710937500
1494295053.7409958839,       -0.7104492188,        0.2890625000,        0.0214843750,        3.7536621094,       -1.9378662109,        4.7454833984
1494295053.7435419559,       -0.7104492188,        0.2890625000,        0.0214843750,        3.7536621094,       -1.9378662109,        4.7454833984
1494295053.7460908890,       -0.7104492188,        0.2890625000,        0.0214843750,        3.0517578125,       -4.4708251953,        3.9825439453
1494295053.7486391068,       -0.7104492188,        0.3422851562,       -0.0092773438,        3.0517578125,       -4.4708251953,        3.9825439453
1494295053.7512838840,       -0.7250976562,        0.3422851562,       -0.0092773438,        2.3498535156,       -5.5847167969,        3.6468505859
1494295053.7539649010,       -0.7250976562,        0.3422851562,       -0.0092773438,        2.3498535156,       -5.5847167969,        3.6468505859
1494295053.7566339970,       -0.7250976562,        0.3422851562,       -0.0092773438,        3.3721923828,       -5.9356689453,        2.6550292969
1494295053.7593030930,       -0.7163085938,        0.4204101562,       -0.0371093750,        3.3721923828,       -5.9356689453,        2.6550292969
1494295053.7619891167,       -0.7163085938,        0.4204101562,       -0.0371093750,        4.3182373047,       -4.8675537109,        0.6561279297
1494295053.7646598816,       -0.7163085938,        0.4204101562,       -0.0371093750,        4.3182373047,       -4.8675537109,        0.6561279297
1494295053.7673380375,       -0.7163085938,        0.4204101562,       -0.0371093750,        5.4779052734,       -3.7536621094,       -1.0986328125
1494295053.7700080872,       -0.6933593750,        0.4047851562,        0.0136718750,        5.4779052734,       -3.7536621094,       -1.0986328125
1494295053.7726850510,       -0.6933593750,        0.4047851562,        0.0136718750,        6.6986083984,       -2.2430419922,       -3.4332275391
1494295053.7753601074,       -0.6933593750,        0.4047851562,        0.0136718750,        6.6986083984,       -2.2430419922,       -3.4332275391
1494295053.7780311108,       -0.6933593750,        0.4047851562,        0.0136718750,        8.1329345703,       -1.2817382812,       -4.3792724609
1494295053.7807099819,       -0.6914062500,        0.3198242188,        0.0766601562,        8.1329345703,       -1.2817382812,       -4.3792724609
1494295053.7833919525,       -0.6914062500,        0.3198242188,        0.0766601562,        7.8735351562,        0.5187988281,       -4.1809082031
1494295053.7860660553,       -0.6914062500,        0.3198242188,        0.0766601562,        7.8735351562,        0.5187988281,       -4.1809082031
1494295053.7887361050,       -0.6914062500,        0.3198242188,        0.1313476562,        7.5531005859,        2.0141601562,       -4.1198730469
1494295053.7914209366,       -0.7329101562,        0.2519531250,        0.1313476562,        7.5531005859,        2.0141601562,       -4.1198730469
1494295053.7940909863,       -0.7329101562,        0.2519531250,        0.1313476562,        6.8054199219,        2.3040771484,       -4.7912597656
1494295053.7967610359,       -0.7329101562,        0.2519531250,        0.1313476562,        6.8054199219,        2.3040771484,       -4.7912597656
1494295053.7994298935,       -0.7539062500,        0.2700195312,        0.1293945312,        7.4157714844,        1.7547607422,       -6.6223144531
1494295053.8021469116,       -0.7539062500,        0.2700195312,        0.1293945312,        7.4157714844,        1.7547607422,       -6.6223144531
1494295053.8048179150,       -0.7539062500,        0.2700195312,        0.1293945312,        7.3699951172,        1.4190673828,       -8.6212158203
1494295053.8075640202,       -0.7539062500,        0.2700195312,        0.1293945312,        7.3699951172,        1.4190673828,       -8.6212158203
1494295053.8103690147,       -0.7875976562,        0.3212890625,        0.0629882812,        7.6904296875,        2.0904541016,      -11.4440917969
1494295053.8132679462,       -0.7875976562,        0.3212890625,        0.0629882812,        7.6904296875,        2.0904541016,      -11.4440917969
1494295053.8161780834,       -0.7875976562,        0.3212890625,        0.0629882812,        9.2926025391,        2.5177001953,      -11.6882324219
1494295053.8188719749,       -0.7875976562,        0.3212890625,       -0.0302734375,        9.2926025391,        2.5177001953,      -11.6882324219
1494295053.8215351105,       -0.7802734375,        0.3706054688,       -0.0302734375,       12.2070312500,        4.2724609375,      -13.9160156250
1494295053.8240919113,       -0.7802734375,        0.3706054688,       -0.0302734375,       12.2070312500,        4.2724609375,      -13.9160156250
1494295053.8266530037,       -0.7802734375,        0.3706054688,       -0.0302734375,       16.0827636719,        6.5307617188,      -16.5863037109
1494295053.8292078972,       -0.7802734375,        0.3046875000,       -0.0161132812,       16.0827636719,        6.5307617188,      -16.5863037109
1494295053.8318428993,       -0.8637695312,        0.3046875000,       -0.0161132812,       18.7683105469,        8.1176757812,      -20.6756591797
1494295053.8345360756,       -0.8637695312,        0.3046875000,       -0.0161132812,       18.7683105469,        8.1176757812,      -20.6756591797
1494295053.8372280598,       -0.8637695312,        0.3046875000,       -0.0161132812,       20.4467773438,        9.4604492188,      -25.0244140625
1494295053.8399260044,       -0.9926757812,        0.2797851562,       -0.0068359375,       20.4467773438,        9.4604492188,      -25.0244140625
1494295053.8425331116,       -0.9926757812,        0.2797851562,       -0.0068359375,       20.4467773438,       10.3149414062,      -28.2592773438
1494295053.8450949192,       -0.9926757812,        0.2797851562,       -0.0068359375,       21.1944580078,       10.3149414062,      -28.2592773438
1494295053.8476619720,       -0.9926757812,        0.2797851562,       -0.0068359375,       21.1944580078,       10.3149414062,      -28.1982421875
1494295053.8502199650,       -1.0112304688,        0.3588867188,        0.0537109375,       23.0560302734,       11.3372802734,      -28.1982421875
1494295053.8527851105,       -1.0112304688,        0.3588867188,        0.0537109375,       23.0560302734,       11.3372802734,      -32.9284667969
1494295053.8553450108,       -1.0112304688,        0.3588867188,        0.0537109375,       30.8685302734,       12.9394531250,      -32.9284667969
1494295053.8579020500,       -1.0112304688,        0.3588867188,        0.0537109375,       30.8685302734,       12.9394531250,      -44.6472167969
1494295053.8604590893,       -1.1362304688,        0.1538085938,        0.1220703125,       44.5709228516,       11.5661621094,      -44.5709228516
1494295053.8631680012,       -1.1362304688,        0.1538085938,        0.1220703125,       44.5709228516,       11.5661621094,      -44.5709228516
1494295053.8657300472,       -1.1362304688,        0.1538085938,        0.1220703125,       56.0455322266,        7.7819824219,      -54.3823242188
1494295053.8682880402,       -1.1362304688,        0.1538085938,        0.1220703125,       56.0455322266,        7.7819824219,      -54.3823242188
1494295053.8710300922,       -1.2402343750,        0.1264648438,        0.0781250000,       62.7593994141,        6.9885253906,      -57.9986572266
1494295053.8735969067,       -1.2402343750,        0.1264648438,        0.0781250000,       62.7593994141,        6.9885253906,      -57.9986572266
1494295053.8761470318,       -1.2402343750,        0.1264648438,        0.0781250000,       61.2335205078,        6.5002441406,      -60.6384277344
1494295053.8787000179,       -1.2402343750,        0.1264648438,        0.0781250000,       61.2335205078,        6.5002441406,      -60.6384277344
1494295053.8814120293,       -1.2163085938,        0.1967773438,        0.0102539062,       58.4259033203,        2.3956298828,      -66.4062500000
1494295053.8841071129,       -1.2163085938,        0.1967773438,        0.0102539062,       58.4259033203,        2.3956298828,      -66.4062500000
1494295053.8868029118,       -1.2163085938,        0.1967773438,        0.0102539062,       61.8286132812,        0.8850097656,      -72.5250244141
1494295053.8894960880,       -1.2163085938,        0.3217773438,       -0.0717773438,       61.8286132812,        0.8850097656,      -72.5250244141
1494295053.8922030926,       -1.2216796875,        0.2871093750,       -0.0717773438,       69.8089599609,        2.1057128906,      -77.5756835938
1494295053.8949000835,       -1.2216796875,        0.2871093750,       -0.0717773438,       69.8089599609,        2.1057128906,      -77.5756835938
1494295053.8975849152,       -1.2216796875,        0.2871093750,       -0.0717773438,       75.0732421875,        1.3732910156,      -85.7696533203
1494295053.9002740383,       -1.0712890625,        0.3569335938,       -0.1049804688,       75.0732421875,        1.3732910156,      -85.7696533203
1494295053.9029819965,       -1.0712890625,        0.3569335938,       -0.1049804688,       83.3282470703,       -3.6621093750,      -95.4437255859
1494295053.9056720734,       -1.0712890625,        0.3569335938,       -0.1049804688,       83.3282470703,       -3.6621093750,      -95.4437255859
1494295053.9083640575,       -1.0712890625,        0.3569335938,       -0.1049804688,       87.7990722656,      -10.7421875000,     -103.8360595703
1494295053.9110710621,       -0.8759765625,        0.3583984375,       -0.1376953125,       87.7990722656,      -10.7421875000,     -103.8360595703
1494295053.9137709141,       -0.8759765625,        0.3583984375,       -0.1376953125,       92.0715332031,      -12.4664306641,     -112.4877929688
1494295053.9164690971,       -0.8759765625,        0.3583984375,       -0.1376953125,       92.0715332031,      -12.4664306641,     -112.4877929688
1494295053.9191670418,       -0.8759765625,        0.3583984375,       -0.1376953125,       96.7712402344,      -13.0004882812,     -121.8566894531
1494295053.9218189716,       -0.8144531250,        0.3154296875,       -0.2304687500,       96.7712402344,      -13.0004882812,     -121.8566894531
1494295053.9243860245,       -0.8144531250,        0.3154296875,       -0.2304687500,       99.8687744141,      -13.2293701172,     -133.5601806641
1494295053.9271628857,       -0.8144531250,        0.3154296875,       -0.2304687500,       99.8687744141,      -13.2293701172,     -133.5601806641
1494295053.9297339916,       -0.8144531250,        0.3154296875,       -0.3710937500,      100.1586914062,      -12.7868652344,     -147.0336914062
1494295053.9326500893,       -0.8022460938,        0.2866210938,       -0.3710937500,      100.1586914062,      -12.7868652344,     -147.0336914062
1494295053.9353520870,       -0.8022460938,        0.2866210938,       -0.3710937500,      102.5695800781,       -9.0026855469,     -161.1938476562
1494295053.9380519390,       -0.8022460938,        0.2866210938,       -0.3710937500,      102.5695800781,       -9.0026855469,     -161.1938476562
1494295053.9407579899,       -0.9672851562,        0.1723632812,       -0.5205078125,      109.8327636719,       -4.0130615234,     -177.9479980469
1494295053.9434590340,       -0.9672851562,        0.1723632812,       -0.5205078125,      109.8327636719,       -4.0130615234,     -177.9479980469
1494295053.9461541176,       -0.9672851562,        0.1723632812,       -0.5205078125,      123.9166259766,        3.1433105469,     -198.7915039062
1494295053.9488439560,       -0.9672851562,        0.1723632812,       -0.5205078125,      123.9166259766,        3.1433105469,     -198.7915039062
1494295053.9515559673,       -1.2612304688,       -0.1616210938,       -0.8540039062,      148.4375000000,       13.6108398438,     -222.3968505859
1494295053.9542551041,       -1.2612304688,       -0.1616210938,       -0.8540039062,      148.4375000000,       13.6108398438,     -222.3968505859
1494295053.9570710659,       -1.2612304688,       -0.1616210938,       -0.8540039062,      180.2825927734,       26.0162353516,     -249.4201660156
1494295053.9597759247,       -1.2612304688,       -0.1616210938,       -1.2851562500,      180.2825927734,       26.0162353516,     -249.4201660156
1494295053.9623830318,       -1.7065429688,       -0.7319335938,       -1.2851562500,      220.2758789062,       43.3502197266,     -275.8636474609
1494295053.9649469852,       -1.7065429688,       -0.7319335938,       -1.2851562500,      220.2758789062,       43.3502197266,     -275.8636474609
1494295053.9675059319,       -1.7065429688,       -0.7319335938,       -1.2851562500,      220.2758789062,       61.7370605469,     -298.7518310547
1494295053.9700639248,       -1.7065429688,       -0.7319335938,       -1.4560546875,      256.6070556641,       61.7370605469,     -298.7518310547
1494295053.9726729393,       -2.7226562500,       -0.4741210938,       -1.4560546875,      256.6070556641,       61.7370605469,     -300.2319335938
1494295053.9752290249,       -2.7226562500,       -0.4741210938,       -1.4560546875,      270.3094482422,       76.7517089844,     -300.2319335938
1494295053.9777889252,       -2.7226562500,       -0.4741210938,       -1.4560546875,      270.3094482422,       76.7517089844,     -272.8881835938
1494295053.9803481102,       -2.7226562500,        0.5419921875,       -0.7353515625,      285.5987548828,       92.1173095703,     -272.3236083984
1494295053.9830360413,       -4.8515625000,        0.5419921875,       -0.7353515625,      285.5987548828,       92.1173095703,     -272.3236083984
1494295053.9856019020,       -4.8515625000,        0.5419921875,       -0.7353515625,      288.8031005859,       59.8602294922,     -239.9444580078
1494295053.9881670475,       -4.8515625000,        0.5419921875,       -0.7353515625,      288.8031005859,       59.8602294922,     -239.9444580078
1494295053.9907910824,       -4.9765625000,        3.6450195312,        1.9155273438,      256.0119628906,       -1.3885498047,     -232.0556640625
1494295053.9934930801,       -4.9628906250,        3.6450195312,        1.9155273438,      256.0119628906,       -1.3885498047,     -232.0556640625
1494295053.9961869717,       -4.9628906250,        3.6450195312,        1.9155273438,      210.9832763672,       55.6640625000,     -310.6079101562
1494295053.9988789558,       -4.9628906250,        3.6450195312,        1.9155273438,      210.9832763672,       55.6640625000,     -310.6079101562
1494295054.0015890598,       -0.7387695312,        3.8002929688,        1.7294921875,      164.9017333984,      120.1782226562,     -434.4482421875
1494295054.0042889118,       -0.7387695312,        3.8002929688,        1.7294921875,      164.9017333984,      120.1782226562,     -434.4482421875
1494295054.0069909096,       -0.7387695312,        3.8002929688,        1.7294921875,      159.8815917969,       52.3834228516,     -421.6156005859
1494295054.0096840858,       -0.7387695312,        3.8002929688,        1.7294921875,      159.8815917969,       52.3834228516,     -421.6156005859
1494295054.0123939514,        1.0727539062,        0.8159179688,        1.6577148438,      179.2602539062,       27.3132324219,     -259.6282958984
1494295054.0150940418,        1.0727539062,        0.8159179688,        1.6577148438,      179.2602539062,       27.3132324219,     -259.6282958984
1494295054.0177919865,        1.0727539062,        0.8159179688,        1.6577148438,      196.3348388672,       -1.4038085938,      -33.3099365234
1494295054.0204811096,        1.0727539062,        0.8159179688,        0.7685546875,      196.3348388672,       -1.4038085938,      -33.3099365234
1494295054.0230638981,       -0.9511718750,        3.3579101562,        0.7685546875,      186.8133544922,       -1.6479492188,       98.5870361328
1494295054.0256180763,       -0.9511718750,        3.3579101562,        0.7685546875,      186.8133544922,       -1.6479492188,       98.5870361328
1494295054.0281779766,       -0.9511718750,        3.3579101562,        0.7685546875,      224.5941162109,       -3.8452148438,      134.7503662109
1494295054.0309209824,       -0.9511718750,        1.2583007812,        1.3823242188,      224.5941162109,       -3.8452148438,      134.7503662109
1494295054.0336010456,        0.4379882812,        1.2583007812,        1.3823242188,      203.3081054688,      -25.6958007812,      173.5839843750
1494295054.0362939835,        0.4379882812,        1.2583007812,        1.3823242188,      203.3081054688,      -25.6958007812,      173.5839843750
1494295054.0389819145,        0.4379882812,        1.2583007812,        1.3823242188,       99.1058349609,      -35.9039306641,      198.3642578125
1494295054.0416779518,       -1.1127929688,       -0.9462890625,        0.6772460938,       99.1058349609,      -35.9039306641,      198.3642578125
1494295054.0443639755,       -1.1127929688,       -0.9462890625,        0.6772460938,        8.1634521484,      -34.9426269531,      185.3485107422
1494295054.0470950603,       -1.1127929688,       -0.9462890625,        0.6772460938,        8.1634521484,      -34.9426269531,      185.3485107422
1494295054.0497820377,       -1.1127929688,       -0.9462890625,        0.6772460938,      -38.5131835938,      -21.5301513672,      152.0385742188
1494295054.0526449680,       -0.7324218750,       -1.0751953125,       -0.4785156250,      -38.5131835938,      -21.5301513672,      152.0385742188
1494295054.0553410053,       -0.7324218750,       -1.0751953125,       -0.4785156250,      -24.2614746094,      -21.6369628906,      117.0959472656
1494295054.0580399036,       -0.7324218750,       -1.0751953125,       -0.4785156250,      -24.2614746094,      -21.6369628906,      117.0959472656
1494295054.0607459545,       -0.7324218750,       -1.0751953125,       -0.5800781250,       22.6745605469,      -26.2298583984,       85.4339599609
1494295054.0634479523,       -0.3540039062,       -1.0234375000,       -0.5800781250,       22.6745605469,      -26.2298583984,       85.4339599609
1494295054.0661439896,       -0.3540039062,       -1.0234375000,       -0.5800781250,       54.7485351562,      -31.8145751953,       53.1311035156
1494295054.0688400269,       -0.3540039062,       -1.0234375000,       -0.5800781250,       54.7485351562,      -31.8145751953,       53.1311035156
1494295054.0715599060,       -0.1040039062,       -1.2143554688,        0.0048828125,       50.2166748047,      -38.9709472656,        6.9427490234
1494295054.0742580891,       -0.1083984375,       -1.2143554688,        0.0048828125,       50.2166748047,      -38.9709472656,        6.9427490234
1494295054.0769510269,       -0.1083984375,       -1.2143554688,        0.0048828125,       53.6804199219,      -29.4952392578,      -49.2553710938
1494295054.0796549320,       -0.1083984375,       -1.2143554688,        0.0048828125,       53.6804199219,      -29.4952392578,      -49.2553710938
1494295054.0822789669,        0.0424804688,       -1.3403320312,        0.1474609375,       61.4166259766,      -23.9868164062,     -104.0191650391
1494295054.0848429203,        0.0424804688,       -1.3403320312,        0.1474609375,       61.4166259766,      -23.9868164062,     -104.0191650391
1494295054.0874030590,        0.0424804688,       -1.3403320312,        0.1474609375,       37.9791259766,      -19.8669433594,     -125.1068115234
1494295054.0899589062,        0.0424804688,       -1.3403320312,        0.1474609375,       36.0717773438,      -19.8669433594,     -125.1068115234
1494295054.0925359726,       -0.2192382812,       -0.1083984375,       -0.0766601562,       36.0717773438,      -15.9606933594,     -126.9989013672
1494295054.0950911045,       -0.2192382812,       -0.1083984375,       -0.0766601562,       26.8096923828,      -15.6707763672,     -126.9989013672
1494295054.0976529121,       -0.2192382812,       -0.1083984375,       -0.0766601562,       26.8096923828,      -15.6707763672,     -105.0567626953
1494295054.1002171040,       -0.2192382812,       -0.1083984375,       -0.0766601562,       37.2467041016,      -24.7955322266,     -105.0567626953
1494295054.1029450893,       -0.0434570312,        0.8315429688,       -0.3276367188,       37.2467041016,      -24.7955322266,      -69.9005126953
1494295054.1055080891,       -0.0434570312,        0.8315429688,       -0.3276367188,       58.1665039062,      -35.4309082031,      -67.0166015625
1494295054.1080598831,       -0.0434570312,        0.8315429688,       -0.3276367188,       58.1665039062,      -35.4309082031,      -67.0166015625
1494295054.1106140614,       -0.0434570312,        0.8315429688,       -0.3276367188,       76.7517089844,      -36.7889404297,      -29.7546386719
1494295054.1133379936,        0.0942382812,        0.7485351562,       -0.4184570312,       76.7517089844,      -36.7889404297,      -29.7546386719
1494295054.1158969402,        0.0942382812,        0.7485351562,       -0.4184570312,       82.3364257812,      -35.0341796875,        5.7678222656
1494295054.1184539795,        0.0942382812,        0.7485351562,       -0.4184570312,       82.3364257812,      -35.0341796875,        5.7678222656
1494295054.1210370064,        0.0942382812,        0.7485351562,       -0.2934570312,       65.9179687500,      -31.3568115234,       37.5976562500
1494295054.1237390041,        0.0468750000,        0.0849609375,       -0.3569335938,       65.9179687500,      -31.3568115234,       37.5976562500
1494295054.1264429092,        0.0468750000,        0.0849609375,       -0.3569335938,       28.4118652344,      -23.6206054688,       59.8449707031
1494295054.1291399002,        0.0468750000,        0.0849609375,       -0.3569335938,       28.4118652344,      -23.6206054688,       59.8449707031
1494295054.1318440437,        0.0468750000,       -0.4990234375,       -0.4521484375,      -21.4691162109,      -12.7258300781,       68.2678222656
1494295054.1345450878,       -0.1337890625,       -0.4990234375,       -0.4521484375,      -21.4691162109,      -12.7258300781,       68.2678222656
1494295054.1372458935,       -0.1337890625,       -0.4990234375,       -0.4521484375,      -74.5391845703,       -0.9002685547,       67.3675537109
1494295054.1399381161,       -0.1337890625,       -0.4990234375,       -0.4521484375,      -74.5391845703,       -0.9002685547,       67.3675537109
1494295054.1426439285,       -0.1264648438,       -0.6049804688,       -0.6005859375,     -118.8507080078,        9.4146728516,       62.9272460938
1494295054.1453380585,       -0.1264648438,       -0.6049804688,       -0.6005859375,     -118.8507080078,        9.4146728516,       62.9272460938
1494295054.1480329037,       -0.1264648438,       -0.6049804688,       -0.6005859375,     -143.9208984375,       15.9759521484,       54.1687011719
1494295054.1507360935,       -0.1264648438,       -0.6049804688,       -0.6005859375,     -143.9208984375,       15.9759521484,       54.1687011719
1494295054.1534318924,        0.0073242188,       -0.4291992188,       -0.5253906250,     -151.4587402344,       17.7459716797,       43.6096191406
1494295054.1561329365,        0.0073242188,       -0.4291992188,       -0.5253906250,     -151.4587402344,       17.7459716797,       43.6096191406
1494295054.1588320732,        0.0073242188,       -0.4291992188,       -0.5253906250,     -144.6533203125,       19.2413330078,       27.7099609375
1494295054.1615419388,        0.0073242188,       -0.4291992188,       -0.2753906250,     -144.6533203125,       19.2413330078,       27.7099609375
1494295054.1641070843,        0.0302734375,       -0.0693359375,       -0.3364257812,     -126.8157958984,       20.2331542969,       12.6495361328
1494295054.1667149067,        0.0302734375,       -0.0693359375,       -0.3364257812,     -126.8157958984,       20.2331542969,       12.6495361328
1494295054.1693360806,        0.0302734375,       -0.0693359375,       -0.3364257812,      -97.6867675781,       19.1650390625,        0.5798339844
1494295054.1723830700,        0.0302734375,        0.3041992188,       -0.2436523438,      -97.6867675781,       19.1650390625,        0.5798339844
1494295054.1750741005,        0.0341796875,        0.3041992188,       -0.2436523438,      -58.8226318359,       17.7154541016,       -7.8887939453
1494295054.1778769493,        0.0341796875,        0.3041992188,       -0.2436523438,      -58.8226318359,       17.7154541016,       -7.8887939453
1494295054.1805579662,        0.0341796875,        0.3041992188,       -0.2436523438,      -16.5557861328,       15.4113769531,      -12.0239257812
1494295054.1832540035,        0.0073242188,        0.4575195312,       -0.1748046875,      -16.5557861328,       15.4113769531,      -12.0239257812
1494295054.1859469414,        0.0073242188,        0.4575195312,       -0.1748046875,       25.1770019531,       11.8865966797,      -12.4969482422
1494295054.1886410713,        0.0073242188,        0.4575195312,       -0.1748046875,       25.1770019531,       11.8865966797,      -12.4969482422
1494295054.1913459301,        0.0073242188,        0.4575195312,       -0.1748046875,       62.5305175781,        9.8266601562,       -9.6893310547
1494295054.1940319538,       -0.0307617188,        0.4267578125,       -0.1230468750,       62.5305175781,        9.8266601562,       -9.6893310547
1494295054.1967220306,       -0.0307617188,        0.4267578125,       -0.1230468750,       90.2252197266,        8.3465576172,       -4.9743652344
1494295054.1994180679,       -0.0307617188,        0.4267578125,       -0.1230468750,       90.2252197266,        8.3465576172,       -4.9743652344
1494295054.2020840645,       -0.0307617188,        0.4267578125,       -0.1240234375,      107.4829101562,        8.2550048828,        0.0762939453
1494295054.2046399117,       -0.0629882812,        0.3725585938,       -0.1240234375,      107.4829101562,        8.2550048828,        0.0762939453
1494295054.2071919441,       -0.0629882812,        0.3725585938,       -0.1240234375,      119.2016601562,        9.8266601562,        5.8441162109
1494295054.2097458839,       -0.0629882812,        0.3725585938,       -0.1240234375,      117.6757812500,        9.8266601562,        5.8441162109
1494295054.2123250961,       -0.0629882812,        0.3725585938,       -0.1152343750,      117.6757812500,       13.7329101562,       11.5814208984
1494295054.2148840427,       -0.0766601562,        0.2558593750,       -0.1152343750,      120.1477050781,       12.3138427734,       11.5814208984
1494295054.2174320221,       -0.0766601562,        0.2558593750,       -0.1152343750,      120.1477050781,       12.3138427734,       16.9677734375
1494295054.2199978828,       -0.0766601562,        0.2558593750,       -0.1152343750,      115.9362792969,       14.5721435547,       16.9677734375
1494295054.2226870060,       -0.0766601562,        0.0693359375,       -0.0629882812,      115.9362792969,       14.5721435547,       20.8740234375
1494295054.2252509594,       -0.0903320312,        0.0693359375,       -0.0629882812,      106.5216064453,       16.7083740234,       22.5677490234
1494295054.2278170586,       -0.0903320312,        0.0693359375,       -0.0629882812,      106.5216064453,       16.7083740234,       22.5677490234
1494295054.2303791046,       -0.0903320312,        0.0693359375,       -0.0629882812,       89.4012451172,       18.3563232422,       25.9552001953
1494295054.2331840992,       -0.1025390625,       -0.1093750000,       -0.0048828125,       89.4012451172,       18.3563232422,       25.9552001953
1494295054.2358860970,       -0.1025390625,       -0.1093750000,       -0.0048828125,       67.8253173828,       18.4173583984,       29.5562744141
1494295054.2385859489,       -0.1025390625,       -0.1093750000,       -0.0048828125,       67.8253173828,       18.4173583984,       29.5562744141
1494295054.2413020134,       -0.1025390625,       -0.1093750000,       -0.0048828125,       42.7093505859,       18.4020996094,       32.7301025391
1494295054.2440021038,       -0.1030273438,       -0.2216796875,        0.0004882812,       42.7093505859,       18.4020996094,       32.7301025391
1494295054.2467100620,       -0.1030273438,       -0.2216796875,        0.0004882812,       16.3116455078,       18.3715820312,       35.4614257812
1494295054.2494039536,       -0.1030273438,       -0.2216796875,        0.0004882812,       16.3116455078,       18.3715820312,       35.4614257812
1494295054.2522609234,       -0.1030273438,       -0.2216796875,       -0.1245117188,      -10.2539062500,       17.7764892578,       37.0635986328
1494295054.2549688816,       -0.1098632812,       -0.3149414062,       -0.0439453125,      -10.2539062500,       17.7764892578,       37.0635986328
1494295054.2576670647,       -0.1098632812,       -0.3149414062,       -0.0439453125,      -37.4145507812,       16.8762207031,       37.2467041016
1494295054.2603700161,       -0.1098632812,       -0.3149414062,       -0.0439453125,      -37.4145507812,       16.8762207031,       37.2467041016
1494295054.2629609108,       -0.1098632812,       -0.3901367188,       -0.0590820312,      -63.9801025391,       16.6625976562,       35.3546142578
1494295054.2655220032,       -0.1552734375,       -0.3901367188,       -0.0590820312,      -63.9801025391,       16.6625976562,       35.3546142578
1494295054.2680830956,       -0.1552734375,       -0.3901367188,       -0.0590820312,      -89.5996093750,       16.7083740234,       32.1807861328
1494295054.2707009315,       -0.1552734375,       -0.3901367188,       -0.0590820312,      -89.5996093750,       16.7083740234,       32.1807861328
1494295054.2734110355,       -0.1552734375,       -0.3837890625,       -0.0307617188,     -112.8997802734,       17.4713134766,       27.4658203125
1494295054.2761108875,       -0.1645507812,       -0.3837890625,       -0.0307617188,     -112.8997802734,       17.4713134766,       27.4658203125
1494295054.2788050175,       -0.1645507812,       -0.3837890625,       -0.0307617188,     -133.2397460938,       18.7072753906,       21.5301513672
1494295054.2815520763,       -0.1645507812,       -0.3837890625,       -0.0307617188,     -133.2397460938,       18.7072753906,       21.5301513672
1494295054.2842540741,       -0.1528320312,       -0.2812500000,        0.0200195312,     -149.3530273438,       19.6533203125,       14.8925781250
1494295054.2871410847,       -0.1528320312,       -0.2812500000,        0.0200195312,     -149.3530273438,       19.6533203125,       14.8925781250
1494295054.2898390293,       -0.1528320312,       -0.2812500000,        0.0200195312,     -160.5529785156,       20.5841064453,        9.1247558594
1494295054.2929830551,       -0.1528320312,       -0.1562500000,        0.0805664062,     -160.5529785156,       20.5841064453,        9.1247558594
1494295054.2956779003,       -0.1445312500,       -0.1499023438,        0.0805664062,     -167.2821044922,       20.9197998047,        4.1961669922
1494295054.2983798981,       -0.1445312500,       -0.1499023438,        0.0805664062,     -167.2821044922,       20.9197998047,        4.1961669922
1494295054.3010768890,       -0.1445312500,       -0.1499023438,        0.0805664062,     -168.9300537109,       19.5770263672,        0.4577636719
1494295054.3037710190,       -0.1098632812,        0.0053710938,        0.0874023438,     -168.9300537109,       19.5770263672,        0.4577636719
1494295054.3064711094,       -0.1098632812,        0.0053710938,        0.0874023438,     -164.9627685547,       18.1732177734,       -2.2277832031
1494295054.3091681004,       -0.1098632812,        0.0053710938,        0.0874023438,     -164.9627685547,       18.1732177734,       -2.2277832031
1494295054.3118119240,       -0.1098632812,        0.0053710938,        0.0874023438,     -155.3497314453,       16.6625976562,       -3.8604736328
1494295054.3143680096,       -0.0527343750,        0.1416015625,        0.0625000000,     -155.3497314453,       16.6625976562,       -3.8604736328
1494295054.3169240952,       -0.0527343750,        0.1416015625,        0.0625000000,     -141.3726806641,       13.7939453125,       -4.4555664062
1494295054.3194849491,       -0.0527343750,        0.1416015625,        0.0625000000,     -141.3726806641,       13.7939453125,       -4.4555664062
1494295054.3220949173,       -0.0527343750,        0.1416015625,        0.0625000000,     -122.5738525391,       11.9171142578,       -4.6081542969
1494295054.3247530460,       -0.0400390625,        0.1645507812,        0.0336914062,     -122.5738525391,       11.9171142578,       -4.6081542969
1494295054.3273110390,       -0.0400390625,        0.1645507812,        0.0336914062,     -102.5848388672,       10.4217529297,       -4.4708251953
1494295054.3298668861,       -0.0400390625,        0.1645507812,        0.0336914062,     -102.5848388672,       10.4217529297,       -4.4708251953
1494295054.3324830532,       -0.0400390625,        0.1645507812,        0.0336914062,      -82.2448730469,        8.7585449219,       -4.4860839844
1494295054.3350350857,       -0.0478515625,        0.1425781250,        0.0268554688,      -82.2448730469,        8.7585449219,       -4.4860839844
1494295054.3375859261,       -0.0478515625,        0.1425781250,        0.0268554688,      -82.2448730469,        7.5836181641,       -3.8757324219
1494295054.3401460648,       -0.0478515625,        0.1425781250,        0.0268554688,      -62.7593994141,        7.5836181641,       -3.8757324219
1494295054.3429119587,       -0.0478515625,        0.1425781250,        0.0268554688,      -62.7593994141,        7.5836181641,       -2.0599365234
1494295054.3454699516,       -0.0712890625,        0.1088867188,        0.0629882812,      -44.9981689453,        7.4005126953,       -2.0599365234
1494295054.3480141163,       -0.0712890625,        0.1088867188,        0.0629882812,      -44.9981689453,        7.4005126953,        0.8697509766
1494295054.3505630493,       -0.0712890625,        0.1088867188,        0.0629882812,      -30.6243896484,        7.2021484375,        0.8697509766
1494295054.3532199860,       -0.0712890625,        0.1088867188,        0.0629882812,      -30.6243896484,        7.2021484375,        0.8697509766
1494295054.3557729721,       -0.0751953125,        0.0346679688,        0.1015625000,      -17.8070068359,        7.5073242188,        2.9754638672
1494295054.3583240509,       -0.0751953125,        0.0346679688,        0.1015625000,      -17.8070068359,        7.5073242188,        2.9754638672
1494295054.3609430790,       -0.0751953125,        0.0346679688,        0.1015625000,       -9.2926025391,        7.0037841797,        3.2196044922
1494295054.3636379242,       -0.0751953125,       -0.0903320312,        0.0747070312,       -9.2926025391,        7.0037841797,        3.2196044922
1494295054.3663320541,       -0.0737304688,       -0.0839843750,        0.0747070312,       -3.7841796875,        6.3171386719,        2.5939941406
1494295054.3690099716,       -0.0737304688,       -0.0839843750,        0.0747070312,       -3.7841796875,        6.3171386719,        2.5939941406
1494295054.3717360497,       -0.0737304688,       -0.0839843750,        0.0747070312,       -0.1983642578,        4.6539306641,        2.7008056641
1494295054.3744320869,       -0.0751953125,       -0.1704101562,        0.0766601562,       -0.1983642578,        4.6539306641,        2.7008056641
1494295054.3771140575,       -0.0751953125,       -0.1704101562,        0.0766601562,        0.9765625000,        3.2653808594,        2.7160644531
1494295054.3798029423,       -0.0751953125,       -0.1704101562,        0.0766601562,        0.9765625000,        3.2653808594,        2.7160644531
1494295054.3824369907,       -0.0751953125,       -0.1704101562,        0.0766601562,       -1.3427734375,        2.3193359375,        1.7395019531
1494295054.3849771023,       -0.0605468750,       -0.2373046875,        0.0571289062,       -1.3427734375,        2.3193359375,        1.7395019531
1494295054.3875200748,       -0.0605468750,       -0.2373046875,        0.0571289062,       -5.4321289062,        1.4801025391,        0.3509521484
1494295054.3900671005,       -0.0605468750,       -0.2373046875,        0.0571289062,       -5.4321289062,        1.4801025391,        0.3509521484
1494295054.3926780224,       -0.0605468750,       -0.2373046875,        0.0571289062,       -9.1247558594,        1.2512207031,       -2.0599365234
1494295054.3952269554,       -0.0581054688,       -0.2309570312,        0.0507812500,       -9.1247558594,        1.2512207031,       -2.0599365234
1494295054.3978888988,       -0.0581054688,       -0.2309570312,        0.0507812500,      -12.8936767578,        2.1667480469,       -4.1351318359
1494295054.4004380703,       -0.0581054688,       -0.2309570312,        0.0507812500,      -12.8936767578,        2.1667480469,       -4.1351318359
1494295054.4031739235,       -0.0581054688,       -0.2309570312,        0.0507812500,      -16.9982910156,        2.7923583984,       -5.4779052734
1494295054.4058680534,       -0.0581054688,       -0.1718750000,        0.0717773438,      -16.9982910156,        2.7923583984,       -5.4779052734
1494295054.4087550640,       -0.0581054688,       -0.1718750000,        0.0717773438,      -20.6146240234,        2.4719238281,       -6.3781738281
1494295054.4118640423,       -0.0581054688,       -0.1718750000,        0.0717773438,      -20.6146240234,        2.4719238281,       -6.3781738281
1494295054.4145679474,       -0.0581054688,       -0.1279296875,        0.1098632812,      -24.2614746094,        2.0751953125,       -6.7596435547
1494295054.4172580242,       -0.0424804688,       -0.1279296875,        0.1098632812,      -24.2614746094,        2.0751953125,       -6.7596435547
1494295054.4199519157,       -0.0424804688,       -0.1279296875,        0.1098632812,      -26.4892578125,        1.3580322266,       -6.1645507812
1494295054.4226629734,       -0.0424804688,       -0.1279296875,        0.1098632812,      -26.4892578125,        1.3580322266,       -6.1645507812
1494295054.4253571033,       -0.0341796875,       -0.1455078125,        0.1508789062,      -20.6451416016,       -0.7934570312,       -5.2795410156
1494295054.4280490875,       -0.0341796875,       -0.1455078125,        0.1508789062,      -20.6451416016,       -0.7934570312,       -5.2795410156
1494295054.4307529926,       -0.0341796875,       -0.1455078125,        0.1508789062,       -9.0789794922,       -2.0599365234,       -3.0212402344
1494295054.4334421158,       -0.0341796875,       -0.1455078125,        0.1508789062,       -9.0789794922,       -2.0599365234,       -3.0212402344
1494295054.4361279011,       -0.0400390625,       -0.2778320312,        0.1069335938,       -1.3580322266,       -3.4637451172,        0.8697509766
1494295054.4388151169,       -0.0400390625,       -0.2778320312,        0.1069335938,       -1.3580322266,       -3.4637451172,        0.8697509766
1494295054.4415071011,       -0.0400390625,       -0.2778320312,        0.1069335938,       -1.9378662109,       -6.5002441406,        4.9896240234
1494295054.4440569878,       -0.0400390625,       -0.2778320312,        0.1987304688,       -1.9378662109,       -6.5002441406,        4.9896240234
1494295054.4466049671,       -0.0942382812,       -0.3999023438,        0.1987304688,       -5.8441162109,      -12.0391845703,        9.7351074219
1494295054.4491569996,       -0.0942382812,       -0.3999023438,        0.1987304688,       -5.3253173828,      -12.0391845703,        9.7351074219
1494295054.4517478943,       -0.0942382812,       -0.3999023438,        0.1987304688,       -5.3253173828,      -15.9454345703,       13.7023925781
1494295054.4543020725,       -0.0942382812,       -0.3999023438,        0.3500976562,      -10.8642578125,      -17.9748535156,       13.7023925781
1494295054.4568629265,       -0.1860351562,       -0.3422851562,        0.3500976562,      -10.8642578125,      -17.9748535156,       16.9677734375
1494295054.4594159126,       -0.1860351562,       -0.3422851562,        0.3500976562,      -15.6860351562,      -22.6135253906,       16.9677734375
1494295054.4621028900,       -0.1860351562,       -0.3422851562,        0.3500976562,      -15.6860351562,      -22.6135253906,       20.8740234375
1494295054.4646649361,       -0.1860351562,       -0.1582031250,        0.4013671875,      -19.2565917969,      -27.8930664062,       22.8576660156
1494295054.4672260284,       -0.1899414062,       -0.1582031250,        0.4013671875,      -19.2565917969,      -27.8930664062,       22.8576660156
1494295054.4697899818,       -0.1899414062,       -0.1582031250,        0.4013671875,      -24.6276855469,      -35.6903076172,       30.7159423828
1494295054.4726819992,       -0.1899414062,       -0.1582031250,        0.4013671875,      -24.6276855469,      -35.6903076172,       30.7159423828
1494295054.4753820896,       -0.1752929688,        0.0185546875,        0.3256835938,      -30.2276611328,      -43.4417724609,       39.3829345703
1494295054.4780869484,       -0.1752929688,        0.0185546875,        0.3256835938,      -30.2276611328,      -43.4417724609,       39.3829345703
1494295054.4807898998,       -0.1752929688,        0.0185546875,        0.3256835938,      -35.9039306641,      -46.8750000000,       49.4537353516
1494295054.4834859371,       -0.1752929688,        0.0185546875,        0.3256835938,      -35.9039306641,      -46.8750000000,       49.4537353516
1494295054.4861919880,       -0.2373046875,        0.3193359375,        0.1162109375,      -44.5098876953,      -45.1660156250,       59.3414306641
1494295054.4888899326,       -0.2373046875,        0.3193359375,        0.1162109375,      -44.5098876953,      -45.1660156250,       59.3414306641
1494295054.4915590286,       -0.2373046875,        0.3193359375,        0.1162109375,      -52.2766113281,      -41.0461425781,       68.1762695312
1494295054.4941210747,       -0.2373046875,        0.3193359375,        0.1162109375,      -52.2766113281,      -41.0461425781,       68.1762695312
1494295054.4966790676,       -0.4062500000,        0.7827148438,       -0.0239257812,      -52.3986816406,      -32.9589843750,       75.4547119141
1494295054.4992389679,       -0.4062500000,        0.7827148438,       -0.0239257812,      -52.3986816406,      -32.9589843750,       75.4547119141
1494295054.5018041134,       -0.4062500000,        0.7827148438,       -0.0239257812,      115.0512695312,      -66.7114257812,       74.3103027344
1494295054.5043699741,       -0.4062500000,        0.7827148438,        4.4760742188,      115.0512695312,      -66.7114257812,       74.3103027344
1494295054.5069320202,       -1.8969726562,        9.1352539062,        4.4580078125,      450.0579833984,     -175.0488281250,      154.0985107422
1494295054.5094881058,       -1.8969726562,        9.1352539062,        4.4580078125,      450.0579833984,     -175.0488281250,      154.0985107422
1494295054.5121920109,       -1.8969726562,        9.1352539062,        4.4580078125,     -157.5622558594,       65.7501220703,      265.6707763672
1494295054.5148930550,       -1.8969726562,        4.6352539062,       -5.1567382812,     -157.5622558594,       65.7501220703,      265.6707763672
1494295054.5175840855,       -5.1655273438,        4.6455078125,       -5.1567382812,     -498.6267089844,       26.6571044922,      204.7424316406
1494295054.5202789307,       -5.1655273438,        4.6455078125,       -5.1567382812,     -498.6267089844,       26.6571044922,      204.7424316406
1494295054.5229809284,       -5.1655273438,        4.6455078125,       -5.1567382812,     -100.6011962891,     -168.0450439453,      285.8428955078
1494295054.5256741047,       -4.9057617188,       -6.1064453125,       -1.5615234375,     -100.6011962891,     -168.0450439453,      285.8428955078
1494295054.5284669399,       -4.9057617188,       -6.1064453125,       -1.5615234375,      463.1347656250,      -28.4118652344,      205.3527832031
1494295054.5315480232,       -4.9057617188,       -6.1064453125,       -1.5615234375,      463.1347656250,      -28.4118652344,      205.3527832031
1494295054.5342519283,       -4.9057617188,       -6.1064453125,       -1.5615234375,      264.6789550781,       -6.8664550781,       38.0401611328
1494295054.5369460583,       -0.4384765625,       -3.8564453125,       -1.4492187500,      264.6789550781,       -6.8664550781,       38.0401611328
1494295054.5396380424,       -0.4384765625,       -3.8564453125,       -1.4492187500,      -39.2761230469,      -16.2506103516,      -16.7541503906
1494295054.5422940254,       -0.4384765625,       -3.8564453125,       -1.4492187500,      -39.2761230469,      -16.2506103516,      -16.7541503906
1494295054.5449581146,       -0.4384765625,       -3.8564453125,        0.3203125000,     -140.4266357422,      195.5261230469,      121.2310791016
1494295054.5475189686,       -4.9941406250,        0.5898437500,        0.3203125000,     -140.4266357422,      195.5261230469,      121.2310791016
1494295054.5500829220,       -4.9941406250,        0.5898437500,        0.3203125000,      -19.3328857422,      229.7058105469,       74.6307373047
1494295054.5527899265,       -4.9941406250,        0.5898437500,        0.3203125000,      -18.4326171875,      229.7058105469,       74.6307373047
1494295054.5554950237,       -4.9941406250,       -5.3593750000,       -0.1523437500,       59.6923828125,      -41.9616699219,     -139.8162841797
1494295054.5581889153,      -10.3100585938,       -5.3593750000,       -0.1523437500,       59.8297119141,      -41.9616699219,     -139.8162841797
1494295054.5609340668,      -10.3100585938,       -5.3593750000,       -0.1523437500,     -119.8577880859,     -218.4906005859,       66.5588378906
1494295054.5635039806,      -10.3100585938,       -5.3593750000,       -0.1523437500,     -117.4621582031,     -218.4906005859,       66.5588378906
1494295054.5660679340,        1.2670898438,       -2.4350585938,       -0.7495117188,     -117.4621582031,     -163.8031005859,      438.2171630859
1494295054.5686230659,        1.2670898438,       -2.4350585938,       -0.7495117188,     -211.4105224609,     -160.7208251953,      438.2171630859
1494295054.5711870193,        1.2670898438,       -2.4350585938,       -0.7495117188,     -211.4105224609,     -160.7208251953,      485.6109619141
1494295054.5737450123,        1.2670898438,       -2.4350585938,       -0.7495117188,     -437.9577636719,      -60.5163574219,      485.6109619141
1494295054.5763099194,        3.3232421875,        2.5976562500,        2.6230468750,     -437.9577636719,      -60.5163574219,      485.6109619141
1494295054.5788669586,        3.3232421875,        2.5976562500,        2.6230468750,     -444.1375732422,      -26.4739990234,      404.4189453125
1494295054.5815629959,        3.3232421875,        2.5976562500,        2.6230468750,     -444.1375732422,      -26.4739990234,      404.4189453125
1494295054.5841190815,        3.3232421875,        2.5976562500,        2.6230468750,     -215.8050537109,      -80.5969238281,      213.9587402344
1494295054.5866749287,        1.3793945312,        4.0800781250,       -1.1596679688,     -215.8050537109,      -80.5969238281,      213.9587402344
1494295054.5892341137,        1.3793945312,        4.0800781250,       -1.1596679688,      -57.0373535156,      -38.3300781250,       89.5538330078
1494295054.5919361115,        1.3793945312,        4.0800781250,       -1.1596679688,      -57.0373535156,      -38.3300781250,       89.5538330078
1494295054.5944969654,        1.3793945312,        4.0800781250,       -1.1596679688,       70.3430175781,       25.6195068359,       86.0443115234
1494295054.5970571041,       -0.7504882812,        1.3603515625,       -0.7617187500,       70.3430175781,       25.6195068359,       86.0443115234
1494295054.5996160507,       -0.7504882812,        1.3603515625,       -0.7617187500,      107.6812744141,       47.8820800781,       70.2056884766
1494295054.6022670269,       -0.7504882812,        1.3603515625,       -0.7617187500,      107.6812744141,       47.8820800781,       70.2056884766
1494295054.6049718857,       -0.7504882812,        1.3603515625,       -0.7617187500,       83.8623046875,       22.5677490234,       40.3900146484
1494295054.6076691151,       -2.1621093750,       -0.5849609375,       -0.2304687500,       83.8623046875,       22.5677490234,       40.3900146484
1494295054.6103749275,       -2.1621093750,       -0.5849609375,       -0.2304687500,       31.9061279297,       -7.1411132812,       32.8826904297
1494295054.6130790710,       -2.1621093750,       -0.5849609375,       -0.2304687500,       31.9061279297,       -7.1411132812,       32.8826904297
1494295054.6157739162,       -2.1621093750,       -0.3349609375,        0.3046875000,      -17.6086425781,      -17.9595947266,       41.5344238281
1494295054.6185910702,       -1.3823242188,       -0.3422851562,        0.3046875000,      -17.6086425781,      -17.9595947266,       41.5344238281
1494295054.6212699413,       -1.3823242188,       -0.3422851562,        0.3046875000,      -43.2281494141,      -14.4042968750,       48.9044189453
1494295054.6238350868,       -1.3823242188,       -0.3422851562,        0.3046875000,      -43.2281494141,      -14.4042968750,       48.9044189453
1494295054.6264019012,       -0.1323242188,        0.5078125000,        0.6157226562,      -55.0079345703,       -9.5672607422,       45.3186035156
1494295054.6289620399,       -0.1850585938,        0.5078125000,        0.6157226562,      -55.0079345703,       -9.5672607422,       45.3186035156
1494295054.6316180229,       -0.1850585938,        0.5078125000,        0.6157226562,      -47.1954345703,       -6.1492919922,       33.6456298828
1494295054.6343200207,       -0.1850585938,        0.5078125000,        0.6157226562,      -50.4760742188,       -6.1492919922,       33.6456298828
1494295054.6370129585,       -0.0185546875,        0.8354492188,        0.0434570312,      -34.8510742188,        1.5563964844,       20.0653076172
1494295054.6397089958,       -0.0185546875,        0.8354492188,        0.0434570312,      -34.8510742188,        1.5563964844,       20.0653076172
1494295054.6423299313,       -0.0185546875,        0.8354492188,        0.0434570312,      -34.8510742188,        9.3688964844,       11.2304687500
1494295054.6448841095,       -0.0185546875,        0.8354492188,        0.0434570312,      -20.0958251953,       11.1389160156,       11.2304687500
1494295054.6476719379,       -0.6357421875,        0.7202148438,       -0.3378906250,      -20.0958251953,       18.9514160156,        5.6610107422
1494295054.6502280235,       -0.6357421875,        0.7202148438,       -0.3378906250,      -21.2097167969,       19.2260742188,        5.6610107422
1494295054.6532149315,       -0.6357421875,        0.7202148438,       -0.3378906250,      -21.2097167969,       21.8963623047,        0.0000000000
1494295054.6559090614,       -0.6357421875,        0.7202148438,       -0.1850585938,      -26.5808105469,       21.8963623047,        0.0000000000
1494295054.6586029530,       -0.7958984375,        0.4902343750,       -0.1850585938,      -26.5808105469,       21.8963623047,       -3.1890869141
1494295054.6613459587,       -0.7958984375,        0.4902343750,       -0.1850585938,      -27.2674560547,       21.1486816406,       -3.1890869141
1494295054.6640350819,       -0.7958984375,        0.4902343750,       -0.1850585938,      -27.2674560547,       21.1486816406,       -3.5247802734
1494295054.6667211056,       -0.7958984375,        0.1914062500,        0.1757812500,      -30.7312011719,       20.4162597656,       -3.5247802734
1494295054.6694169044,       -0.7871093750,        0.1914062500,        0.1757812500,      -30.7312011719,       20.4162597656,       -1.9226074219
1494295054.6721539497,       -0.7871093750,        0.1914062500,        0.1757812500,      -35.0036621094,       19.9279785156,       -1.9226074219
1494295054.6748559475,       -0.7871093750,        0.1914062500,        0.1757812500,      -35.0036621094,       19.9279785156,       -0.7781982422
1494295054.6775500774,       -0.6591796875,        0.2241210938,        0.2851562500,      -34.9884033203,       20.0347900391,       -0.7781982422
1494295054.6802499294,       -0.6591796875,        0.2241210938,        0.2851562500,      -34.9884033203,       20.0347900391,       -1.6021728516
1494295054.6828420162,       -0.6591796875,        0.2241210938,        0.2851562500,      -28.3660888672,       19.0124511719,       -1.6021728516
1494295054.6853969097,       -0.6591796875,        0.2241210938,        0.2851562500,      -28.3660888672,       19.0124511719,       -1.6021728516
1494295054.6879489422,       -0.6342773438,        0.3618164062,        0.0747070312,      -18.5241699219,       17.6086425781,       -3.8146972656
1494295054.6905040741,       -0.6342773438,        0.3618164062,        0.0747070312,      -18.5241699219,       17.6086425781,       -3.8146972656
1494295054.6931879520,       -0.6342773438,        0.3618164062,        0.0747070312,      -10.9710693359,       17.0593261719,       -7.3852539062
1494295054.6957499981,       -0.6342773438,        0.3618164062,        0.0747070312,      -10.9710693359,       17.0593261719,       -7.3852539062
1494295054.6983079910,       -0.6791992188,        0.4306640625,       -0.0893554688,       -7.5836181641,       16.2048339844,      -11.8560791016
1494295054.7010569572,       -0.6791992188,        0.4306640625,       -0.0893554688,       -7.5836181641,       16.2048339844,      -11.8560791016
1494295054.7036209106,       -0.6791992188,        0.4306640625,       -0.0893554688,       -8.9263916016,       14.5263671875,      -16.6320800781
1494295054.7061729431,       -0.6791992188,        0.4306640625,       -0.0893554688,       -8.9263916016,       14.5263671875,      -16.6320800781
1494295054.7087230682,       -0.6933593750,        0.4072265625,       -0.0561523438,      -10.6048583984,       13.3361816406,      -21.1944580078
1494295054.7114779949,       -0.6933593750,        0.4072265625,       -0.0561523438,      -10.6048583984,       13.3361816406,      -21.1944580078
1494295054.7141809464,       -0.6933593750,        0.4072265625,       -0.0561523438,      -10.6201171875,       13.0920410156,      -24.8718261719
1494295054.7168810368,       -0.6933593750,        0.3867187500,        0.0346679688,      -10.6201171875,       13.0920410156,      -24.8718261719
1494295054.7195739746,       -0.6577148438,        0.3867187500,        0.0346679688,       -7.6446533203,       12.1917724609,      -27.2216796875
1494295054.7222750187,       -0.6577148438,        0.3867187500,        0.0346679688,       -7.6446533203,       12.1917724609,      -27.2216796875
1494295054.7249701023,       -0.6577148438,        0.3867187500,        0.0346679688,       -3.9825439453,       11.5814208984,      -29.6783447266
1494295054.7276580334,       -0.6601562500,        0.3637695312,        0.0825195312,       -3.9825439453,       11.5814208984,      -29.6783447266
1494295054.7303490639,       -0.6601562500,        0.3637695312,        0.0825195312,       -0.9002685547,       11.8865966797,      -32.3486328125
1494295054.7329409122,       -0.6601562500,        0.3637695312,        0.0825195312,       -0.9002685547,       11.8865966797,      -32.3486328125
1494295054.7354938984,       -0.6601562500,        0.3637695312,        0.0825195312,        2.1209716797,       10.6811523438,      -34.2102050781
1494295054.7380490303,       -0.6870117188,        0.3525390625,        0.0263671875,        2.1209716797,       10.6811523438,      -34.2102050781
1494295054.7406039238,       -0.6870117188,        0.3525390625,        0.0263671875,        2.1209716797,        9.4604492188,      -36.8041992188
1494295054.7433021069,       -0.6870117188,        0.3525390625,        0.0263671875,        3.1585693359,        9.4604492188,      -36.8041992188
1494295054.7460060120,       -0.6870117188,        0.3525390625,        0.0263671875,        3.1585693359,        8.2550048828,      -38.6047363281
1494295054.7486960888,       -0.6992187500,        0.3452148438,       -0.0434570312,        2.5177001953,        8.2550048828,      -38.6047363281
1494295054.7514009476,       -0.6992187500,        0.3452148438,       -0.0434570312,       -1.3885498047,        7.1716308594,      -40.3900146484
1494295054.7540938854,       -0.6992187500,        0.3452148438,       -0.0434570312,       -0.3967285156,        7.1716308594,      -40.3900146484
1494295054.7567870617,       -0.6992187500,        0.3452148438,       -0.0527343750,       -0.3967285156,        5.5084228516,      -42.5262451172
1494295054.7594869137,       -0.6821289062,        0.3613281250,       -0.0527343750,       -3.1738281250,        5.5084228516,      -42.5262451172
1494295054.7621839046,       -0.6821289062,        0.3613281250,       -0.0527343750,       -3.1738281250,        4.2877197266,      -45.0592041016
1494295054.7649729252,       -0.6821289062,        0.3613281250,       -0.0527343750,       -6.0272216797,        4.2877197266,      -45.0592041016
1494295054.7677240372,       -0.6821289062,        0.3627929688,       -0.0161132812,       -6.0272216797,        3.1890869141,      -47.5463867188
1494295054.7708160877,       -0.6499023438,        0.3627929688,       -0.0161132812,       -6.5307617188,        3.1890869141,      -47.5463867188
1494295054.7735180855,       -0.6499023438,        0.3627929688,       -0.0161132812,       -5.3863525391,        2.5787353516,      -50.0946044922
1494295054.7762119770,       -0.6499023438,        0.3627929688,       -0.0161132812,       -5.3863525391,        2.5787353516,      -50.0946044922
1494295054.7789011002,       -0.6621093750,        0.3369140625,        0.0224609375,       -3.2348632812,        3.0975341797,      -52.5207519531
1494295054.7815699577,       -0.6621093750,        0.3369140625,        0.0224609375,       -3.2348632812,        3.0975341797,      -52.5207519531
1494295054.7841229439,       -0.6621093750,        0.3369140625,        0.0224609375,        0.6713867188,        2.7465820312,      -54.5806884766
1494295054.7866740227,       -0.6621093750,        0.3369140625,        0.0224609375,        0.0915527344,        2.7465820312,      -54.5806884766
1494295054.7892301083,       -0.7114257812,        0.3012695312,        0.0302734375,        0.0915527344,        2.7465820312,      -56.5032958984
1494295054.7918539047,       -0.7114257812,        0.3012695312,        0.0302734375,        4.4097900391,        1.8768310547,      -56.5032958984
1494295054.7945499420,       -0.7114257812,        0.3012695312,        0.0302734375,        4.4097900391,        1.8768310547,      -57.7392578125
1494295054.7972350121,       -0.7114257812,        0.3012695312,        0.0175781250,        9.0789794922,        1.1596679688,      -57.7392578125
1494295054.7999250889,       -0.7583007812,        0.2539062500,        0.0175781250,        9.0789794922,        1.1596679688,      -58.4259033203
1494295054.8025310040,       -0.7583007812,        0.2539062500,        0.0175781250,       13.7786865234,        1.1596679688,      -58.4259033203
1494295054.8050789833,       -0.7583007812,        0.2539062500,        0.0175781250,       13.7786865234,        1.1596679688,      -62.3321533203
1494295054.8076241016,       -0.7583007812,        0.1289062500,        0.0156250000,       18.0511474609,        0.2593994141,      -58.8378906250
1494295054.8101859093,       -0.7856445312,        0.2280273438,        0.0156250000,       18.0511474609,        0.2593994141,      -58.8378906250
1494295054.8127489090,       -0.7856445312,        0.2280273438,        0.0156250000,       20.5230712891,       -0.5493164062,      -60.1806640625
1494295054.8153100014,       -0.7856445312,        0.2280273438,        0.0156250000,       20.5230712891,       -0.5493164062,      -60.1806640625
1494295054.8178620338,       -0.7856445312,        0.2353515625,        0.0346679688,       20.9960937500,       -1.2664794922,      -61.2335205078
1494295054.8204240799,       -0.7758789062,        0.2353515625,        0.0346679688,       20.9960937500,       -1.2664794922,      -61.2335205078
1494295054.8231549263,       -0.7758789062,        0.2353515625,        0.0346679688,       21.3775634766,       -1.4801025391,      -62.2100830078
1494295054.8257119656,       -0.7758789062,        0.2353515625,        0.0346679688,       21.3775634766,       -1.4801025391,      -62.2100830078
1494295054.8282680511,       -0.6508789062,        0.2592773438,        0.0522460938,       21.5606689453,       -1.9226074219,      -63.6138916016
1494295054.8307909966,       -0.7241210938,        0.2592773438,        0.0522460938,       21.5606689453,       -1.9226074219,      -63.6138916016
1494295054.8333508968,       -0.7241210938,        0.2592773438,        0.0522460938,       22.8271484375,       -1.9989013672,      -65.5364990234
1494295054.8359129429,       -0.7241210938,        0.2592773438,        0.0522460938,       22.8271484375,       -1.9989013672,      -65.5364990234
1494295054.8385779858,       -0.6923828125,        0.2641601562,        0.0537109375,       26.7333984375,       -1.5716552734,      -66.8945312500
1494295054.8412001133,       -0.6923828125,        0.2641601562,        0.0537109375,       24.6276855469,       -1.5716552734,      -66.8945312500
1494295054.8438959122,       -0.6923828125,        0.2641601562,        0.0537109375,       28.5339355469,       -0.4272460938,      -68.0541992188
1494295054.8465878963,       -0.6923828125,        0.2641601562,        0.0537109375,       27.6641845703,       -0.4272460938,      -68.0541992188
1494295054.8492848873,       -0.6889648438,        0.2490234375,        0.0532226562,       27.6641845703,        0.2593994141,      -68.4051513672
1494295054.8519959450,       -0.6889648438,        0.2490234375,        0.0532226562,       30.8380126953,        0.2593994141,      -68.4051513672
1494295054.8546929359,       -0.6889648438,        0.2490234375,        0.0532226562,       30.8380126953,        0.2593994141,      -68.0694580078
1494295054.8573870659,       -0.6889648438,        0.2490234375,        0.0532226562,       31.2957763672,        0.2593994141,      -68.0694580078
1494295054.8600800037,       -0.6708984375,        0.1933593750,        0.0522460938,       31.2957763672,        1.0528564453,      -67.6116943359
1494295054.8627769947,       -0.6708984375,        0.1933593750,        0.0522460938,       31.2042236328,        1.0528564453,      -67.6116943359
1494295054.8654720783,       -0.6708984375,        0.1933593750,        0.0522460938,       31.2042236328,        1.7242431641,      -67.5659179688
1494295054.8681619167,       -0.6708984375,        0.1933593750,        0.0566406250,       30.8380126953,        1.7242431641,      -67.5659179688
1494295054.8709049225,       -0.6684570312,        0.1645507812,        0.0566406250,       30.8380126953,        1.7242431641,      -66.4520263672
1494295054.8735969067,       -0.6684570312,        0.1645507812,        0.0566406250,       29.3579101562,        1.7700195312,      -66.4520263672
1494295054.8762879372,       -0.6684570312,        0.1645507812,        0.0566406250,       29.3579101562,        1.7700195312,      -65.3533935547
1494295054.8789870739,       -0.6811523438,        0.1489257812,        0.0551757812,       28.0609130859,        2.6855468750,      -65.3533935547
1494295054.8816618919,       -0.6811523438,        0.1489257812,        0.0551757812,       28.0609130859,        2.6855468750,      -63.9038085938
1494295054.8842189312,       -0.6811523438,        0.1489257812,        0.0551757812,       26.5197753906,        2.9907226562,      -63.9038085938
1494295054.8868460655,       -0.6811523438,        0.1489257812,        0.0551757812,       26.5197753906,        2.9907226562,      -62.1795654297
1494295054.8895421028,       -0.6899414062,        0.1406250000,        0.0615234375,       24.2767333984,        3.5095214844,      -62.1795654297
1494295054.8924369812,       -0.6899414062,        0.1406250000,        0.0615234375,       24.2767333984,        3.5095214844,      -60.8673095703
1494295054.8951370716,       -0.6899414062,        0.1406250000,        0.0615234375,       25.1159667969,        4.6691894531,      -60.8673095703
1494295054.8978319168,       -0.6899414062,        0.1406250000,        0.0615234375,       25.1159667969,        4.6691894531,      -60.3179931641
1494295054.9005320072,       -0.7167968750,        0.1723632812,        0.0498046875,       24.9328613281,        4.4555664062,      -60.3179931641
1494295054.9032239914,       -0.7167968750,        0.1723632812,        0.0498046875,       24.9328613281,        4.4555664062,      -59.9975585938
1494295054.9059240818,       -0.7167968750,        0.1723632812,        0.0498046875,       20.4772949219,        4.5623779297,      -59.9975585938
1494295054.9086179733,       -0.7167968750,        0.1630859375,        0.0341796875,       20.4772949219,        4.5623779297,      -59.5855712891
1494295054.9113659859,       -0.7114257812,        0.1630859375,        0.0341796875,       19.2260742188,        4.5318603516,      -59.5855712891
1494295054.9141850471,       -0.7114257812,        0.1630859375,        0.0341796875,       19.2260742188,        4.5318603516,      -57.2967529297
1494295054.9169020653,       -0.7114257812,        0.1630859375,        0.0341796875,       20.5078125000,        4.2572021484,      -57.2967529297
1494295054.9195940495,       -0.7055664062,        0.1567382812,        0.0351562500,       20.5078125000,        4.2572021484,      -55.1452636719
1494295054.9222149849,       -0.7055664062,        0.1567382812,        0.0351562500,       23.3917236328,        4.2114257812,      -55.1452636719
1494295054.9247670174,       -0.7055664062,        0.1567382812,        0.0351562500,       23.3917236328,        4.2114257812,      -51.2390136719
1494295054.9273269176,       -0.7055664062,        0.1567382812,        0.0351562500,       29.4952392578,        6.2103271484,      -53.2226562500
1494295054.9298770428,       -0.7387695312,        0.1547851562,        0.0063476562,       29.4952392578,        6.2103271484,      -53.2226562500
1494295054.9324800968,       -0.7387695312,        0.1547851562,        0.0063476562,       34.8510742188,        6.5002441406,      -51.7425537109
1494295054.9350340366,       -0.7387695312,        0.1547851562,        0.0063476562,       34.8510742188,        6.5002441406,      -51.7425537109
1494295054.9375910759,       -0.7387695312,        0.1547851562,        0.0063476562,       30.5175781250,        5.7525634766,      -50.6439208984
1494295054.9401459694,       -0.7875976562,        0.1665039062,       -0.0063476562,       30.5175781250,        5.7525634766,      -50.6439208984
1494295054.9428629875,       -0.7875976562,        0.1665039062,       -0.0063476562,       30.0445556641,        4.5623779297,      -50.4302978516
1494295054.9454169273,       -0.7875976562,        0.1665039062,       -0.0063476562,       30.0445556641,        4.5623779297,      -50.4302978516
1494295054.9479799271,       -0.7875976562,        0.1665039062,       -0.0063476562,       31.3568115234,        3.5095214844,      -49.6978759766
1494295054.9505360126,       -0.7836914062,        0.1293945312,       -0.0131835938,       31.3568115234,        3.5095214844,      -49.6978759766
1494295054.9533200264,       -0.7836914062,        0.1293945312,       -0.0131835938,       32.1502685547,        2.5329589844,      -47.9278564453
1494295054.9560170174,       -0.7836914062,        0.1293945312,       -0.0131835938,       32.1502685547,        2.5329589844,      -47.9278564453
1494295054.9587130547,       -0.7836914062,        0.1293945312,       -0.0156250000,       30.4412841797,        1.2817382812,      -45.0744628906
1494295054.9614219666,       -0.7578125000,        0.1269531250,       -0.0156250000,       30.4412841797,        1.2817382812,      -45.0744628906
1494295054.9641249180,       -0.7578125000,        0.1269531250,       -0.0156250000,       29.5562744141,        0.7324218750,      -42.8619384766
1494295054.9668259621,       -0.7578125000,        0.1269531250,       -0.0156250000,       29.5562744141,        0.7324218750,      -42.8619384766
1494295054.9695289135,       -0.7226562500,        0.1220703125,       -0.0131835938,       28.8391113281,       -0.0762939453,      -40.5120849609
1494295054.9722390175,       -0.7226562500,        0.1220703125,       -0.0131835938,       28.8391113281,       -0.0762939453,      -40.5120849609
1494295054.9749391079,       -0.7226562500,        0.1220703125,       -0.0131835938,       28.5491943359,       -1.1444091797,      -38.9099121094
1494295054.9776439667,       -0.7226562500,        0.1220703125,       -0.0131835938,       28.5491943359,       -1.1444091797,      -38.9099121094
1494295054.9803359509,       -0.7041015625,        0.1054687500,       -0.0087890625,       29.6173095703,       -1.9683837891,      -37.3992919922
1494295054.9829258919,       -0.7041015625,        0.1054687500,       -0.0087890625,       29.6173095703,       -1.9683837891,      -37.3992919922
1494295054.9855918884,       -0.7041015625,        0.1054687500,       -0.0087890625,       37.4298095703,       -1.5869140625,      -34.1033935547
1494295054.9881560802,       -0.7041015625,        0.1054687500,       -0.0087890625,       37.1398925781,       -1.5869140625,      -34.1033935547
1494295054.9907159805,       -0.7226562500,        0.1152343750,       -0.0205078125,       37.1398925781,       -2.1514892578,      -32.5622558594
1494295054.9934151173,       -0.7226562500,        0.1152343750,       -0.0205078125,       33.6151123047,       -2.1514892578,      -32.5622558594
1494295054.9961071014,       -0.7226562500,        0.1152343750,       -0.0205078125,       33.6151123047,       -2.7923583984,      -28.9459228516
1494295054.9988059998,       -0.7226562500,        0.1152343750,       -0.0205078125,       27.8625488281,       -2.7923583984,      -28.9459228516
1494295055.0015480518,       -0.7241210938,        0.0917968750,       -0.0234375000,       27.8625488281,       -2.7923583984,      -24.4293212891
1494295055.0042400360,       -0.7241210938,        0.0917968750,       -0.0234375000,       24.2919921875,       -2.9907226562,      -24.4293212891
