time_stamp before, Acceleration x, Acceleration y, Acceleration z, Gyro x, Gyro y, Gyro z
1494294969.0788819790,       -0.0922851562,        0.0781250000,       -0.1279296875,       73.1964111328,       10.0402832031,      -84.2132568359
1494294969.0848839283,       -0.1030273438,        0.0498046875,       -0.1279296875,       72.5097656250,       10.0402832031,      -84.2132568359
1494294969.0875689983,       -0.1030273438,        0.0498046875,       -0.1279296875,       75.6225585938,        7.5836181641,      -76.7517089844
1494294969.0902481079,       -0.1030273438,        0.0498046875,       -0.1279296875,       75.6225585938,        7.5836181641,      -76.7517089844
1494294969.0929400921,       -0.1074218750,        0.1694335938,       -0.1079101562,       78.5980224609,        5.1116943359,      -68.1762695312
1494294969.0956099033,       -0.1074218750,        0.1694335938,       -0.1079101562,       78.5980224609,        5.1116943359,      -68.1762695312
1494294969.0982780457,       -0.1074218750,        0.1694335938,       -0.1079101562,       79.9102783203,        3.5858154297,      -59.1735839844
1494294969.1009640694,       -0.1074218750,        0.1694335938,       -0.1079101562,       79.9102783203,        3.5858154297,      -59.1735839844
1494294969.1036100388,       -0.1137695312,        0.2788085938,       -0.0571289062,       80.7342529297,        2.9754638672,      -49.8962402344
1494294969.1062641144,       -0.1137695312,        0.2788085938,       -0.0571289062,       80.7342529297,        2.9754638672,      -49.8962402344
1494294969.1089129448,       -0.1137695312,        0.2788085938,       -0.0571289062,       80.7342529297,        3.3721923828,      -41.8853759766
1494294969.1115539074,       -0.1137695312,        0.2788085938,        0.0200195312,       80.0170898438,        3.3721923828,      -41.8853759766
1494294969.1141040325,       -0.1074218750,        0.3164062500,        0.0200195312,       80.0170898438,        7.2784423828,      -34.6069335938
1494294969.1166529655,       -0.1074218750,        0.3164062500,        0.0200195312,       77.8656005859,        4.3487548828,      -34.6069335938
1494294969.1191980839,       -0.1074218750,        0.3164062500,        0.0200195312,       77.8656005859,        4.3487548828,      -26.7639160156
1494294969.1218600273,       -0.1074218750,        0.2915039062,        0.0810546875,       73.6846923828,        4.7149658203,      -26.7639160156
1494294969.1244111061,       -0.1098632812,        0.2915039062,        0.0810546875,       73.6846923828,        4.7149658203,      -22.8576660156
1494294969.1269700527,       -0.1098632812,        0.2915039062,        0.0810546875,       67.1539306641,        4.5166015625,      -19.8516845703
1494294969.1295220852,       -0.1098632812,        0.2915039062,        0.0810546875,       67.1539306641,        4.5166015625,      -19.8516845703
1494294969.1322960854,       -0.1098632812,        0.1850585938,        0.1254882812,       56.7321777344,        4.3640136719,      -14.4958496094
1494294969.1349859238,       -0.1245117188,        0.1850585938,        0.1254882812,       56.7321777344,        4.3640136719,      -14.4958496094
1494294969.1376628876,       -0.1245117188,        0.1850585938,        0.1254882812,       43.1823730469,        4.0283203125,       -9.7351074219
1494294969.1403369904,       -0.1245117188,        0.1850585938,        0.1254882812,       43.1823730469,        4.0283203125,       -9.7351074219
1494294969.1430749893,       -0.1284179688,        0.1000976562,        0.1455078125,       28.8391113281,        3.1280517578,       -4.7302246094
1494294969.1457850933,       -0.1284179688,        0.1000976562,        0.1455078125,       28.8391113281,        3.1280517578,       -4.7302246094
1494294969.1484849453,       -0.1284179688,        0.1000976562,        0.1455078125,       13.5955810547,        2.7160644531,       -0.5187988281
1494294969.1511900425,       -0.1284179688,        0.1000976562,        0.1455078125,       13.5955810547,        2.7160644531,       -0.5187988281
1494294969.1538879871,       -0.1396484375,        0.0664062500,        0.1000976562,        0.7629394531,        3.3416748047,        2.1209716797
1494294969.1567420959,       -0.1396484375,        0.0664062500,        0.1000976562,        0.7629394531,        3.3416748047,        2.1209716797
1494294969.1594328880,       -0.1396484375,        0.0664062500,        0.1000976562,       -7.2631835938,        4.3487548828,        4.6997070312
1494294969.1620919704,       -0.1396484375,        0.0664062500,        0.0014648438,       -7.2631835938,        4.3487548828,        4.6997070312
1494294969.1646409035,       -0.0966796875,        0.0712890625,        0.0014648438,      -12.0391845703,        4.8065185547,        7.8277587891
1494294969.1671929359,       -0.0966796875,        0.0712890625,        0.0014648438,      -12.0391845703,        4.8065185547,        7.8277587891
1494294969.1697399616,       -0.0966796875,        0.0712890625,        0.0014648438,      -14.1143798828,        5.4321289062,       11.4746093750
1494294969.1723370552,       -0.0966796875,        0.1166992188,       -0.0507812500,      -14.1143798828,        5.4321289062,       11.4746093750
1494294969.1748909950,       -0.0288085938,        0.1166992188,       -0.0507812500,      -15.2740478516,        4.5013427734,       16.7388916016
1494294969.1774508953,       -0.0288085938,        0.1166992188,       -0.0507812500,      -15.2740478516,        4.5013427734,       16.7388916016
1494294969.1800010204,       -0.0288085938,        0.1166992188,       -0.0507812500,      -16.5557861328,        2.3956298828,       23.6358642578
1494294969.1826601028,       -0.0288085938,        0.1894531250,       -0.0122070312,      -16.5557861328,        2.3956298828,       23.6358642578
1494294969.1853480339,       -0.0239257812,        0.1894531250,       -0.0122070312,      -20.3399658203,       -0.2441406250,       31.8145751953
1494294969.1881289482,       -0.0239257812,        0.1894531250,       -0.0122070312,      -20.3399658203,       -0.2441406250,       31.8145751953
1494294969.1908109188,       -0.0239257812,        0.1894531250,       -0.0122070312,      -23.4527587891,       -3.0670166016,       39.4134521484
1494294969.1934959888,       -0.1030273438,        0.3105468750,        0.0517578125,      -23.4527587891,       -3.0670166016,       39.4134521484
1494294969.1961820126,       -0.1030273438,        0.3105468750,        0.0517578125,      -28.2287597656,       -3.7078857422,       48.5076904297
1494294969.1988639832,       -0.1030273438,        0.3105468750,        0.0517578125,      -28.2287597656,       -3.7078857422,       48.5076904297
1494294969.2015459538,       -0.1030273438,        0.3105468750,        0.0517578125,      -37.3229980469,       -3.3721923828,       58.6853027344
1494294969.2042059898,       -0.1630859375,        0.3627929688,        0.2529296875,      -37.3229980469,       -3.3721923828,       58.6853027344
1494294969.2068600655,       -0.1630859375,        0.3627929688,        0.2529296875,      -49.0417480469,       -2.9296875000,       67.5048828125
1494294969.2095220089,       -0.1630859375,        0.3627929688,        0.2529296875,      -49.9572753906,       -2.9296875000,       67.5048828125
1494294969.2123379707,       -0.1630859375,        0.3627929688,        0.4267578125,      -77.3010253906,       -8.2855224609,       74.5391845703
1494294969.2150299549,       -0.4252929688,        0.7177734375,        0.4267578125,      -74.6154785156,       -8.2855224609,       74.5391845703
1494294969.2177240849,       -0.4252929688,        0.7177734375,        0.4267578125,     -117.5842285156,      -18.3105468750,       86.1511230469
1494294969.2204220295,       -0.4252929688,        0.7177734375,        0.4267578125,     -120.1782226562,      -18.3105468750,       86.1511230469
1494294969.2230439186,       -0.4252929688,        4.3271484375,        2.5507812500,     -120.1782226562,      -14.1906738281,       71.7620849609
1494294969.2256031036,       -0.3759765625,        4.3271484375,        2.5507812500,      -74.6307373047,      -14.1906738281,       71.7620849609
1494294969.2282729149,       -0.3759765625,        4.3271484375,        2.5507812500,      -74.6307373047,      -14.1906738281,       32.5775146484
1494294969.2310070992,       -0.3759765625,        4.3271484375,        2.5507812500,      184.8144531250,      -11.7950439453,       32.5775146484
1494294969.2336471081,       -3.1308593750,        9.4833984375,        0.9785156250,      184.8144531250,      -11.7950439453,      180.7403564453
1494294969.2362039089,       -3.1308593750,        9.4833984375,        0.9785156250,     -184.4024658203,       46.0357666016,      180.7403564453
1494294969.2387659550,       -3.1308593750,        9.4833984375,        0.9785156250,     -184.4024658203,       46.0357666016,      301.4373779297
1494294969.2415690422,       -3.1308593750,        9.4833984375,        0.9785156250,     -442.3065185547,       -0.0610351562,      301.4373779297
1494294969.2441270351,       -4.4965820312,       -5.4018554688,       -1.1835937500,     -442.3065185547,       -0.0610351562,      293.6248779297
1494294969.2466828823,       -4.4965820312,       -5.4018554688,       -1.1835937500,      131.3934326172,     -122.2076416016,      296.8292236328
1494294969.2492399216,       -4.4965820312,       -5.4018554688,       -1.1835937500,      131.3934326172,     -122.2076416016,      296.8292236328
1494294969.2519390583,       -4.4965820312,       -5.4018554688,       -1.1835937500,      298.1872558594,      -97.6104736328,      191.2689208984
1494294969.2546060085,       -4.2119140625,       -6.0488281250,       -0.2875976562,      298.1872558594,      -97.6104736328,      191.2689208984
1494294969.2573599815,       -4.2119140625,       -6.0488281250,       -0.2875976562,      100.7080078125,      -79.3609619141,      128.0212402344
1494294969.2608850002,       -4.2119140625,       -6.0488281250,       -0.2875976562,      100.7080078125,      -79.3609619141,      188.2171630859
1494294969.2634480000,       -0.6347656250,       -3.0659179688,        0.7446289062,       -3.7536621094,      -54.2449951172,      188.2171630859
1494294969.2659959793,       -0.6347656250,       -3.0659179688,        0.7446289062,       -3.7536621094,      -54.2449951172,      192.1234130859
1494294969.2685589790,       -0.6347656250,       -3.0659179688,        0.7446289062,      -83.3129882812,      -41.8243408203,      192.9016113281
1494294969.2711811066,       -0.6347656250,       -3.0659179688,        0.7446289062,      -83.3129882812,      -41.8243408203,      192.9016113281
1494294969.2738759518,       -3.3110351562,        1.4013671875,       -0.4643554688,     -150.9246826172,      -12.9241943359,      168.8232421875
1494294969.2765710354,       -3.3110351562,        1.4013671875,       -0.4643554688,     -150.9246826172,      -12.9241943359,      168.8232421875
1494294969.2792649269,       -3.3110351562,        1.4013671875,       -0.4643554688,     -246.2768554688,      -20.7672119141,      239.0289306641
1494294969.2819790840,       -3.3110351562,        1.4013671875,       -0.4643554688,     -246.2768554688,      -20.7672119141,      239.0289306641
1494294969.2846748829,       -1.0200195312,        2.0957031250,       -1.5971679688,     -220.3826904297,      -73.0285644531,      211.5325927734
1494294969.2873659134,       -1.0200195312,        2.0957031250,       -1.5971679688,     -220.3826904297,      -73.0285644531,      211.5325927734
1494294969.2900600433,       -1.0200195312,        2.0957031250,       -1.5971679688,      -47.3480224609,      -67.1539306641,      144.4854736328
1494294969.2926590443,       -1.0200195312,        2.0957031250,       -0.8471679688,      -47.3480224609,      -67.1539306641,      144.4854736328
1494294969.2952120304,        0.3779296875,        1.1269531250,       -0.7509765625,        7.4615478516,      -24.5361328125,      115.3411865234
1494294969.2977690697,        0.3779296875,        1.1269531250,       -0.7509765625,        7.4615478516,      -24.5361328125,      115.3411865234
1494294969.3003220558,        0.3779296875,        1.1269531250,       -0.7509765625,      -49.2858886719,       28.8848876953,       94.2840576172
1494294969.3030068874,        0.3779296875,        1.1269531250,       -0.3994140625,      -49.2858886719,       28.8848876953,       94.2840576172
1494294969.3055670261,        0.4672851562,        0.5493164062,       -0.3994140625,      -75.7141113281,       43.3807373047,       81.8023681641
1494294969.3081300259,        0.4672851562,        0.5493164062,       -0.3994140625,      -75.7141113281,       43.3807373047,       81.8023681641
1494294969.3108060360,        0.4672851562,        0.5493164062,       -0.3994140625,      -89.3554687500,       37.2619628906,       71.3806152344
1494294969.3133659363,        0.4672851562,        0.5493164062,       -0.1215820312,      -89.3554687500,       37.2619628906,       71.3806152344
1494294969.3159289360,       -1.1303710938,        0.6103515625,       -0.1215820312,     -120.0256347656,       34.1644287109,       66.0552978516
1494294969.3184909821,       -1.1303710938,        0.6103515625,       -0.1215820312,     -120.0256347656,       34.1644287109,       66.0552978516
1494294969.3212020397,       -1.1303710938,        0.6103515625,       -0.1215820312,     -135.6506347656,       32.8826904297,       64.2700195312
1494294969.3239259720,       -1.8803710938,       -0.0078125000,        0.3906250000,     -136.7034912109,       32.8826904297,       64.2700195312
1494294969.3266229630,       -1.9970703125,       -0.0078125000,        0.3906250000,     -148.4222412109,       18.0511474609,       51.3458251953
1494294969.3293209076,       -1.9970703125,       -0.0078125000,        0.3906250000,     -146.6064453125,       18.0511474609,       51.3458251953
1494294969.3320319653,       -1.9970703125,       -0.0078125000,        0.3906250000,     -134.8876953125,       -3.1127929688,       43.1213378906
1494294969.3347239494,       -1.7241210938,       -0.7241210938,        0.8608398438,     -133.6212158203,       -3.1127929688,       43.1213378906
1494294969.3374180794,       -1.7241210938,       -0.7241210938,        0.8608398438,      -94.5587158203,      -15.5487060547,       47.5006103516
1494294969.3401210308,       -1.7241210938,       -0.7241210938,        0.8608398438,      -97.3510742188,      -15.5487060547,       47.5006103516
1494294969.3428270817,       -1.7241210938,       -0.7241210938,        0.8608398438,      -97.3510742188,      -18.7988281250,       54.9468994141
1494294969.3455259800,       -1.2851562500,       -0.0224609375,        0.2216796875,      -66.4367675781,      -18.7988281250,       54.9468994141
1494294969.3482279778,       -1.2851562500,       -0.0224609375,        0.2216796875,      -66.4367675781,      -19.3328857422,       58.8684082031
1494294969.3509728909,       -1.2851562500,       -0.0224609375,        0.2216796875,      -60.3027343750,      -19.3328857422,       58.8684082031
1494294969.3536760807,       -1.2851562500,        0.9775390625,       -0.3032226562,      -60.3027343750,      -12.8021240234,       54.5806884766
1494294969.3563759327,       -0.6733398438,        0.9829101562,       -0.3032226562,      -54.1839599609,      -12.8021240234,       54.5806884766
1494294969.3590710163,       -0.6733398438,        0.9829101562,       -0.3032226562,      -54.1839599609,       -3.8604736328,       43.9300537109
1494294969.3617770672,       -0.6733398438,        0.9829101562,       -0.3032226562,      -37.1398925781,       -3.8604736328,       43.9300537109
1494294969.3644759655,       -0.4223632812,        0.9975585938,       -0.3764648438,      -37.1398925781,        2.2125244141,       34.4696044922
1494294969.3671720028,       -0.4223632812,        0.9975585938,       -0.3764648438,      -24.5819091797,        2.2125244141,       34.4696044922
1494294969.3698709011,       -0.4223632812,        0.9975585938,       -0.3764648438,      -24.5819091797,       10.0250244141,       27.1453857422
1494294969.3725841045,       -0.4223632812,        0.9975585938,       -0.3764648438,      -27.4963378906,        8.0718994141,       27.1453857422
1494294969.3752799034,       -0.4672851562,        0.5410156250,       -0.0693359375,      -27.4963378906,       11.7187500000,       20.5841064453
1494294969.3781819344,       -0.4672851562,        0.5410156250,       -0.0693359375,      -36.8499755859,       11.7187500000,       20.5841064453
1494294969.3809380531,       -0.4672851562,        0.5410156250,       -0.0693359375,      -36.8499755859,       12.8784179688,       15.4876708984
1494294969.3836379051,       -0.4672851562,        0.5410156250,        0.2036132812,      -41.5191650391,       12.8784179688,       15.4876708984
1494294969.3863379955,       -0.7080078125,        0.3613281250,        0.2036132812,      -41.5191650391,       14.4805908203,       11.8408203125
1494294969.3890390396,       -0.7080078125,        0.3613281250,        0.2036132812,      -37.7655029297,       14.4805908203,       11.8408203125
1494294969.3917798996,       -0.7080078125,        0.3613281250,        0.2036132812,      -37.7655029297,       16.7999267578,        9.3536376953
1494294969.3944790363,       -0.8330078125,        0.2001953125,        0.1997070312,      -30.0903320312,       16.7999267578,        9.3536376953
1494294969.3971738815,       -0.7602539062,        0.2001953125,        0.1997070312,      -30.0903320312,       16.8304443359,        7.8430175781
1494294969.3998649120,       -0.7602539062,        0.2001953125,        0.1997070312,      -25.3295898438,       16.8304443359,        7.8430175781
1494294969.4025669098,       -0.7602539062,        0.2001953125,        0.1997070312,      -25.3295898438,       12.9241943359,        5.3100585938
1494294969.4052639008,       -0.7939453125,        0.2905273438,        0.0708007812,      -21.9268798828,       15.0146484375,        5.3100585938
1494294969.4079549313,       -0.7939453125,        0.2905273438,        0.0708007812,      -21.9268798828,       15.0146484375,        1.7089843750
1494294969.4106860161,       -0.7939453125,        0.2905273438,        0.0708007812,      -16.7236328125,       13.8702392578,        1.7089843750
1494294969.4132421017,       -0.7939453125,        0.2905273438,        0.0708007812,      -16.7236328125,       13.8702392578,       -2.5177001953
1494294969.4157919884,       -0.7236328125,        0.4697265625,       -0.0463867188,      -10.9100341797,       12.9394531250,       -2.5177001953
1494294969.4183490276,       -0.7236328125,        0.4697265625,       -0.0463867188,      -10.9100341797,       12.9394531250,       -6.4239501953
1494294969.4210569859,       -0.7236328125,        0.4697265625,       -0.0463867188,       -4.9285888672,       11.2152099609,       -7.4615478516
1494294969.4236099720,       -0.7236328125,        0.4697265625,       -0.0463867188,       -4.9285888672,       11.2152099609,       -7.4615478516
1494294969.4261639118,       -0.6943359375,        0.4414062500,       -0.1079101562,       -2.9907226562,        8.4991455078,      -11.7950439453
1494294969.4287159443,       -0.6943359375,        0.4414062500,       -0.1079101562,       -2.9907226562,        8.4991455078,      -11.7950439453
1494294969.4314498901,       -0.6943359375,        0.4414062500,       -0.1079101562,       -3.7994384766,        5.3710937500,      -14.4195556641
1494294969.4341430664,       -0.6943359375,        0.4414062500,       -0.0722656250,       -3.7994384766,        5.3710937500,      -14.4195556641
1494294969.4368360043,       -0.6777343750,        0.3134765625,       -0.0722656250,       -6.9274902344,        1.4190673828,      -14.6636962891
1494294969.4395179749,       -0.6777343750,        0.3134765625,       -0.0722656250,       -6.9274902344,        1.4190673828,      -14.6636962891
1494294969.4422159195,       -0.6777343750,        0.3134765625,       -0.0722656250,      -10.7421875000,       -1.4801025391,      -14.2669677734
1494294969.4449739456,       -0.7661132812,        0.2373046875,        0.0068359375,      -10.7421875000,       -1.4801025391,      -14.2669677734
1494294969.4475400448,       -0.7661132812,        0.2373046875,        0.0068359375,      -12.9394531250,       -3.3264160156,      -14.2669677734
1494294969.4502060413,       -0.7661132812,        0.2373046875,        0.0068359375,      -12.9394531250,       -3.3264160156,      -14.2669677734
1494294969.4529778957,       -0.7661132812,        0.2373046875,        0.0068359375,      -15.0909423828,       -5.3558349609,      -14.0838623047
1494294969.4556410313,       -0.7294921875,        0.2768554688,        0.0410156250,      -15.0909423828,       -5.3558349609,      -14.0838623047
1494294969.4584300518,       -0.7294921875,        0.2768554688,        0.0410156250,      -15.3808593750,       -8.0566406250,      -14.8925781250
1494294969.4612700939,       -0.7294921875,        0.2768554688,        0.0410156250,      -15.3808593750,       -8.0566406250,      -14.8925781250
1494294969.4638431072,       -0.7294921875,        0.2768554688,        0.0410156250,      -14.9688720703,      -10.3912353516,      -16.0675048828
1494294969.4664039612,       -0.6831054688,        0.3139648438,        0.0419921875,      -14.9688720703,      -10.3912353516,      -16.0675048828
1494294969.4689629078,       -0.6831054688,        0.3139648438,        0.0419921875,      -13.3056640625,      -12.0544433594,      -17.6696777344
1494294969.4716079235,       -0.6831054688,        0.3139648438,        0.0419921875,      -13.3056640625,      -12.0544433594,      -17.6696777344
1494294969.4743158817,       -0.6831054688,        0.3139648438,        0.0463867188,      -11.8408203125,      -13.7786865234,      -19.5922851562
1494294969.4770159721,       -0.6655273438,        0.3466796875,        0.0463867188,      -11.8408203125,      -13.7786865234,      -19.5922851562
1494294969.4797060490,       -0.6655273438,        0.3466796875,        0.0463867188,       -9.5825195312,      -15.4418945312,      -21.6522216797
1494294969.4824109077,       -0.6655273438,        0.3466796875,        0.0463867188,       -9.5825195312,      -15.4418945312,      -21.6522216797
1494294969.4851028919,       -0.6655273438,        0.3520507812,        0.0395507812,       -5.5999755859,      -15.8996582031,      -24.0173339844
1494294969.4878029823,       -0.7148437500,        0.3520507812,        0.0395507812,       -5.5999755859,      -15.8996582031,      -24.0173339844
1494294969.4904980659,       -0.7148437500,        0.3520507812,        0.0395507812,       -0.4730224609,      -16.2506103516,      -25.4058837891
1494294969.4930789471,       -0.7148437500,        0.3520507812,        0.0395507812,       -0.4730224609,      -16.2506103516,      -25.4058837891
1494294969.4956340790,       -0.7670898438,        0.2919921875,        0.0527343750,        5.9204101562,      -16.8609619141,      -25.4669189453
1494294969.4981920719,       -0.7670898438,        0.2919921875,        0.0527343750,        5.9204101562,      -16.8609619141,      -25.4669189453
1494294969.5007429123,       -0.7670898438,        0.2919921875,        0.0527343750,        5.9204101562,      -17.2424316406,      -24.1241455078
1494294969.5033030510,       -0.7670898438,        0.2919921875,        0.0527343750,       11.8103027344,      -17.2424316406,      -24.1241455078
1494294969.5058610439,       -0.8100585938,        0.2314453125,        0.0595703125,       11.8103027344,      -17.2424316406,      -22.1405029297
1494294969.5084249973,       -0.8100585938,        0.2314453125,        0.0595703125,       17.5781250000,      -16.9677734375,      -22.1405029297
1494294969.5110929012,       -0.8100585938,        0.2314453125,        0.0595703125,       17.5781250000,      -16.9677734375,      -20.7672119141
1494294969.5136520863,       -0.8100585938,        0.2314453125,        0.0595703125,       19.9279785156,      -15.9454345703,      -20.7672119141
1494294969.5162100792,       -0.8149414062,        0.1909179688,        0.0913085938,       19.9279785156,      -15.9454345703,      -20.7672119141
1494294969.5187671185,       -0.8149414062,        0.1909179688,        0.0913085938,       16.0064697266,      -14.7857666016,      -20.2026367188
1494294969.5215170383,       -0.8149414062,        0.1909179688,        0.0913085938,       16.0064697266,      -14.7857666016,      -20.2026367188
1494294969.5243349075,       -0.8149414062,        0.1909179688,        0.0913085938,        9.7503662109,      -14.5416259766,      -18.5852050781
1494294969.5270309448,       -0.6762695312,        0.2319335938,        0.1132812500,        9.7503662109,      -14.5416259766,      -18.5852050781
1494294969.5297279358,       -0.6762695312,        0.2319335938,        0.1132812500,        5.7678222656,      -13.3972167969,      -16.1590576172
1494294969.5324389935,       -0.6762695312,        0.2319335938,        0.1132812500,        5.7678222656,      -13.3972167969,      -16.1590576172
1494294969.5351359844,       -0.6762695312,        0.3569335938,        0.1386718750,        6.6528320312,      -12.1002197266,      -14.6026611328
1494294969.5378389359,       -0.6298828125,        0.2963867188,        0.1386718750,        6.6528320312,      -12.1002197266,      -14.6026611328
1494294969.5405330658,       -0.6298828125,        0.2963867188,        0.1386718750,        9.5672607422,       -9.8266601562,      -14.2059326172
1494294969.5432379246,       -0.6298828125,        0.2963867188,        0.1386718750,        9.5672607422,       -9.8266601562,      -14.2059326172
1494294969.5459320545,       -0.6093750000,        0.2827148438,        0.1313476562,       13.1072998047,       -7.7362060547,      -13.9007568359
1494294969.5486280918,       -0.6093750000,        0.2827148438,        0.1313476562,       13.1072998047,       -7.7362060547,      -13.9007568359
1494294969.5513730049,       -0.6093750000,        0.2827148438,        0.1313476562,       15.2893066406,       -6.1340332031,      -13.9923095703
1494294969.5540690422,       -0.6093750000,        0.2827148438,        0.1313476562,       15.2893066406,       -6.1340332031,      -13.9923095703
1494294969.5567610264,       -0.6279296875,        0.2299804688,        0.1337890625,       16.7846679688,       -4.7302246094,      -12.8936767578
1494294969.5594580173,       -0.6279296875,        0.2299804688,        0.1337890625,       16.7846679688,       -4.7302246094,      -12.8936767578
1494294969.5620889664,       -0.6279296875,        0.2299804688,        0.1337890625,       16.9830322266,       -3.1890869141,      -10.9252929688
1494294969.5646450520,       -0.6279296875,        0.2299804688,        0.1337890625,       16.9830322266,       -3.1890869141,      -10.9252929688
1494294969.5672049522,       -0.6499023438,        0.2153320312,        0.1196289062,       15.9759521484,       -1.5106201172,       -9.0026855469
1494294969.5697550774,       -0.6499023438,        0.2153320312,        0.1196289062,       15.9759521484,       -1.5106201172,       -9.0026855469
1494294969.5723159313,       -0.6499023438,        0.2153320312,        0.1196289062,       14.8162841797,        0.4272460938,       -6.2561035156
1494294969.5748579502,       -0.6499023438,        0.2153320312,        0.1196289062,       14.8162841797,        0.4272460938,       -6.2561035156
1494294969.5775799751,       -0.6689453125,        0.2290039062,        0.0986328125,       12.8326416016,        2.1057128906,       -3.4484863281
1494294969.5801310539,       -0.6689453125,        0.2290039062,        0.0986328125,       12.8326416016,        2.1057128906,       -3.4484863281
1494294969.5830171108,       -0.6689453125,        0.2290039062,        0.0986328125,        8.5754394531,        2.8686523438,       -0.1983642578
1494294969.5857100487,       -0.6689453125,        0.2138671875,        0.0732421875,        8.5754394531,        2.8686523438,       -0.1983642578
1494294969.5883951187,       -0.6650390625,        0.2138671875,        0.0732421875,        5.6152343750,        4.1809082031,        2.7618408203
1494294969.5910780430,       -0.6650390625,        0.2138671875,        0.0732421875,        5.6152343750,        4.1809082031,        2.7618408203
1494294969.5937669277,       -0.6650390625,        0.2138671875,        0.0732421875,        1.9073486328,        5.6762695312,        6.5460205078
1494294969.5964550972,       -0.6025390625,        0.1845703125,        0.0507812500,        1.9073486328,        5.6762695312,        6.5460205078
1494294969.5992550850,       -0.6025390625,        0.1845703125,        0.0507812500,       -3.4332275391,        7.7972412109,       10.1623535156
1494294969.6019599438,       -0.6025390625,        0.1845703125,        0.0507812500,       -3.4332275391,        7.7972412109,       10.1623535156
1494294969.6046500206,       -0.6025390625,        0.1845703125,        0.0507812500,       -9.3841552734,        9.3383789062,       13.8092041016
1494294969.6073470116,       -0.4809570312,        0.1850585938,        0.0781250000,       -9.3841552734,        9.3383789062,       13.8092041016
1494294969.6100370884,       -0.4809570312,        0.1850585938,        0.0781250000,      -14.7399902344,       11.4288330078,       17.5170898438
1494294969.6126670837,       -0.4809570312,        0.1850585938,        0.0781250000,      -14.7399902344,       11.4288330078,       17.5170898438
1494294969.6152269840,       -0.4809570312,        0.1850585938,        0.0781250000,      -18.6462402344,       12.8021240234,       20.1873779297
1494294969.6177809238,       -0.3579101562,        0.1982421875,        0.1337890625,      -19.2260742188,       12.8021240234,       20.1873779297
1494294969.6203410625,       -0.3579101562,        0.1982421875,        0.1337890625,      -19.2260742188,       12.8021240234,       22.1862792969
1494294969.6229100227,       -0.3579101562,        0.1982421875,        0.1337890625,      -21.8658447266,       13.3209228516,       22.1862792969
1494294969.6254620552,       -0.3579101562,        0.1982421875,        0.1337890625,      -21.8658447266,       13.3209228516,       21.6674804688
1494294969.6280190945,       -0.2958984375,        0.2119140625,        0.2119140625,      -22.0947265625,       15.3198242188,       21.6674804688
1494294969.6305739880,       -0.2958984375,        0.2119140625,        0.2119140625,      -22.0947265625,       15.3198242188,       17.7612304688
1494294969.6332199574,       -0.2958984375,        0.2119140625,        0.2119140625,      -20.7824707031,       19.0887451172,       19.1040039062
1494294969.6357889175,       -0.2958984375,        0.2119140625,        0.2529296875,      -20.7824707031,       19.0887451172,       19.1040039062
1494294969.6383481026,       -0.4414062500,        0.2983398438,        0.2529296875,      -19.0277099609,       21.8048095703,       16.2200927734
1494294969.6410648823,       -0.4414062500,        0.2983398438,        0.2529296875,      -19.0277099609,       21.8048095703,       16.2200927734
1494294969.6437718868,       -0.4414062500,        0.2983398438,        0.2529296875,      -13.1530761719,       24.3225097656,       14.9536132812
1494294969.6464700699,       -0.6914062500,        0.3232421875,        0.1074218750,      -13.1530761719,       24.3225097656,       14.9536132812
1494294969.6491730213,       -0.7021484375,        0.3232421875,        0.1074218750,       -5.8593750000,       26.0620117188,       15.3808593750
1494294969.6518769264,       -0.7021484375,        0.3232421875,        0.1074218750,       -5.8593750000,       26.0620117188,       15.3808593750
1494294969.6545710564,       -0.7021484375,        0.3232421875,        0.1074218750,       -0.7629394531,       27.0233154297,       17.0593261719
1494294969.6572740078,       -0.8784179688,        0.2299804688,       -0.0327148438,       -0.7629394531,       27.0233154297,       17.0593261719
1494294969.6599700451,       -0.8784179688,        0.2299804688,       -0.0327148438,        2.3040771484,       26.3671875000,       19.9737548828
1494294969.6626698971,       -0.8784179688,        0.2299804688,       -0.0327148438,        2.3040771484,       26.3671875000,       19.9737548828
1494294969.6653649807,       -0.8784179688,        0.2299804688,       -0.0327148438,        0.9765625000,       21.5759277344,       24.4293212891
1494294969.6680591106,       -0.9921875000,        0.1044921875,       -0.1250000000,        0.9765625000,       21.5759277344,       24.4293212891
1494294969.6709089279,       -0.9921875000,        0.1044921875,       -0.1250000000,       -2.4261474609,       14.4195556641,       29.3273925781
1494294969.6734669209,       -0.9921875000,        0.1044921875,       -0.1250000000,       -2.4261474609,       14.4195556641,       29.3273925781
1494294969.6760270596,       -0.9921875000,        0.1044921875,       -0.0517578125,       -4.7607421875,        9.0026855469,       32.5622558594
1494294969.6785850525,       -1.0029296875,        0.0449218750,       -0.0517578125,       -4.7607421875,        9.0026855469,       32.5622558594
1494294969.6812129021,       -1.0029296875,        0.0449218750,       -0.0517578125,       -7.7972412109,        2.0751953125,       37.5976562500
1494294969.6839070320,       -1.0029296875,        0.0449218750,       -0.0517578125,       -7.7972412109,        2.0751953125,       37.5976562500
1494294969.6866030693,       -1.0029296875,        0.2407226562,       -0.0048828125,       -9.1400146484,       -2.4414062500,       41.9311523438
1494294969.6892900467,       -0.7465820312,        0.2407226562,       -0.0048828125,       -9.1400146484,       -2.4414062500,       41.9311523438
1494294969.6920049191,       -0.7465820312,        0.2407226562,       -0.0048828125,       -4.9896240234,       -4.9285888672,       42.6330566406
1494294969.6946949959,       -0.7465820312,        0.2407226562,       -0.0048828125,       -4.9896240234,       -4.9285888672,       42.6330566406
1494294969.6974809170,       -0.6494140625,        0.4267578125,       -0.0405273438,        1.5258789062,       -7.3242187500,       41.6107177734
1494294969.7001678944,       -0.6494140625,        0.4267578125,       -0.0405273438,        1.5258789062,       -7.3242187500,       41.6107177734
1494294969.7032740116,       -0.6494140625,        0.4267578125,       -0.0405273438,        9.7045898438,       -9.6435546875,       39.3676757812
1494294969.7059760094,       -0.6494140625,        0.4267578125,       -0.0405273438,        9.7045898438,       -9.6435546875,       39.3676757812
1494294969.7086660862,       -0.6835937500,        0.4042968750,       -0.0781250000,       16.5100097656,      -11.1236572266,       35.9802246094
1494294969.7113769054,       -0.6835937500,        0.4042968750,       -0.0781250000,       16.5100097656,      -11.1236572266,       35.9802246094
1494294969.7140769958,       -0.6835937500,        0.4042968750,       -0.0781250000,       21.5454101562,      -11.0778808594,       33.9050292969
1494294969.7167789936,       -0.6835937500,        0.3261718750,       -0.0527343750,       21.5454101562,      -11.0778808594,       33.9050292969
1494294969.7194850445,       -0.9306640625,        0.3261718750,       -0.0527343750,       23.4527587891,      -11.0168457031,       33.2641601562
1494294969.7221260071,       -0.9306640625,        0.3261718750,       -0.0527343750,       23.4527587891,      -11.0168457031,       33.2641601562
1494294969.7246809006,       -0.9306640625,        0.3261718750,       -0.0527343750,       20.5078125000,      -14.8162841797,       32.8979492188
1494294969.7272419930,       -0.9306640625,        0.2387695312,        0.0488281250,       20.5078125000,      -14.8162841797,       32.8979492188
1494294969.7298040390,       -0.8974609375,        0.2387695312,        0.0488281250,       15.4724121094,      -18.3563232422,       33.0657958984
1494294969.7323698997,       -0.8974609375,        0.2387695312,        0.0488281250,       15.4724121094,      -18.3563232422,       33.0657958984
1494294969.7349328995,       -0.8974609375,        0.2387695312,        0.0488281250,       11.5661621094,      -20.5535888672,       32.9437255859
1494294969.7374920845,       -0.7363281250,        0.3842773438,        0.1259765625,       11.3372802734,      -20.5535888672,       32.9437255859
1494294969.7400479317,       -0.7363281250,        0.3842773438,        0.1259765625,       11.3372802734,      -20.5535888672,       30.7312011719
1494294969.7426640987,       -0.7363281250,        0.3842773438,        0.1259765625,       10.8032226562,      -22.0489501953,       30.7312011719
1494294969.7453370094,       -0.7363281250,        0.3842773438,        0.1259765625,       10.8032226562,      -22.0489501953,       25.5889892578
1494294969.7478969097,       -0.6601562500,        0.5068359375,        0.0917968750,       13.4582519531,      -23.3306884766,       25.5889892578
1494294969.7504560947,       -0.6601562500,        0.5068359375,        0.0917968750,       13.4582519531,      -23.3306884766,       19.1192626953
1494294969.7531640530,       -0.6601562500,        0.5068359375,        0.0917968750,       17.0288085938,      -22.9339599609,       19.1192626953
1494294969.7557249069,       -0.6601562500,        0.5068359375,        0.0917968750,       17.0288085938,      -22.9339599609,       19.1192626953
1494294969.7582828999,       -0.6503906250,        0.5415039062,        0.0659179688,       19.1192626953,      -21.0723876953,       12.7716064453
1494294969.7610120773,       -0.6503906250,        0.5415039062,        0.0659179688,       19.1192626953,      -21.0723876953,       12.7716064453
1494294969.7637150288,       -0.6503906250,        0.5415039062,        0.0659179688,       20.3552246094,      -18.4326171875,        6.1340332031
1494294969.7664179802,       -0.6503906250,        0.5415039062,        0.0659179688,       20.3552246094,      -18.4326171875,        6.1340332031
1494294969.7691218853,       -0.7275390625,        0.5039062500,        0.0537109375,       20.5688476562,      -16.0827636719,       -0.0610351562
1494294969.7717809677,       -0.7275390625,        0.5039062500,        0.0537109375,       20.5688476562,      -16.0827636719,       -0.0610351562
1494294969.7743339539,       -0.7275390625,        0.5039062500,        0.0537109375,       19.6380615234,      -13.3819580078,       -5.1727294922
1494294969.7768900394,       -0.7275390625,        0.5039062500,        0.1293945312,       19.6380615234,      -13.3819580078,       -5.1727294922
1494294969.7794389725,       -0.7968750000,        0.4643554688,        0.1293945312,       19.4396972656,       -9.9334716797,       -9.6893310547
1494294969.7820680141,       -0.7968750000,        0.4643554688,        0.1293945312,       19.4396972656,       -9.9334716797,       -9.6893310547
1494294969.7847619057,       -0.7968750000,        0.4643554688,        0.1293945312,       22.9187011719,       -6.6833496094,      -15.8233642578
1494294969.7874560356,       -0.7968750000,        0.4160156250,        0.2006835938,       22.9187011719,       -6.6833496094,      -15.8233642578
1494294969.7901580334,       -0.8779296875,        0.4160156250,        0.2006835938,       28.2287597656,       -3.6621093750,      -24.5819091797
1494294969.7928619385,       -0.8779296875,        0.4160156250,        0.2006835938,       28.2287597656,       -3.6621093750,      -24.5819091797
1494294969.7955570221,       -0.8779296875,        0.4160156250,        0.2006835938,       32.8521728516,       -1.3427734375,      -32.5012207031
1494294969.7982549667,       -0.9311523438,        0.3442382812,        0.1562500000,       32.8521728516,       -1.3427734375,      -32.5012207031
1494294969.8009629250,       -0.9311523438,        0.3442382812,        0.1562500000,       35.2630615234,        0.9613037109,      -38.0706787109
1494294969.8036611080,       -0.9311523438,        0.3442382812,        0.1562500000,       35.2630615234,        0.9613037109,      -38.0706787109
1494294969.8063590527,       -0.9311523438,        0.3442382812,        0.1562500000,       37.1551513672,        3.0517578125,      -46.4172363281
1494294969.8090500832,       -1.0205078125,        0.3754882812,        0.0483398438,       37.1551513672,        3.0517578125,      -46.4172363281
1494294969.8117580414,       -1.0205078125,        0.3754882812,        0.0483398438,       40.0390625000,        6.2103271484,      -55.7556152344
1494294969.8144490719,       -1.0205078125,        0.3754882812,        0.0483398438,       40.0390625000,        6.2103271484,      -55.7556152344
1494294969.8172430992,       -1.0205078125,        0.3754882812,       -0.1108398438,       42.0684814453,        7.9650878906,      -64.5294189453
1494294969.8200500011,       -1.0727539062,        0.4472656250,       -0.1108398438,       42.0684814453,        7.9650878906,      -64.5294189453
1494294969.8229789734,       -1.0727539062,        0.4472656250,       -0.1108398438,       44.7998046875,        9.9334716797,      -73.2421875000
1494294969.8255450726,       -1.0727539062,        0.4472656250,       -0.1108398438,       44.7998046875,        9.9334716797,      -73.2421875000
1494294969.8280959129,       -1.1977539062,        0.4726562500,       -0.1977539062,       50.8880615234,       12.8936767578,      -84.7015380859
1494294969.8306889534,       -1.1406250000,        0.4726562500,       -0.1977539062,       50.8880615234,       12.8936767578,      -84.7015380859
1494294969.8333959579,       -1.1406250000,        0.4726562500,       -0.1977539062,       55.1757812500,       13.3361816406,      -97.5341796875
1494294969.8360979557,       -1.1406250000,        0.4726562500,       -0.1977539062,       55.1757812500,       13.3361816406,      -97.5341796875
1494294969.8388020992,       -1.1567382812,        0.4316406250,       -0.2387695312,       57.4493408203,       14.4653320312,     -110.6719970703
1494294969.8415479660,       -1.1567382812,        0.4316406250,       -0.2387695312,       57.4493408203,       14.4653320312,     -110.6719970703
1494294969.8442440033,       -1.1567382812,        0.4316406250,       -0.2387695312,       62.5457763672,       14.9383544922,     -125.9765625000
1494294969.8469460011,       -1.1567382812,        0.4316406250,       -0.2387695312,       62.5457763672,       14.9383544922,     -125.9765625000
1494294969.8496439457,       -1.1972656250,        0.4140625000,       -0.2763671875,       67.1386718750,       13.3209228516,     -144.4091796875
1494294969.8522961140,       -1.1972656250,        0.4140625000,       -0.2763671875,       67.1386718750,       13.3209228516,     -144.4091796875
1494294969.8548591137,       -1.1972656250,        0.4140625000,       -0.2763671875,       72.4029541016,       12.8173828125,     -164.7491455078
1494294969.8574149609,       -1.1972656250,        0.4140625000,       -0.4013671875,       72.4029541016,       12.8173828125,     -164.7491455078
1494294969.8599770069,       -1.3808593750,        0.5244140625,       -0.3999023438,       72.4029541016,       13.9007568359,     -178.1921386719
1494294969.8625440598,       -1.3808593750,        0.5244140625,       -0.3999023438,       73.6389160156,       13.9007568359,     -178.1921386719
1494294969.8651070595,       -1.3808593750,        0.5244140625,       -0.3999023438,       73.6389160156,       13.9007568359,     -187.4542236328
1494294969.8676669598,       -1.3808593750,        0.5244140625,       -0.5742187500,       68.8629150391,       12.7716064453,     -187.4542236328
1494294969.8702270985,       -1.6108398438,        0.5742187500,       -0.5742187500,       68.8629150391,       12.7716064453,     -203.0792236328
1494294969.8728361130,       -1.6108398438,        0.5742187500,       -0.5742187500,       77.3620605469,       16.6168212891,     -200.1647949219
1494294969.8754019737,       -1.6108398438,        0.5742187500,       -0.5742187500,       77.3620605469,       16.6168212891,     -200.1647949219
1494294969.8779580593,       -1.6108398438,        0.3242187500,       -0.7392578125,       95.1385498047,       24.2614746094,     -215.8203125000
1494294969.8805189133,       -1.8740234375,        0.3500976562,       -0.7392578125,       95.1385498047,       24.2614746094,     -215.8203125000
1494294969.8833389282,       -1.8740234375,        0.3500976562,       -0.7392578125,      116.9281005859,       33.6914062500,     -230.8654785156
1494294969.8860390186,       -1.8740234375,        0.3500976562,       -0.7392578125,      116.9281005859,       33.6914062500,     -230.8654785156
1494294969.8887379169,       -2.0942382812,       -0.2778320312,       -0.7656250000,      143.1121826172,       38.3453369141,     -244.3695068359
1494294969.8915569782,       -2.0942382812,       -0.2778320312,       -0.7656250000,      143.1121826172,       38.3453369141,     -244.3695068359
1494294969.8942580223,       -2.0942382812,       -0.2778320312,       -0.7656250000,      176.9561767578,       45.0592041016,     -257.2631835938
1494294969.8969600201,       -2.0942382812,       -0.2778320312,       -0.7656250000,      176.9561767578,       45.0592041016,     -257.2631835938
1494294969.8996620178,       -2.1757812500,       -1.2807617188,       -0.9326171875,      226.6082763672,       53.4820556641,     -273.5137939453
1494294969.9023768902,       -2.1757812500,       -1.2807617188,       -0.9326171875,      226.6082763672,       53.4820556641,     -273.5137939453
1494294969.9050700665,       -2.1757812500,       -1.2807617188,       -0.9326171875,      285.8428955078,       68.5272216797,     -285.0189208984
1494294969.9077720642,       -2.1757812500,       -1.2807617188,       -0.5576171875,      285.8428955078,       68.5272216797,     -285.0189208984
1494294969.9104709625,       -2.1088867188,       -1.2319335938,       -0.5922851562,      326.6601562500,       83.6486816406,     -288.5437011719
1494294969.9130520821,       -2.1088867188,       -1.2319335938,       -0.5922851562,      326.6601562500,       83.6486816406,     -288.5437011719
1494294969.9156088829,       -2.1088867188,       -1.2319335938,       -0.5922851562,      312.1337890625,       73.2879638672,     -267.5781250000
1494294969.9181718826,       -2.1088867188,       -1.2319335938,        0.4243164062,      312.1337890625,       73.2879638672,     -267.5781250000
1494294969.9207038879,       -3.7099609375,        0.9160156250,        0.4243164062,      212.7227783203,       38.1469726562,     -202.0111083984
1494294969.9234099388,       -3.7099609375,        0.9160156250,        0.4243164062,      212.7227783203,       38.1469726562,     -202.0111083984
1494294969.9261100292,       -3.7099609375,        0.9160156250,        0.4243164062,      155.7464599609,       42.2973632812,     -161.4685058594
1494294969.9288039207,       -2.4599609375,        4.5117187500,        1.9589843750,      155.7464599609,       42.2973632812,     -161.4685058594
1494294969.9315650463,       -2.4155273438,        4.5117187500,        1.9589843750,      100.3875732422,       80.0323486328,     -191.7724609375
1494294969.9342660904,       -2.4155273438,        4.5117187500,        1.9589843750,      100.3875732422,       80.0323486328,     -191.7724609375
1494294969.9371800423,       -2.4155273438,        4.5117187500,        1.9589843750,       91.5679931641,       81.2377929688,     -226.9897460938
1494294969.9398770332,        1.0537109375,        4.3515625000,        1.4052734375,       91.5679931641,       81.2377929688,     -226.9897460938
1494294969.9427790642,        1.0537109375,        4.3515625000,        1.4052734375,      187.9425048828,       39.8864746094,     -186.1724853516
1494294969.9454789162,        1.0537109375,        4.3515625000,        1.4052734375,      187.9425048828,       39.8864746094,     -186.1724853516
1494294969.9481730461,        1.0537109375,        4.3515625000,        0.3764648438,      173.6755371094,       28.3660888672,      -54.7637939453
1494294969.9509160519,        1.2626953125,        0.7612304688,        0.3764648438,      173.6755371094,       28.3660888672,      -54.7637939453
1494294969.9534800053,        1.2626953125,        0.7612304688,        0.3764648438,      167.7246093750,       12.5885009766,      105.3009033203
1494294969.9560389519,        1.2626953125,        0.7612304688,        0.3764648438,      167.7246093750,       12.5885009766,      105.3009033203
1494294969.9586009979,        1.2626953125,        0.3862304688,        0.3608398438,      153.4881591797,       -0.9307861328,      189.5904541016
1494294969.9612009525,       -1.4252929688,        0.4750976562,        0.3608398438,      153.4881591797,       -0.9307861328,      189.5904541016
1494294969.9639000893,       -1.4252929688,        0.4750976562,        0.3608398438,      112.6861572266,        6.4544677734,      229.1564941406
1494294969.9667220116,       -1.4252929688,        0.4750976562,        0.3608398438,      112.6861572266,        6.4544677734,      229.1564941406
1494294969.9694190025,       -0.4804687500,        0.6923828125,        1.0351562500,       50.3997802734,        0.2441406250,      221.3439941406
1494294969.9720840454,       -0.4804687500,        0.6923828125,        1.0351562500,       50.3997802734,        0.2441406250,      221.3439941406
1494294969.9746429920,       -0.4804687500,        0.6923828125,        1.0351562500,      -38.4979248047,       -2.5329589844,      204.9713134766
1494294969.9771990776,       -0.4804687500,        0.6923828125,        1.0351562500,      -38.4979248047,       -2.5329589844,      204.9713134766
1494294969.9797580242,       -0.1406250000,       -0.6499023438,        0.8554687500,     -128.3416748047,       -0.6561279297,      188.0340576172
1494294969.9823269844,       -0.1406250000,       -0.6499023438,        0.8554687500,     -127.2583007812,       -0.6561279297,      188.0340576172
1494294969.9848849773,       -0.1406250000,       -0.6499023438,        0.8554687500,     -127.2583007812,       -4.5623779297,      171.4935302734
1494294969.9874429703,       -0.1406250000,       -0.6499023438,        0.8554687500,     -201.0803222656,       -4.5318603516,      171.4935302734
1494294969.9899981022,       -0.5117187500,       -1.0239257812,        0.1108398438,     -201.0803222656,       -4.5318603516,      170.4864501953
1494294969.9926569462,       -0.5117187500,       -1.0239257812,        0.1108398438,     -248.5351562500,      -10.0097656250,      170.4864501953
1494294969.9952189922,       -0.5117187500,       -1.0239257812,        0.1108398438,     -248.5351562500,      -10.0097656250,      170.4864501953
1494294969.9977760315,       -0.5117187500,       -1.0239257812,        0.1108398438,     -268.7072753906,      -13.3361816406,      170.7153320312
1494294970.0003409386,       -0.5117187500,       -0.4995117188,       -0.3432617188,     -268.7072753906,      -13.3361816406,      170.7153320312
1494294970.0030279160,       -0.5117187500,       -0.4995117188,       -0.3432617188,     -261.5966796875,      -18.1884765625,      163.0554199219
1494294970.0055899620,       -0.5117187500,       -0.4995117188,       -0.3432617188,     -261.5966796875,      -18.1884765625,      163.0554199219
1494294970.0081520081,       -0.5117187500,       -0.4995117188,       -0.3432617188,     -235.9313964844,      -25.2227783203,      151.7639160156
1494294970.0107030869,       -0.1611328125,       -0.1875000000,       -0.2880859375,     -235.9313964844,      -25.2227783203,      151.7639160156
1494294970.0134038925,       -0.1611328125,       -0.1875000000,       -0.2880859375,     -207.2448730469,      -27.0233154297,      136.1236572266
1494294970.0161120892,       -0.1611328125,       -0.1875000000,       -0.2880859375,     -207.2448730469,      -27.0233154297,      136.1236572266
1494294970.0188069344,       -0.1611328125,       -0.1875000000,       -0.2573242188,     -180.0842285156,      -22.3083496094,      119.6899414062
1494294970.0215590000,       -0.0971679688,       -0.2050781250,       -0.2573242188,     -180.0842285156,      -22.3083496094,      119.6899414062
1494294970.0242619514,       -0.0971679688,       -0.2050781250,       -0.2573242188,     -149.9023437500,      -18.2647705078,      102.2491455078
1494294970.0269598961,       -0.0971679688,       -0.2050781250,       -0.2573242188,     -149.9023437500,      -18.2647705078,      102.2491455078
1494294970.0296649933,        0.0278320312,       -0.5087890625,       -0.3852539062,     -124.1302490234,      -15.8233642578,       80.9173583984
1494294970.0322880745,        0.0263671875,       -0.5087890625,       -0.3852539062,     -124.1302490234,      -15.8233642578,       80.9173583984
1494294970.0348439217,        0.0263671875,       -0.5087890625,       -0.3852539062,     -104.8736572266,      -15.2740478516,       60.4553222656
1494294970.0374081135,        0.0263671875,       -0.5087890625,       -0.3852539062,     -104.8736572266,      -15.2740478516,       60.4553222656
1494294970.0400800705,        0.1401367188,       -0.6743164062,       -0.3754882812,      -96.0388183594,      -15.3656005859,       42.9687500000
1494294970.0427050591,        0.1401367188,       -0.6743164062,       -0.3754882812,      -96.0388183594,      -15.3656005859,       42.9687500000
1494294970.0452620983,        0.1401367188,       -0.6743164062,       -0.3754882812,      -92.1325683594,      -12.3901367188,       26.2451171875
1494294970.0478179455,        0.1401367188,       -0.6743164062,       -0.3754882812,      -91.3085937500,      -12.3901367188,       26.2451171875
1494294970.0503799915,        0.1533203125,       -0.7270507812,       -0.2783203125,      -91.3085937500,       -8.0413818359,       10.1318359375
1494294970.0530769825,        0.1533203125,       -0.7270507812,       -0.2783203125,      -87.9364013672,       -8.0413818359,       10.1318359375
1494294970.0557770729,        0.1533203125,       -0.7270507812,       -0.2783203125,      -84.0301513672,       -3.4942626953,       -8.5296630859
1494294970.0587220192,        0.1533203125,       -0.7270507812,       -0.2783203125,      -85.0677490234,       -3.4942626953,       -8.5296630859
1494294970.0616619587,        0.0937500000,       -0.6850585938,       -0.1455078125,      -78.9489746094,        4.1046142578,      -31.4941406250
1494294970.0643711090,        0.0937500000,       -0.6850585938,       -0.1455078125,      -78.9489746094,        4.1046142578,      -31.4941406250
1494294970.0670740604,        0.0937500000,       -0.6850585938,       -0.1455078125,      -79.4830322266,       13.9312744141,      -53.4210205078
1494294970.0697779655,        0.0937500000,       -0.5122070312,       -0.0683593750,      -79.4830322266,       13.9312744141,      -53.4210205078
1494294970.0724899769,        0.0449218750,       -0.5122070312,       -0.0683593750,      -77.6367187500,       14.2669677734,      -72.6013183594
1494294970.0751910210,        0.0449218750,       -0.5122070312,       -0.0683593750,      -77.6367187500,       14.2669677734,      -72.6013183594
1494294970.0778980255,        0.0449218750,       -0.5122070312,       -0.0683593750,      -68.6950683594,       14.8925781250,      -87.1734619141
1494294970.0805950165,       -0.0117187500,       -0.2001953125,       -0.0395507812,      -68.6950683594,       14.8925781250,      -87.1734619141
1494294970.0833001137,       -0.0117187500,       -0.2001953125,       -0.0395507812,      -56.9763183594,       18.7377929688,      -96.6339111328
1494294970.0860040188,       -0.0117187500,       -0.2001953125,       -0.0395507812,      -54.7943115234,       18.7377929688,      -96.6339111328
1494294970.0887069702,       -0.0117187500,       -0.2001953125,       -0.0395507812,      -27.4505615234,       21.0418701172,     -103.6071777344
1494294970.0913960934,       -0.0629882812,       -0.0034179688,       -0.0800781250,      -30.9143066406,       21.0418701172,     -103.6071777344
1494294970.0939590931,       -0.0629882812,       -0.0034179688,       -0.0800781250,      -30.9143066406,       22.2930908203,     -108.3679199219
1494294970.0965220928,       -0.0629882812,       -0.0034179688,       -0.0800781250,       -1.6174316406,       22.2930908203,     -108.3679199219
1494294970.0990829468,       -0.0629882812,       -0.0034179688,       -0.0800781250,       -1.6174316406,       22.2930908203,     -111.0992431641
1494294970.1016569138,       -0.0126953125,        0.0249023438,       -0.1337890625,       27.6336669922,       21.4385986328,     -111.0992431641
1494294970.1042189598,       -0.0126953125,        0.0249023438,       -0.1337890625,       27.6336669922,       21.4385986328,     -111.0992431641
1494294970.1067800522,       -0.0126953125,        0.0249023438,       -0.1337890625,       50.9490966797,       19.0734863281,     -112.2436523438
1494294970.1093380451,       -0.0126953125,        0.0249023438,       -0.1337890625,       50.9490966797,       19.0734863281,     -112.2436523438
1494294970.1121759415,       -0.0180664062,       -0.0937500000,       -0.1308593750,       66.7419433594,       16.4947509766,     -111.5264892578
1494294970.1147449017,       -0.0180664062,       -0.0937500000,       -0.1308593750,       66.7419433594,       16.4947509766,     -111.5264892578
1494294970.1173019409,       -0.0180664062,       -0.0937500000,       -0.1308593750,       74.4018554688,       13.2598876953,     -109.0240478516
1494294970.1198709011,       -0.0180664062,       -0.2187500000,       -0.0527343750,       74.4018554688,       13.2598876953,     -109.0240478516
1494294970.1226830482,       -0.0751953125,       -0.1562500000,       -0.0527343750,       77.0568847656,        9.5977783203,     -103.9123535156
1494294970.1253809929,       -0.0751953125,       -0.1562500000,       -0.0527343750,       77.0568847656,        9.5977783203,     -103.9123535156
1494294970.1280829906,       -0.0751953125,       -0.1562500000,       -0.0527343750,       77.3010253906,        6.2103271484,      -98.3276367188
1494294970.1307859421,       -0.1196289062,       -0.0942382812,        0.0146484375,       77.3010253906,        6.2103271484,      -98.3276367188
1494294970.1334850788,       -0.1196289062,       -0.0942382812,        0.0146484375,       78.2318115234,        3.0975341797,      -94.9401855469
1494294970.1361908913,       -0.1196289062,       -0.0942382812,        0.0146484375,       78.2318115234,        3.0975341797,      -94.9401855469
1494294970.1388890743,       -0.1196289062,       -0.0942382812,        0.0146484375,       82.1533203125,        0.1983642578,      -91.7358398438
1494294970.1415660381,       -0.1098632812,        0.0444335938,        0.0361328125,       82.1533203125,        0.1983642578,      -91.7358398438
1494294970.1441209316,       -0.1098632812,        0.0444335938,        0.0361328125,       86.7309570312,       -4.1961669922,      -87.9516601562
1494294970.1466760635,       -0.1098632812,        0.0444335938,        0.0361328125,       86.7309570312,       -4.1961669922,      -87.9516601562
1494294970.1492390633,       -0.1098632812,        0.0444335938,        0.0361328125,       90.4998779297,       -8.3465576172,      -82.9925537109
1494294970.1518659592,       -0.1113281250,        0.1264648438,        0.0141601562,       90.4998779297,       -8.3465576172,      -82.9925537109
1494294970.1545650959,       -0.1113281250,        0.1264648438,        0.0141601562,       91.6595458984,      -10.2081298828,      -77.5909423828
1494294970.1572670937,       -0.1113281250,        0.1264648438,        0.0141601562,       91.6595458984,      -10.2081298828,      -77.5909423828
1494294970.1599650383,       -0.1113281250,        0.1264648438,       -0.0239257812,       90.8813476562,      -11.2762451172,      -72.6623535156
1494294970.1626389027,       -0.1191406250,        0.1279296875,       -0.0239257812,       90.8813476562,      -11.2762451172,      -72.6623535156
1494294970.1651980877,       -0.1191406250,        0.1279296875,       -0.0239257812,       87.7685546875,      -11.1694335938,      -68.1762695312
1494294970.1677620411,       -0.1191406250,        0.1279296875,       -0.0239257812,       87.7685546875,      -11.1694335938,      -68.1762695312
1494294970.1703290939,       -0.1191406250,        0.0029296875,       -0.0468750000,       81.2683105469,       -9.7045898438,      -63.6901855469
1494294970.1731190681,       -0.1123046875,        0.0810546875,       -0.0468750000,       81.2683105469,       -9.7045898438,      -63.6901855469
1494294970.1757760048,       -0.1123046875,        0.0810546875,       -0.0468750000,       72.0977783203,       -8.1939697266,      -59.5855712891
1494294970.1787199974,       -0.1123046875,        0.0810546875,       -0.0468750000,       72.0977783203,       -8.1939697266,      -59.5855712891
1494294970.1814899445,       -0.1264648438,        0.0092773438,       -0.0302734375,       61.5081787109,       -7.7667236328,      -57.0068359375
1494294970.1842029095,       -0.1264648438,        0.0092773438,       -0.0302734375,       61.5081787109,       -7.7667236328,      -57.0068359375
1494294970.1870200634,       -0.1264648438,        0.0092773438,       -0.0302734375,       48.8433837891,       -7.2479248047,      -55.2215576172
1494294970.1897211075,       -0.1264648438,        0.0092773438,       -0.0302734375,       48.8433837891,       -7.2479248047,      -55.2215576172
1494294970.1923511028,       -0.1591796875,       -0.0454101562,        0.0102539062,       33.9202880859,       -6.8359375000,      -53.4210205078
1494294970.1949079037,       -0.1591796875,       -0.0454101562,        0.0102539062,       33.9202880859,       -6.8359375000,      -53.4210205078
1494294970.1974670887,       -0.1591796875,       -0.0454101562,        0.0102539062,       33.9202880859,       -6.7443847656,      -53.4515380859
1494294970.2000229359,       -0.1591796875,       -0.0454101562,        0.0102539062,       19.0429687500,       -6.7443847656,      -53.4515380859
1494294970.2026960850,       -0.1635742188,       -0.0756835938,        0.0166015625,       19.0429687500,       -6.7443847656,      -53.9855957031
1494294970.2053990364,       -0.1635742188,       -0.0756835938,        0.0166015625,        4.8065185547,       -6.9580078125,      -53.9855957031
1494294970.2080960274,       -0.1635742188,       -0.0756835938,        0.0166015625,        4.8065185547,       -6.9580078125,      -54.7637939453
1494294970.2107920647,       -0.1635742188,       -0.0756835938,       -0.0239257812,       -6.5612792969,       -7.1563720703,      -54.7637939453
1494294970.2133469582,       -0.1240234375,       -0.0302734375,       -0.0239257812,       -6.5612792969,       -7.1563720703,      -55.0994873047
1494294970.2158989906,       -0.1240234375,       -0.0302734375,       -0.0239257812,      -15.2587890625,       -6.1187744141,      -55.0994873047
1494294970.2184560299,       -0.1240234375,       -0.0302734375,       -0.0239257812,      -15.2587890625,       -6.1187744141,      -51.1932373047
1494294970.2210109234,       -0.1240234375,        0.0297851562,       -0.0761718750,      -19.4702148438,       -5.3863525391,      -54.2755126953
1494294970.2235689163,       -0.0869140625,        0.0297851562,       -0.0761718750,      -19.4702148438,       -5.3863525391,      -54.2755126953
1494294970.2261281013,       -0.0869140625,        0.0297851562,       -0.0761718750,      -21.3165283203,       -4.9743652344,      -53.9245605469
1494294970.2286829948,       -0.0869140625,        0.0297851562,       -0.0761718750,      -21.3165283203,       -4.9743652344,      -53.9245605469
1494294970.2313311100,       -0.0869140625,        0.0703125000,       -0.1108398438,      -22.3541259766,       -4.8370361328,      -52.6428222656
1494294970.2338950634,       -0.0625000000,        0.0703125000,       -0.1108398438,      -22.3541259766,       -4.8370361328,      -52.6428222656
1494294970.2364521027,       -0.0625000000,        0.0703125000,       -0.1108398438,      -21.4691162109,       -4.3182373047,      -50.8270263672
1494294970.2390120029,       -0.0625000000,        0.0703125000,       -0.1108398438,      -21.4691162109,       -4.3182373047,      -50.8270263672
1494294970.2416720390,       -0.0556640625,        0.0961914062,       -0.0961914062,      -17.7917480469,       -3.5247802734,      -47.2869873047
1494294970.2442300320,       -0.0556640625,        0.0961914062,       -0.0961914062,      -17.7917480469,       -3.5247802734,      -47.2869873047
1494294970.2467899323,       -0.0556640625,        0.0961914062,       -0.0961914062,       -9.5062255859,       -2.1057128906,      -43.1060791016
1494294970.2493429184,       -0.0556640625,        0.0961914062,       -0.0961914062,       -9.5062255859,       -2.1057128906,      -43.1060791016
1494294970.2520020008,       -0.0625000000,        0.0722656250,       -0.0078125000,        2.2125244141,        0.4272460938,      -38.8793945312
1494294970.2547059059,       -0.0625000000,        0.0722656250,       -0.0078125000,        1.3427734375,        0.4272460938,      -38.8793945312
1494294970.2574019432,       -0.0625000000,        0.0722656250,       -0.0078125000,       13.0615234375,        1.9531250000,      -34.9884033203
1494294970.2602179050,       -0.0625000000,        0.0722656250,       -0.0078125000,       12.0239257812,        1.9531250000,      -34.9884033203
1494294970.2629630566,       -0.0268554688,       -0.0126953125,        0.0566406250,       19.0124511719,        1.8768310547,      -30.7312011719
1494294970.2656559944,       -0.0268554688,       -0.0126953125,        0.0566406250,       19.0124511719,        1.8768310547,      -30.7312011719
1494294970.2683548927,       -0.0268554688,       -0.0126953125,        0.0566406250,       22.9187011719,       -1.3732910156,      -24.7039794922
1494294970.2710540295,       -0.0268554688,       -0.0126953125,        0.0786132812,       22.4914550781,       -1.3732910156,      -24.7039794922
1494294970.2736139297,       -0.0205078125,        0.0239257812,        0.0786132812,       22.4914550781,       -5.1422119141,      -17.3339843750
1494294970.2761740685,       -0.0205078125,        0.0239257812,        0.0786132812,       21.7895507812,       -5.1422119141,      -17.3339843750
1494294970.2787330151,       -0.0205078125,        0.0239257812,        0.0786132812,       21.7895507812,       -5.1422119141,       -8.9721679688
1494294970.2813870907,       -0.0205078125,        0.2988281250,        0.0053710938,       20.7214355469,       -5.4473876953,       -8.9721679688
1494294970.2840790749,       -0.1333007812,        0.2988281250,        0.0053710938,       20.7214355469,       -5.4473876953,        0.7781982422
1494294970.2867720127,       -0.1333007812,        0.2988281250,        0.0053710938,       22.1405029297,       -5.2642822266,        0.7781982422
1494294970.2894721031,       -0.1333007812,        0.2988281250,        0.0053710938,       22.1405029297,       -5.2642822266,       11.1541748047
1494294970.2921059132,       -0.2031250000,        0.5571289062,       -0.0112304688,       30.1208496094,       -7.1563720703,       11.1541748047
1494294970.2946588993,       -0.2031250000,        0.5571289062,       -0.0112304688,       30.1208496094,       -7.1563720703,       22.8729248047
1494294970.2974669933,       -0.2031250000,        0.5571289062,       -0.0112304688,       39.5355224609,       -6.0729980469,       19.6838378906
1494294970.3000359535,       -0.2031250000,        0.5571289062,       -0.0112304688,       39.5355224609,       -6.0729980469,       27.6336669922
1494294970.3030209541,       -0.1450195312,        0.6352539062,        0.0673828125,       50.2166748047,       -2.5634765625,       27.6336669922
1494294970.3057250977,       -0.1450195312,        0.6352539062,        0.0673828125,       50.2166748047,       -2.5634765625,       35.7208251953
1494294970.3084270954,       -0.1450195312,        0.6352539062,        0.0673828125,       62.8051757812,       -2.8076171875,       35.7208251953
1494294970.3111579418,       -0.1450195312,        0.6352539062,        0.0673828125,       62.8051757812,       -2.8076171875,       42.3889160156
1494294970.3138480186,       -0.1015625000,        0.5361328125,        0.0874023438,       71.7620849609,       -5.8288574219,       42.3889160156
1494294970.3165469170,       -0.1015625000,        0.5361328125,        0.0874023438,       71.7620849609,       -5.8288574219,       51.8188476562
1494294970.3192389011,       -0.1015625000,        0.5361328125,        0.0874023438,       76.7059326172,       -9.3536376953,       51.8188476562
1494294970.3219749928,       -0.1015625000,        0.4497070312,       -0.0546875000,       76.7059326172,       -9.3536376953,       62.5610351562
1494294970.3246669769,       -0.1474609375,        0.4497070312,       -0.0546875000,       76.0498046875,      -15.8538818359,       62.5610351562
1494294970.3273620605,       -0.1474609375,        0.4497070312,       -0.0546875000,       76.0498046875,      -15.8538818359,       74.2797851562
1494294970.3300650120,       -0.1474609375,        0.4497070312,       -0.0546875000,       63.1408691406,      -20.2636718750,       76.7669677734
1494294970.3327751160,       -0.3393554688,        0.5600585938,       -0.2934570312,       63.1408691406,      -20.2636718750,       92.3919677734
1494294970.3353331089,       -0.3393554688,        0.5600585938,       -0.2934570312,       42.9840087891,      -23.3612060547,       92.4835205078
1494294970.3379020691,       -0.3393554688,        0.5600585938,       -0.2934570312,       42.9840087891,      -23.3612060547,       92.4835205078
1494294970.3404641151,       -0.3393554688,        0.5600585938,       -0.2934570312,       -5.5236816406,      -29.3884277344,      107.8338623047
1494294970.3430631161,       -0.7963867188,        2.5380859375,        0.4179687500,       -5.5236816406,      -29.3884277344,      107.8338623047
1494294970.3456180096,       -0.7963867188,        2.5380859375,        0.4179687500,      -32.0129394531,      -24.3225097656,      125.4119873047
1494294970.3481791019,       -0.7963867188,        2.5380859375,        0.4179687500,      -32.0129394531,      -24.3225097656,      125.4119873047
1494294970.3508589268,       -0.7963867188,        2.5380859375,        0.4179687500,      229.1107177734,      -49.1943359375,      101.5014648438
1494294970.3534309864,       -2.3393554688,       10.4135742188,        3.8090820312,      229.1107177734,      -49.1943359375,      101.5014648438
1494294970.3559930325,       -2.3393554688,       10.4135742188,        3.8090820312,       67.8710937500,       33.0505371094,      210.1440429688
1494294970.3585619926,       -2.3393554688,       10.4135742188,        3.8090820312,       67.8710937500,       33.0505371094,      210.1440429688
1494294970.3612799644,       -2.3393554688,       10.4135742188,        3.8090820312,     -487.0147705078,      101.0284423828,      288.2843017578
1494294970.3639760017,       -4.9892578125,       -2.2373046875,       -3.3125000000,     -487.0147705078,      101.0284423828,      288.2843017578
1494294970.3666710854,       -4.9892578125,       -2.2373046875,       -3.3125000000,     -236.7095947266,     -113.4796142578,      279.9377441406
1494294970.3693690300,       -4.9892578125,       -2.2373046875,       -3.3125000000,     -236.7095947266,     -113.4796142578,      279.9377441406
1494294970.3720750809,       -4.9892578125,       -6.3623046875,       -1.3657226562,      195.1141357422,     -141.9525146484,      184.5550537109
1494294970.3747720718,       -4.8486328125,       -6.3276367188,       -1.3657226562,      195.1141357422,     -141.9525146484,      184.5550537109
1494294970.3774650097,       -4.8486328125,       -6.3276367188,       -1.3657226562,       90.6677246094,      -67.4591064453,      125.3662109375
1494294970.3801651001,       -4.8486328125,       -6.3276367188,       -1.3657226562,       90.6677246094,      -67.4591064453,      125.3662109375
1494294970.3827669621,        0.0498046875,       -3.1293945312,        0.9409179688,        9.4451904297,      -36.8347167969,      182.5714111328
1494294970.3853209019,        0.0498046875,       -3.1293945312,        0.9409179688,        9.4451904297,      -36.8347167969,      182.5714111328
1494294970.3878819942,        0.0498046875,       -3.1293945312,        0.9409179688,        9.4451904297,       -5.5084228516,      208.1756591797
1494294970.3904349804,        0.0498046875,       -3.1293945312,        0.9409179688,      -35.3546142578,       -5.5084228516,      208.1756591797
1494294970.3930590153,       -0.8208007812,        0.5854492188,        1.9096679688,      -35.3546142578,       -5.5084228516,      123.2604980469
1494294970.3956151009,       -0.8208007812,        0.5854492188,        1.9096679688,      -89.4317626953,        3.7689208984,      123.2604980469
1494294970.3981699944,       -0.8208007812,        0.5854492188,        1.9096679688,      -89.4317626953,        3.7689208984,       99.8229980469
1494294970.4008851051,       -0.8208007812,        0.5854492188,        1.9096679688,     -186.4776611328,        1.0986328125,       99.8229980469
1494294970.4034500122,       -2.1611328125,        1.9838867188,       -0.8720703125,     -186.4776611328,        1.0986328125,       99.8229980469
1494294970.4061191082,       -2.1611328125,        1.9838867188,       -0.8720703125,     -225.6927490234,        7.4462890625,      120.5139160156
1494294970.4086759090,       -2.1611328125,        1.9838867188,       -0.8720703125,     -225.6927490234,        7.4462890625,      120.5139160156
1494294970.4113368988,       -2.1611328125,        1.9838867188,       -0.8720703125,      -83.4503173828,       31.7840576172,       53.2531738281
1494294970.4140000343,       -1.4121093750,        0.0717773438,       -1.0996093750,      -83.4503173828,       31.7840576172,       53.2531738281
1494294970.4166979790,       -1.4121093750,        0.0717773438,       -1.0996093750,      -16.6320800781,       64.5751953125,      106.4605712891
1494294970.4194281101,       -1.4121093750,        0.0717773438,       -1.0996093750,      -16.6320800781,       64.5751953125,      129.8980712891
1494294970.4224789143,       -1.4121093750,       -0.3032226562,       -0.6435546875,      -59.3566894531,      100.1129150391,      131.0577392578
1494294970.4250431061,       -4.2973632812,       -0.3603515625,       -0.6435546875,      -59.3566894531,      100.1129150391,      131.0577392578
1494294970.4276149273,       -4.2973632812,       -0.3603515625,       -0.6435546875,      -50.2471923828,       66.8182373047,      107.4066162109
1494294970.4301719666,       -4.2973632812,       -0.3603515625,       -0.6435546875,      -50.2471923828,       66.8182373047,      107.4066162109
1494294970.4328629971,       -4.2973632812,       -1.4931640625,        0.0566406250,      -43.1671142578,      -16.4184570312,      119.5831298828
1494294970.4355680943,       -2.3334960938,       -1.4931640625,        0.0566406250,      -43.1671142578,      -16.4184570312,      119.5831298828
1494294970.4382719994,       -2.3334960938,       -1.4931640625,        0.0566406250,     -101.9134521484,      -45.8374023438,      165.2221679688
1494294970.4409809113,       -2.3334960938,       -1.4931640625,        0.0566406250,     -101.9134521484,      -45.8374023438,      165.2221679688
1494294970.4436810017,        0.1704101562,        0.2612304688,        0.1162109375,     -155.9600830078,      -38.6047363281,      174.0570068359
1494294970.4463779926,        0.1704101562,        0.2612304688,        0.1162109375,     -155.9600830078,      -38.6047363281,      174.0570068359
1494294970.4490809441,        0.1704101562,        0.2612304688,        0.1162109375,     -167.3736572266,      -25.4669189453,      158.3709716797
1494294970.4517409801,        0.1704101562,        0.2612304688,        0.1162109375,     -167.3736572266,      -25.4669189453,      158.3709716797
1494294970.4542989731,        0.9189453125,        1.0483398438,        0.7543945312,     -158.4472656250,      -20.2789306641,      134.4299316406
1494294970.4568629265,        0.9189453125,        1.0483398438,        0.7543945312,     -158.4472656250,      -20.2789306641,      134.4299316406
1494294970.4594149590,        0.9189453125,        1.0483398438,        0.7543945312,     -132.2174072266,      -11.4593505859,      101.2573242188
1494294970.4619801044,        0.9189453125,        1.0483398438,        0.7543945312,     -132.2174072266,      -11.4593505859,      101.2573242188
1494294970.4645500183,        0.1020507812,        1.2641601562,        0.2924804688,      -85.1593017578,        5.7220458984,       63.4307861328
1494294970.4671030045,        0.1020507812,        1.2641601562,        0.2924804688,      -85.1593017578,        5.7220458984,       63.4307861328
1494294970.4696578979,        0.1020507812,        1.2641601562,        0.2924804688,      -22.6593017578,       20.6298828125,       34.8205566406
1494294970.4722599983,        0.1020507812,        1.2641601562,        0.2924804688,      -22.5830078125,       20.6298828125,       34.8205566406
1494294970.4748170376,       -1.0141601562,        0.8867187500,       -0.3784179688,      -22.5830078125,       24.5361328125,       15.8843994141
1494294970.4773790836,       -1.0141601562,        0.8867187500,       -0.3784179688,       18.2037353516,       26.4739990234,       15.8843994141
1494294970.4800410271,       -1.0141601562,        0.8867187500,       -0.3784179688,       18.2037353516,       26.4739990234,       13.1530761719
1494294970.4828729630,       -1.0141601562,        0.1367187500,       -0.4648437500,        9.0179443359,       24.0173339844,       13.1530761719
1494294970.4855771065,       -1.2890625000,        0.2441406250,       -0.4648437500,        9.0179443359,       20.1110839844,       15.8996582031
1494294970.4882740974,       -1.2890625000,        0.2441406250,       -0.4648437500,      -15.8081054688,       20.5841064453,       15.8996582031
1494294970.4909839630,       -1.2890625000,        0.2441406250,       -0.4648437500,      -15.8081054688,       20.5841064453,       18.8446044922
1494294970.4936830997,       -0.8085937500,        0.4082031250,       -0.1552734375,      -39.7949218750,       17.8222656250,       18.8446044922
1494294970.4963788986,       -0.8085937500,        0.4082031250,       -0.1552734375,      -39.7949218750,       17.8222656250,       18.1427001953
1494294970.4990770817,       -0.8085937500,        0.4082031250,       -0.1552734375,      -52.9479980469,       15.6402587891,       18.1427001953
1494294970.5017890930,       -0.8085937500,        0.4082031250,       -0.1552734375,      -52.9479980469,       15.6402587891,       13.8244628906
1494294970.5044820309,       -0.4975585938,        0.4487304688,        0.1542968750,      -57.6324462891,       16.1743164062,       13.8244628906
1494294970.5071799755,       -0.4975585938,        0.4487304688,        0.1542968750,      -57.6324462891,       16.1743164062,        7.2174072266
1494294970.5098719597,       -0.4975585938,        0.4487304688,        0.1542968750,      -52.9632568359,       18.0969238281,        7.2174072266
1494294970.5125849247,       -0.4975585938,        0.4487304688,        0.1542968750,      -52.9632568359,       18.0969238281,       -0.9155273438
1494294970.5152769089,       -0.5478515625,        0.5234375000,        0.1708984375,      -40.1153564453,       16.8609619141,       -0.9155273438
1494294970.5179719925,       -0.5478515625,        0.5234375000,        0.1708984375,      -40.1153564453,       16.8609619141,       -9.6282958984
1494294970.5206820965,       -0.5478515625,        0.5234375000,        0.1708984375,      -23.7274169922,       14.8315429688,       -9.6282958984
1494294970.5232379436,       -0.5478515625,        0.3984375000,        0.0102539062,      -23.7274169922,       14.8315429688,       -9.6282958984
1494294970.5257940292,       -0.7368164062,        0.3959960938,        0.0102539062,      -10.8947753906,       12.0544433594,      -18.2647705078
1494294970.5283529758,       -0.7368164062,        0.3959960938,        0.0102539062,      -10.8947753906,       12.0544433594,      -18.2647705078
1494294970.5309429169,       -0.7368164062,        0.3959960938,        0.0102539062,       -3.1890869141,        9.1705322266,      -25.1007080078
1494294970.5334990025,       -0.7368164062,        0.3725585938,       -0.0595703125,       -3.1890869141,        9.1705322266,      -25.1007080078
1494294970.5360510349,       -0.7460937500,        0.3725585938,       -0.0595703125,        1.7242431641,        6.0882568359,      -30.7006835938
1494294970.5388069153,       -0.7460937500,        0.3725585938,       -0.0595703125,        1.7242431641,        6.0882568359,      -30.7006835938
1494294970.5416109562,       -0.7460937500,        0.3725585938,       -0.0595703125,        3.5705566406,        2.9449462891,      -34.1186523438
1494294970.5443129539,       -0.6772460938,        0.3676757812,       -0.0468750000,        3.5705566406,        2.9449462891,      -34.1186523438
1494294970.5470159054,       -0.6772460938,        0.3676757812,       -0.0468750000,        3.1280517578,        1.1749267578,      -35.4309082031
1494294970.5497078896,       -0.6772460938,        0.3676757812,       -0.0468750000,        3.1280517578,        1.1749267578,      -35.4309082031
1494294970.5525140762,       -0.6772460938,        0.3676757812,       -0.0468750000,        1.2512207031,       -0.4882812500,      -36.8194580078
1494294970.5552160740,       -0.6132812500,        0.3413085938,       -0.0200195312,        1.2512207031,       -0.4882812500,      -36.8194580078
1494294970.5579071045,       -0.6132812500,        0.3413085938,       -0.0200195312,       -2.5177001953,        0.6561279297,      -38.6962890625
1494294970.5605990887,       -0.6132812500,        0.3413085938,       -0.0200195312,       -2.5177001953,        0.6561279297,      -38.6962890625
1494294970.5632998943,       -0.6132812500,        0.3413085938,        0.0380859375,       -4.1198730469,        0.5798339844,      -41.1682128906
1494294970.5659921169,       -0.6245117188,        0.3208007812,        0.0380859375,       -4.1198730469,        0.5798339844,      -41.1682128906
1494294970.5686850548,       -0.6245117188,        0.3208007812,        0.0380859375,       -4.4250488281,        0.8087158203,      -42.4652099609
1494294970.5713670254,       -0.6245117188,        0.3208007812,        0.0380859375,       -4.4250488281,        0.8087158203,      -42.4652099609
1494294970.5739090443,       -0.6245117188,        0.3266601562,        0.0673828125,       -4.0130615234,        0.7171630859,      -44.6929931641
1494294970.5764689445,       -0.6469726562,        0.3266601562,        0.0673828125,       -4.0130615234,        0.7171630859,      -44.6929931641
1494294970.5790259838,       -0.6469726562,        0.3266601562,        0.0673828125,       -2.7008056641,        1.6021728516,      -46.9055175781
1494294970.5815858841,       -0.6469726562,        0.3266601562,        0.0673828125,       -2.7008056641,        1.6021728516,      -46.9055175781
1494294970.5841429234,       -0.6469726562,        0.3310546875,        0.0786132812,        0.4730224609,        2.1362304688,      -48.5839843750
1494294970.5866971016,       -0.7177734375,        0.3310546875,        0.0786132812,        0.4730224609,        2.1362304688,      -48.5839843750
1494294970.5892560482,       -0.7177734375,        0.3310546875,        0.0786132812,        0.4730224609,        2.7160644531,      -50.5523681641
1494294970.5919339657,       -0.7177734375,        0.3310546875,        0.0786132812,        2.8076171875,        2.7160644531,      -50.5523681641
1494294970.5944859982,       -0.7241210938,        0.2753906250,        0.0742187500,        2.8076171875,        2.7160644531,      -52.1392822266
1494294970.5970458984,       -0.7241210938,        0.2753906250,        0.0742187500,        3.7536621094,        3.5552978516,      -52.1392822266
1494294970.5995979309,       -0.7241210938,        0.2753906250,        0.0742187500,        3.7536621094,        3.5552978516,      -51.9866943359
1494294970.6023519039,       -0.7241210938,        0.2753906250,        0.0742187500,        4.3792724609,        4.1503906250,      -51.9866943359
1494294970.6050560474,       -0.7153320312,        0.2348632812,        0.1025390625,        4.3792724609,        4.1503906250,      -52.2460937500
1494294970.6077480316,       -0.7153320312,        0.2348632812,        0.1025390625,        4.8675537109,        4.8217773438,      -52.2460937500
1494294970.6104431152,       -0.7153320312,        0.2348632812,        0.1025390625,        4.8675537109,        4.8217773438,      -52.0324707031
1494294970.6131799221,       -0.7153320312,        0.2348632812,        0.1025390625,        5.6152343750,        6.0424804688,      -52.0324707031
1494294970.6158690453,       -0.7333984375,        0.1948242188,        0.1098632812,        5.6152343750,        6.0424804688,      -52.0324707031
1494294970.6185660362,       -0.7333984375,        0.1948242188,        0.1098632812,        5.1879882812,        7.6293945312,      -51.4221191406
1494294970.6212649345,       -0.7333984375,        0.1948242188,        0.1098632812,        5.1879882812,        7.6293945312,      -47.5158691406
1494294970.6239531040,       -0.7333984375,        0.1948242188,        0.1113281250,        4.4708251953,        8.8958740234,      -50.6134033203
1494294970.6267631054,       -0.7612304688,        0.1918945312,        0.1113281250,        4.4708251953,        8.8958740234,      -49.8352050781
1494294970.6294560432,       -0.7612304688,        0.1918945312,        0.1113281250,        3.3721923828,       10.3607177734,      -49.8352050781
1494294970.6320950985,       -0.7612304688,        0.1918945312,        0.1113281250,        3.3721923828,       10.3607177734,      -49.8352050781
1494294970.6346449852,       -0.6362304688,        0.1860351562,        0.1040039062,        0.8850097656,       11.7492675781,      -48.8128662109
1494294970.6372010708,       -0.7470703125,        0.1860351562,        0.1040039062,        0.8850097656,       11.7492675781,      -48.8128662109
1494294970.6397590637,       -0.7470703125,        0.1860351562,        0.1040039062,       -0.5950927734,       13.3209228516,      -47.7142333984
1494294970.6424369812,       -0.7470703125,        0.1860351562,        0.1040039062,       -0.5950927734,       13.3209228516,      -47.7142333984
1494294970.6451339722,       -0.7319335938,        0.2001953125,        0.0883789062,       -1.9531250000,       15.1519775391,      -46.2341308594
1494294970.6478369236,       -0.7319335938,        0.2001953125,        0.0883789062,       -1.9531250000,       15.1519775391,      -46.2341308594
1494294970.6505351067,       -0.7319335938,        0.2001953125,        0.0883789062,       -2.6397705078,       16.1590576172,      -45.1812744141
1494294970.6532499790,       -0.7319335938,        0.2001953125,        0.0883789062,       -2.6397705078,       16.1590576172,      -45.1812744141
1494294970.6559441090,       -0.7250976562,        0.1826171875,        0.0771484375,       -4.2877197266,       16.7083740234,      -43.9605712891
1494294970.6587591171,       -0.7250976562,        0.1826171875,        0.0771484375,       -4.2877197266,       16.7083740234,      -43.9605712891
1494294970.6614658833,       -0.7250976562,        0.1826171875,        0.0771484375,       -5.5389404297,       16.8914794922,      -42.2821044922
1494294970.6641459465,       -0.7250976562,        0.1826171875,        0.0747070312,       -5.5389404297,       16.8914794922,      -42.2821044922
1494294970.6669750214,       -0.6899414062,        0.1635742188,        0.0747070312,       -5.9204101562,       16.9525146484,      -40.1000976562
1494294970.6696729660,       -0.6899414062,        0.1635742188,        0.0747070312,       -5.9204101562,       16.9525146484,      -40.1000976562
1494294970.6723759174,       -0.6899414062,        0.1635742188,        0.0747070312,       -6.0729980469,       17.0135498047,      -38.1927490234
1494294970.6750750542,       -0.6899414062,        0.1489257812,        0.0541992188,       -6.0729980469,       17.0135498047,      -38.1927490234
1494294970.6777698994,       -0.6987304688,        0.1489257812,        0.0541992188,       -6.1035156250,       16.9982910156,      -36.3006591797
1494294970.6804640293,       -0.6987304688,        0.1489257812,        0.0541992188,       -6.1035156250,       16.9982910156,      -36.3006591797
1494294970.6830430031,       -0.6987304688,        0.1489257812,        0.0541992188,       -7.2937011719,       16.1285400391,      -34.4848632812
1494294970.6855959892,       -0.7197265625,        0.1333007812,        0.0292968750,       -7.2937011719,       16.1285400391,      -34.4848632812
1494294970.6881470680,       -0.7197265625,        0.1333007812,        0.0292968750,       -8.9721679688,       15.3656005859,      -32.8521728516
1494294970.6907169819,       -0.7197265625,        0.1333007812,        0.0292968750,       -8.9721679688,       15.3656005859,      -32.8521728516
1494294970.6932699680,       -0.7197265625,        0.1333007812,        0.0292968750,      -10.6658935547,       14.4805908203,      -30.5023193359
1494294970.6958301067,       -0.7309570312,        0.1162109375,        0.0009765625,      -10.6658935547,       14.4805908203,      -30.5023193359
1494294970.6983869076,       -0.7309570312,        0.1162109375,        0.0009765625,      -14.5721435547,       13.6413574219,      -27.7557373047
1494294970.7011039257,       -0.7309570312,        0.1162109375,        0.0009765625,      -11.7797851562,       13.6413574219,      -27.7557373047
1494294970.7036759853,       -0.7309570312,        0.1162109375,        0.0009765625,      -11.7797851562,       12.2375488281,      -24.8107910156
1494294970.7062420845,       -0.7202148438,        0.1391601562,       -0.0048828125,      -12.8326416016,       12.2375488281,      -24.8107910156
1494294970.7087969780,       -0.7202148438,        0.1391601562,       -0.0048828125,      -12.8326416016,       12.2375488281,      -21.7742919922
1494294970.7114799023,       -0.7202148438,        0.1391601562,       -0.0048828125,      -14.5721435547,       10.8032226562,      -21.7742919922
1494294970.7140369415,       -0.7202148438,        0.1391601562,       -0.0048828125,      -14.5721435547,       10.8032226562,      -18.6920166016
1494294970.7165980339,       -0.6801757812,        0.1040039062,        0.0092773438,      -16.5252685547,        9.6893310547,      -18.6920166016
1494294970.7191500664,       -0.6801757812,        0.1040039062,        0.0092773438,      -16.5252685547,        9.6893310547,      -14.7857666016
1494294970.7218430042,       -0.6801757812,        0.1040039062,        0.0092773438,      -18.2647705078,        8.6669921875,      -15.3656005859
1494294970.7244050503,       -0.6801757812,        0.1040039062,        0.0092773438,      -18.2647705078,        8.6669921875,      -15.3656005859
1494294970.7269620895,       -0.6767578125,        0.0800781250,        0.0131835938,      -17.6086425781,        6.9732666016,      -12.3291015625
1494294970.7295169830,       -0.6767578125,        0.0800781250,        0.0131835938,      -17.6086425781,        6.9732666016,      -12.3291015625
1494294970.7321889400,       -0.6767578125,        0.0800781250,        0.0131835938,      -17.4255371094,        6.0882568359,       -8.5449218750
1494294970.7348859310,       -0.6767578125,        0.0800781250,       -0.0063476562,      -17.4255371094,        6.0882568359,       -8.5449218750
1494294970.7375819683,       -0.6821289062,        0.0678710938,       -0.0063476562,      -18.4173583984,        5.0659179688,       -4.8828125000
1494294970.7402739525,       -0.6821289062,        0.0678710938,       -0.0063476562,      -18.4173583984,        5.0659179688,       -4.8828125000
1494294970.7429780960,       -0.6821289062,        0.0678710938,       -0.0063476562,      -21.0571289062,        4.3334960938,       -1.7395019531
1494294970.7456738949,       -0.6821289062,        0.0551757812,       -0.0019531250,      -21.0571289062,        4.3334960938,       -1.7395019531
1494294970.7483639717,       -0.6875000000,        0.0551757812,       -0.0019531250,      -24.1699218750,        2.7465820312,        1.9073486328
1494294970.7510640621,       -0.6875000000,        0.0551757812,       -0.0019531250,      -24.1699218750,        2.7465820312,        1.9073486328
1494294970.7537550926,       -0.6875000000,        0.0551757812,       -0.0019531250,      -25.9246826172,        1.7700195312,        6.6833496094
1494294970.7564470768,       -0.6801757812,        0.0605468750,       -0.0273437500,      -25.9246826172,        1.7700195312,        6.6833496094
1494294970.7591409683,       -0.6801757812,        0.0605468750,       -0.0273437500,      -26.8402099609,        1.5258789062,       11.3830566406
1494294970.7618501186,       -0.6801757812,        0.0605468750,       -0.0273437500,      -26.8402099609,        1.5258789062,       11.3830566406
1494294970.7645440102,       -0.6801757812,        0.0605468750,       -0.0273437500,      -27.8015136719,        0.3356933594,       15.7775878906
1494294970.7672479153,       -0.6547851562,        0.0502929688,       -0.0336914062,      -27.8015136719,        0.3356933594,       15.7775878906
1494294970.7699429989,       -0.6547851562,        0.0502929688,       -0.0336914062,      -26.8402099609,       -0.1525878906,       21.2860107422
1494294970.7726619244,       -0.6547851562,        0.0502929688,       -0.0336914062,      -26.8402099609,       -0.1525878906,       21.2860107422
1494294970.7752199173,       -0.6547851562,        0.0502929688,       -0.0292968750,      -26.5197753906,        0.3356933594,       27.0538330078
1494294970.7779150009,       -0.6826171875,        0.0825195312,       -0.0292968750,      -26.5197753906,        0.3356933594,       27.0538330078
1494294970.7804739475,       -0.6826171875,        0.0825195312,       -0.0292968750,      -25.7415771484,       -0.6866455078,       34.5153808594
1494294970.7835960388,       -0.6826171875,        0.0825195312,       -0.0292968750,      -25.7415771484,       -0.6866455078,       34.5153808594
1494294970.7862999439,       -0.6284179688,        0.0927734375,       -0.0498046875,      -12.8479003906,       -0.8850097656,       41.9006347656
1494294970.7890019417,       -0.6284179688,        0.0927734375,       -0.0498046875,      -12.8479003906,       -0.8850097656,       41.9006347656
1494294970.7917449474,       -0.6284179688,        0.0927734375,       -0.0498046875,        7.7056884766,       -0.3356933594,       47.1954345703
1494294970.7944440842,       -0.6284179688,        0.0927734375,       -0.0498046875,        7.7056884766,       -0.3356933594,       47.1954345703
1494294970.7971389294,       -0.6674804688,        0.0517578125,       -0.1235351562,       19.0124511719,       -1.5106201172,       50.8880615234
1494294970.7998418808,       -0.6674804688,        0.0517578125,       -0.1235351562,       19.0124511719,       -1.5106201172,       50.8880615234
1494294970.8025848866,       -0.6674804688,        0.0517578125,       -0.1235351562,       16.8151855469,       -5.1422119141,       54.4128417969
1494294970.8052790165,       -0.6674804688,        0.0517578125,        0.0126953125,       16.8151855469,       -5.1422119141,       54.4128417969
1494294970.8079800606,       -0.6772460938,        0.0439453125,        0.0126953125,        8.5144042969,       -9.5520019531,       57.9833984375
1494294970.8106830120,       -0.6772460938,        0.0439453125,        0.0126953125,        8.5144042969,       -9.5520019531,       57.9833984375
1494294970.8132369518,       -0.6772460938,        0.0439453125,        0.0126953125,        2.5787353516,      -13.5650634766,       62.7288818359
1494294970.8157949448,       -0.6772460938,        0.0439453125,        0.0527343750,        2.5787353516,      -13.5650634766,       62.7288818359
1494294970.8183500767,       -0.6748046875,        0.0502929688,        0.0527343750,        1.5716552734,      -18.6157226562,       68.5577392578
1494294970.8209550381,       -0.6748046875,        0.0502929688,        0.0527343750,        1.5716552734,      -18.6157226562,       68.5577392578
1494294970.8235120773,       -0.6748046875,        0.0502929688,        0.0527343750,        5.4779052734,      -22.6745605469,       74.5544433594
1494294970.8260641098,       -0.6748046875,       -0.0102539062,       -0.0517578125,        4.1961669922,      -22.6745605469,       74.5544433594
1494294970.8286271095,       -0.5610351562,       -0.0102539062,       -0.0517578125,        4.1961669922,      -26.5808105469,       80.4443359375
1494294970.8313069344,       -0.5610351562,       -0.0102539062,       -0.0517578125,        6.1035156250,      -26.9927978516,       80.4443359375
1494294970.8338658810,       -0.5610351562,       -0.0102539062,       -0.0517578125,        6.1035156250,      -26.9927978516,       85.9222412109
1494294970.8364260197,       -0.5610351562,        0.0493164062,       -0.0571289062,        4.4097900391,      -28.0761718750,       85.9222412109
1494294970.8389780521,       -0.5415039062,        0.0493164062,       -0.0571289062,        4.4097900391,      -28.0761718750,       93.7347412109
1494294970.8416988850,       -0.5415039062,        0.0493164062,       -0.0571289062,       -1.0223388672,      -27.6794433594,       90.4235839844
1494294970.8443970680,       -0.5415039062,        0.0493164062,       -0.0571289062,       -1.0223388672,      -27.6794433594,       90.4235839844
1494294970.8471989632,       -0.6162109375,        0.2631835938,        0.0649414062,       -5.1269531250,      -27.8625488281,       91.9342041016
1494294970.8499050140,       -0.6162109375,        0.2631835938,        0.0649414062,       -5.1269531250,      -27.8625488281,       91.9342041016
1494294970.8526129723,       -0.6162109375,        0.2631835938,        0.0649414062,       -6.5917968750,      -27.0690917969,       90.2557373047
1494294970.8553121090,       -0.6162109375,        0.2631835938,        0.0649414062,       -6.5917968750,      -27.0690917969,       86.3494873047
1494294970.8580229282,       -0.8520507812,        0.5644531250,        0.1220703125,       -7.3852539062,      -23.8494873047,       86.6241455078
1494294970.8607239723,       -0.8520507812,        0.5644531250,        0.1220703125,       -7.3852539062,      -23.8494873047,       78.8116455078
1494294970.8634281158,       -0.8520507812,        0.5644531250,        0.1220703125,       -6.3018798828,      -22.6135253906,       81.4819335938
1494294970.8661229610,       -0.8520507812,        0.5644531250,       -0.0258789062,       -6.3018798828,      -22.6135253906,       73.6694335938
1494294970.8688209057,       -0.9707031250,        0.6103515625,       -0.0258789062,       -7.5225830078,      -27.9998779297,       73.4405517578
1494294970.8715250492,       -0.9707031250,        0.6103515625,       -0.0258789062,       -7.5225830078,      -27.9998779297,       73.4405517578
1494294970.8740820885,       -0.9707031250,        0.6103515625,       -0.0258789062,       10.3454589844,      -25.0091552734,       69.8699951172
1494294970.8766419888,       -0.7207031250,        0.3212890625,       -0.1206054688,       10.3454589844,      -25.0091552734,       69.8699951172
1494294970.8792109489,       -0.6669921875,        0.3212890625,       -0.1206054688,       13.4887695312,      -24.7192382812,       67.9168701172
1494294970.8820059299,       -0.6669921875,        0.3212890625,       -0.1206054688,       13.4887695312,      -24.7192382812,       67.9168701172
1494294970.8845720291,       -0.6669921875,        0.3212890625,       -0.1206054688,      -22.7203369141,      -32.1655273438,       65.6127929688
1494294970.8871281147,       -0.5615234375,        0.3002929688,        0.1904296875,      -22.7203369141,      -32.1655273438,       65.6127929688
1494294970.8896911144,       -0.5615234375,        0.3002929688,        0.1904296875,      -19.3634033203,      -27.5268554688,       66.1010742188
1494294970.8924050331,       -0.5615234375,        0.3002929688,        0.1904296875,      -19.3634033203,      -27.5268554688,       66.1010742188
1494294970.8950870037,       -0.5615234375,        0.3002929688,        0.1904296875,        1.2817382812,      -20.2484130859,       60.8825683594
1494294970.8978679180,       -0.7460937500,        0.5659179688,        0.2119140625,        1.2817382812,      -20.2484130859,       60.8825683594
1494294970.9009881020,       -0.7460937500,        0.5659179688,        0.2119140625,       13.7939453125,      -17.9748535156,       53.7109375000
1494294970.9036929607,       -0.7460937500,        0.5659179688,        0.2119140625,       13.7939453125,      -17.9748535156,       53.7109375000
1494294970.9063980579,       -0.7460937500,        0.3159179688,        0.0712890625,       29.4036865234,      -12.0239257812,       48.9654541016
1494294970.9090969563,       -0.8149414062,        0.2563476562,        0.0712890625,       29.4036865234,      -12.0239257812,       48.9654541016
1494294970.9118061066,       -0.8149414062,        0.2563476562,        0.0712890625,       33.7982177734,       -8.1634521484,       46.6613769531
1494294970.9144968987,       -0.8149414062,        0.2563476562,        0.0712890625,       33.7982177734,       -8.1634521484,       46.6613769531
1494294970.9171860218,       -0.9682617188,        0.2441406250,        0.0629882812,       27.3742675781,       -9.6588134766,       46.6918945312
1494294970.9198899269,       -0.9682617188,        0.2441406250,        0.0629882812,       27.3742675781,       -9.6588134766,       46.6918945312
1494294970.9227089882,       -0.9682617188,        0.2441406250,        0.0629882812,       22.2625732422,      -11.5509033203,       47.2564697266
1494294970.9254069328,       -0.9682617188,        0.2441406250,        0.0629882812,       22.2625732422,      -11.5509033203,       47.2564697266
1494294970.9281110764,       -0.8354492188,        0.3378906250,        0.1884765625,       20.9655761719,       -9.8876953125,       46.3562011719
1494294970.9308130741,       -0.8354492188,        0.3378906250,        0.1884765625,       20.9655761719,       -9.8876953125,       46.3562011719
1494294970.9333720207,       -0.8354492188,        0.3378906250,        0.1884765625,       22.6593017578,       -7.0953369141,       42.9687500000
1494294970.9359319210,       -0.8354492188,        0.3378906250,        0.1884765625,       22.6593017578,       -7.0953369141,       42.9687500000
1494294970.9384839535,       -0.7890625000,        0.4248046875,        0.2031250000,       26.0314941406,       -5.9356689453,       37.9943847656
1494294970.9410400391,       -0.7890625000,        0.4248046875,        0.2031250000,       26.0314941406,       -5.9356689453,       37.9943847656
1494294970.9435949326,       -0.7890625000,        0.4248046875,        0.2031250000,       26.5655517578,       -5.5541992188,       32.7606201172
1494294970.9461510181,       -0.7890625000,        0.4248046875,        0.2031250000,       26.5655517578,       -5.5541992188,       32.7606201172
1494294970.9487140179,       -0.8178710938,        0.4213867188,        0.0966796875,       26.5655517578,       -5.2947998047,       26.5045166016
1494294970.9514410496,       -0.8178710938,        0.4213867188,        0.0966796875,       27.1606445312,       -5.2947998047,       26.5045166016
1494294970.9539959431,       -0.8178710938,        0.4213867188,        0.0966796875,       27.1606445312,       -4.4403076172,       19.8364257812
1494294970.9565539360,       -0.8178710938,        0.4213867188,        0.0966796875,       30.3955078125,       -4.4403076172,       19.8364257812
1494294970.9591069221,       -0.8129882812,        0.5141601562,        0.1103515625,       30.3955078125,       -4.4403076172,       12.3901367188
1494294970.9618670940,       -0.8129882812,        0.5141601562,        0.1103515625,       33.2336425781,       -4.2114257812,       12.3901367188
1494294970.9645450115,       -0.8129882812,        0.5141601562,        0.1103515625,       33.2336425781,       -4.2114257812,        3.7689208984
1494294970.9672110081,       -0.8129882812,        0.5190429688,        0.0507812500,       35.1715087891,       -4.1809082031,        3.7689208984
1494294970.9698920250,       -0.8383789062,        0.5190429688,        0.0507812500,       35.1715087891,       -4.1809082031,       -4.6539306641
1494294970.9725909233,       -0.8383789062,        0.5190429688,        0.0507812500,       37.0178222656,       -3.2043457031,       -4.6539306641
1494294970.9752810001,       -0.8383789062,        0.5190429688,        0.0507812500,       37.0178222656,       -3.2043457031,      -13.2141113281
1494294970.9779789448,       -0.8798828125,        0.4873046875,       -0.0229492188,       37.5213623047,       -2.0141601562,      -13.2141113281
1494294970.9806799889,       -0.8798828125,        0.4873046875,       -0.0229492188,       37.5213623047,       -2.0141601562,      -21.2402343750
1494294970.9833819866,       -0.8798828125,        0.4873046875,       -0.0229492188,       37.3535156250,       -1.6784667969,      -21.2402343750
1494294970.9860739708,       -0.8798828125,        0.4873046875,       -0.0229492188,       37.3535156250,       -1.6784667969,      -28.4576416016
1494294970.9887681007,       -0.8754882812,        0.5351562500,       -0.0053710938,       40.5120849609,       -2.5177001953,      -28.4576416016
1494294970.9914739132,       -0.8754882812,        0.5351562500,       -0.0053710938,       40.5120849609,       -2.5177001953,      -40.8630371094
1494294970.9942660332,       -0.8754882812,        0.5351562500,       -0.0053710938,       47.9431152344,       -0.2441406250,      -40.8630371094
1494294970.9969570637,       -0.8754882812,        0.5351562500,       -0.0483398438,       47.9431152344,       -0.2441406250,      -57.5256347656
1494294970.9996619225,       -0.9868164062,        0.5351562500,       -0.0483398438,       54.7637939453,        1.9073486328,      -57.5256347656
1494294971.0023701191,       -0.9868164062,        0.5351562500,       -0.0483398438,       54.7637939453,        1.9073486328,      -77.4383544922
1494294971.0050680637,       -0.9868164062,        0.5351562500,       -0.0483398438,       60.6994628906,        4.5013427734,      -77.4383544922
1494294971.0077660084,       -1.2368164062,        0.5175781250,       -0.2124023438,       60.6994628906,        4.5013427734,      -96.9696044922
1494294971.0104610920,       -1.1284179688,        0.5175781250,       -0.2124023438,       64.6057128906,        7.0037841797,      -93.9025878906
1494294971.0130441189,       -1.1284179688,        0.5175781250,       -0.2124023438,       64.6057128906,        7.0037841797,      -93.9025878906
1494294971.0155959129,       -1.1284179688,        0.5175781250,       -0.2124023438,       67.0776367188,        8.0871582031,     -107.1166992188
1494294971.0183420181,       -1.1958007812,        0.4819335938,       -0.2773437500,       67.0776367188,        8.0871582031,     -107.1166992188
1494294971.0213520527,       -1.1958007812,        0.4819335938,       -0.2773437500,       69.8242187500,       11.4593505859,     -121.9482421875
1494294971.0240569115,       -1.1958007812,        0.4819335938,       -0.2773437500,       69.8242187500,       11.4593505859,     -141.4794921875
1494294971.0267639160,       -1.1958007812,        0.4819335938,       -0.2773437500,       75.9277343750,       13.9617919922,     -142.0135498047
1494294971.0294570923,       -1.2910156250,        0.4350585938,       -0.3076171875,       75.9277343750,       13.9617919922,     -165.4510498047
1494294971.0321629047,       -1.2910156250,        0.4350585938,       -0.3076171875,       81.0852050781,       14.2974853516,     -167.1600341797
1494294971.0348680019,       -1.2910156250,        0.4350585938,       -0.3076171875,       81.0852050781,       14.2974853516,     -190.5975341797
1494294971.0375680923,       -1.2910156250,        0.5600585938,       -0.4160156250,       76.4312744141,       15.2893066406,     -188.0645751953
1494294971.0402750969,       -1.5581054688,        0.5288085938,       -0.4160156250,       76.4312744141,       15.2893066406,     -191.9708251953
1494294971.0429849625,       -1.5581054688,        0.5288085938,       -0.4160156250,       69.6563720703,       21.3317871094,     -192.5964355469
1494294971.0456869602,       -1.5581054688,        0.5288085938,       -0.4160156250,       69.6563720703,       21.3317871094,     -196.5026855469
1494294971.0483899117,       -1.9252929688,        0.5468750000,       -0.4887695312,       73.9746093750,       35.9649658203,     -196.0906982422
1494294971.0510659218,       -1.9252929688,        0.5468750000,       -0.4887695312,       73.9746093750,       35.9649658203,     -196.0906982422
1494294971.0536270142,       -1.9252929688,        0.5468750000,       -0.4887695312,       88.0126953125,       49.9114990234,     -210.7543945312
1494294971.0561869144,       -1.9252929688,        0.5468750000,       -0.4887695312,       88.0126953125,       49.9114990234,     -210.7543945312
1494294971.0587460995,       -2.0449218750,        0.2114257812,       -0.5302734375,      105.4534912109,       57.3272705078,     -231.6131591797
1494294971.0613510609,       -2.0449218750,        0.2114257812,       -0.5302734375,      105.4534912109,       57.3272705078,     -231.6131591797
1494294971.0639119148,       -2.0449218750,        0.2114257812,       -0.5302734375,      122.2229003906,       58.2122802734,     -249.5269775391
1494294971.0664680004,       -2.0449218750,        0.2114257812,       -0.5302734375,      122.2229003906,       58.2122802734,     -249.5269775391
1494294971.0691370964,       -2.0952148438,       -0.6557617188,       -0.4570312500,      141.4642333984,       57.5103759766,     -261.0168457031
1494294971.0718519688,       -2.0952148438,       -0.6557617188,       -0.4570312500,      141.4642333984,       57.5103759766,     -261.0168457031
1494294971.0744059086,       -2.0952148438,       -0.6557617188,       -0.4570312500,      171.3104248047,       51.0559082031,     -272.1099853516
1494294971.0769670010,       -2.0952148438,       -0.6557617188,       -0.4570312500,      171.3104248047,       51.0559082031,     -272.1099853516
1494294971.0795280933,       -2.0776367188,       -1.3784179688,       -0.4746093750,      208.6791992188,       39.8559570312,     -283.2031250000
1494294971.0822949409,       -2.0776367188,       -1.3784179688,       -0.4746093750,      208.6791992188,       39.8559570312,     -283.2031250000
1494294971.0849699974,       -2.0776367188,       -1.3784179688,       -0.4746093750,      251.8615722656,       45.6237792969,     -294.4183349609
1494294971.0876460075,       -2.0776367188,       -1.3784179688,        0.0253906250,      251.8615722656,       45.6237792969,     -294.4183349609
1494294971.0903279781,       -2.3779296875,       -0.5351562500,        0.0551757812,      259.2010498047,       49.4537353516,     -289.7338867188
1494294971.0930209160,       -2.3779296875,       -0.5351562500,        0.0551757812,      259.2010498047,       49.4537353516,     -289.7338867188
1494294971.0956990719,       -2.3779296875,       -0.5351562500,        0.0551757812,      192.7947998047,       35.6292724609,     -254.1351318359
1494294971.0983810425,       -2.3779296875,        1.6508789062,        0.9018554688,      191.8182373047,       35.6292724609,     -254.1351318359
1494294971.1010560989,       -3.7114257812,        1.6508789062,        0.9018554688,      129.3182373047,       23.6053466797,     -212.0666503906
1494294971.1036150455,       -3.7114257812,        1.6508789062,        0.9018554688,      130.5541992188,       23.6053466797,     -212.0666503906
1494294971.1061649323,       -3.7114257812,        1.6508789062,        0.9018554688,      130.5541992188,       23.6053466797,     -210.3271484375
1494294971.1087219715,       -1.4614257812,        4.3203125000,        1.7324218750,       69.8394775391,       41.3208007812,     -210.3271484375
1494294971.1114270687,       -1.4272460938,        4.3203125000,        1.7324218750,       69.8394775391,       41.3208007812,     -215.5914306641
1494294971.1141240597,       -1.4272460938,        4.3203125000,        1.7324218750,       41.7938232422,       37.4603271484,     -215.5914306641
1494294971.1168220043,       -1.4272460938,        4.3203125000,        1.7324218750,       41.7938232422,       37.4603271484,     -190.0787353516
1494294971.1195249557,        1.5541992188,        4.1303710938,        1.4199218750,      100.4333496094,       12.3138427734,     -190.0787353516
1494294971.1222970486,        1.5541992188,        4.1303710938,        1.4199218750,      100.4333496094,       12.3138427734,     -104.5074462891
1494294971.1249980927,        1.5541992188,        4.1303710938,        1.4199218750,      131.7138671875,       -1.3580322266,     -104.5074462891
1494294971.1277000904,        1.5541992188,        4.1303710938,        1.4199218750,      131.7138671875,       -1.3580322266,       48.2940673828
1494294971.1303870678,        0.7617187500,        0.5024414062,       -0.0283203125,      155.0903320312,      -12.7258300781,       48.2940673828
1494294971.1330959797,        0.7617187500,        0.5024414062,       -0.0283203125,      155.0903320312,      -12.7258300781,      154.8004150391
1494294971.1357910633,        0.7617187500,        0.5024414062,       -0.0283203125,      158.4320068359,      -22.7966308594,      154.8004150391
1494294971.1387240887,        0.7617187500,        0.8398437500,        0.1918945312,      158.4320068359,      -22.7966308594,      213.0279541016
1494294971.1416609287,       -1.0932617188,        0.8398437500,        0.1918945312,      128.0517578125,       -7.4768066406,      213.0279541016
1494294971.1443390846,       -1.0932617188,        0.8398437500,        0.1918945312,      128.0517578125,       -3.5705566406,      229.4311523438
1494294971.1469008923,       -1.0932617188,        0.8398437500,        0.1918945312,      105.7891845703,       -1.2664794922,      229.4311523438
1494294971.1494579315,       -0.3066406250,        1.1870117188,        0.8081054688,      105.7891845703,       -1.2664794922,      222.4884033203
1494294971.1520919800,       -0.3066406250,        1.1870117188,        0.8081054688,       60.9893798828,       -5.1574707031,      222.4884033203
1494294971.1547889709,       -0.3066406250,        1.1870117188,        0.8081054688,       60.9893798828,       -5.1574707031,      212.9058837891
1494294971.1574819088,       -0.3066406250,        1.1870117188,        0.8081054688,        8.0108642578,       -5.9356689453,      212.9058837891
1494294971.1601800919,       -0.4389648438,       -0.1601562500,        0.6669921875,        8.0108642578,       -5.9356689453,      201.1871337891
1494294971.1628739834,       -0.4389648438,       -0.1601562500,        0.6669921875,      -55.7403564453,       -5.2642822266,      202.5299072266
1494294971.1655719280,       -0.4389648438,       -0.1601562500,        0.6669921875,      -55.7403564453,       -5.2642822266,      206.4361572266
1494294971.1682720184,       -0.4389648438,       -0.1601562500,        0.0419921875,     -109.4055175781,      -11.0778808594,      205.0018310547
1494294971.1709799767,       -0.7529296875,       -0.5971679688,        0.0097656250,     -109.4055175781,      -11.0778808594,      205.0018310547
1494294971.1735420227,       -0.7529296875,       -0.5971679688,        0.0097656250,     -148.2543945312,      -17.4102783203,      210.1593017578
1494294971.1761090755,       -0.7529296875,       -0.5971679688,        0.0097656250,     -148.2543945312,      -17.4102783203,      210.1593017578
1494294971.1786749363,       -0.7529296875,       -0.5971679688,       -0.2719726562,     -166.8090820312,      -21.0571289062,      211.6851806641
1494294971.1812379360,       -0.7963867188,       -0.4833984375,       -0.2719726562,     -166.8090820312,      -21.0571289062,      211.6851806641
1494294971.1837968826,       -0.7963867188,       -0.4833984375,       -0.2719726562,     -168.8079833984,      -24.5056152344,      207.6263427734
1494294971.1863570213,       -0.7963867188,       -0.4833984375,       -0.2719726562,     -168.8079833984,      -24.5056152344,      207.6263427734
1494294971.1889200211,       -0.7963867188,       -0.4833984375,       -0.2363281250,     -166.1682128906,      -28.2745361328,      198.3489990234
1494294971.1916511059,       -0.3750000000,       -0.4218750000,       -0.2363281250,     -166.1682128906,      -28.2745361328,      198.3489990234
1494294971.1942090988,       -0.3750000000,       -0.4218750000,       -0.2363281250,     -163.4674072266,      -30.0140380859,      186.3098144531
1494294971.1967730522,       -0.3750000000,       -0.4218750000,       -0.2363281250,     -163.4674072266,      -30.0140380859,      186.3098144531
1494294971.1993250847,       -0.3750000000,       -0.5126953125,       -0.1811523438,     -162.1398925781,      -31.2347412109,      171.3256835938
1494294971.2020959854,       -0.2290039062,       -0.5126953125,       -0.1811523438,     -162.1398925781,      -31.2347412109,      171.3256835938
1494294971.2047939301,       -0.2290039062,       -0.5126953125,       -0.1811523438,     -158.5540771484,      -30.3497314453,      152.0080566406
1494294971.2074899673,       -0.2290039062,       -0.5126953125,       -0.1811523438,     -158.5540771484,      -30.3497314453,      152.0080566406
1494294971.2101929188,       -0.1401367188,       -0.5771484375,       -0.2656250000,     -150.0244140625,      -27.1301269531,      132.1105957031
1494294971.2128939629,       -0.1401367188,       -0.5771484375,       -0.2656250000,     -150.0244140625,      -27.1301269531,      132.1105957031
1494294971.2156960964,       -0.1401367188,       -0.5771484375,       -0.2656250000,     -136.3067626953,      -24.5971679688,      112.7929687500
1494294971.2183959484,       -0.1401367188,       -0.5771484375,       -0.2656250000,     -136.3067626953,      -24.5971679688,      112.7929687500
1494294971.2210969925,       -0.0039062500,       -0.5068359375,       -0.3662109375,     -118.2098388672,      -23.3612060547,       94.4213867188
1494294971.2237970829,       -0.0039062500,       -0.5068359375,       -0.3662109375,     -118.2098388672,      -23.3612060547,       94.4213867188
1494294971.2264909744,       -0.0039062500,       -0.5068359375,       -0.3662109375,      -96.4508056641,      -22.9644775391,       79.8492431641
1494294971.2291929722,       -0.0039062500,       -0.3818359375,       -0.3969726562,      -96.4508056641,      -22.9644775391,       79.8492431641
1494294971.2319009304,        0.1157226562,       -0.4575195312,       -0.3969726562,      -74.8748779297,      -22.7661132812,       68.6187744141
1494294971.2345950603,        0.1157226562,       -0.4575195312,       -0.3969726562,      -74.8748779297,      -22.7661132812,       68.6187744141
