time_stamp before, Acceleration x, Acceleration y, Acceleration z, Gyro x, Gyro y, Gyro z
1494294480.8392920494,       -0.7548828125,        0.1020507812,        0.8081054688,      -60.3942871094,      -40.0238037109,      153.9154052734
1494294480.8448328972,       -0.6005859375,        0.3706054688,        0.0654296875,      -60.0280761719,      -40.0238037109,      153.9154052734
1494294480.8481540680,       -0.6005859375,        0.3706054688,        0.0654296875,      -38.7420654297,      -35.0952148438,      147.4761962891
1494294480.8509058952,       -0.6005859375,        0.3706054688,        0.0654296875,      -38.7420654297,      -35.0952148438,      147.4761962891
1494294480.8535900116,       -0.6005859375,        0.3706054688,       -0.0776367188,      -17.9443359375,      -31.6467285156,      132.1258544922
1494294480.8562619686,       -0.6225585938,        0.6728515625,       -0.0776367188,      -17.9443359375,      -31.6467285156,      132.1258544922
1494294480.8589370251,       -0.6225585938,        0.6728515625,       -0.0776367188,       -5.0506591797,      -31.6314697266,      113.5864257812
1494294480.8616170883,       -0.6225585938,        0.6728515625,       -0.0776367188,       -5.0506591797,      -31.6314697266,      113.5864257812
1494294480.8642680645,       -0.8725585938,        0.6689453125,        0.0937500000,        3.3111572266,      -31.4025878906,       96.7864990234
1494294480.8669230938,       -0.7592773438,        0.6689453125,        0.0937500000,        3.3111572266,      -31.4025878906,       96.7864990234
1494294480.8695750237,       -0.7592773438,        0.6689453125,        0.0937500000,       15.5944824219,      -31.0058593750,       82.0465087891
1494294480.8722960949,       -0.7592773438,        0.6689453125,        0.0937500000,       15.5944824219,      -31.0058593750,       82.0465087891
1494294480.8748490810,       -0.7138671875,        0.3662109375,        0.0068359375,       36.0870361328,      -33.9050292969,       67.6422119141
1494294480.8774080276,       -0.7138671875,        0.3662109375,        0.0068359375,       36.0870361328,      -33.9050292969,       67.6422119141
1494294480.8799629211,       -0.7138671875,        0.3662109375,        0.0068359375,       57.0831298828,      -36.7584228516,       54.1381835938
1494294480.8826200962,       -0.7138671875,        0.3662109375,        0.0068359375,       57.0831298828,      -36.7584228516,       54.1381835938
1494294480.8851690292,       -0.7407226562,        0.1508789062,        0.0332031250,       68.8018798828,      -33.8592529297,       45.7305908203
1494294480.8877260685,       -0.7407226562,        0.1508789062,        0.0332031250,       68.2067871094,      -33.8592529297,       45.7305908203
1494294480.8902769089,       -0.7407226562,        0.1508789062,        0.0332031250,       68.2067871094,      -31.0821533203,       40.8325195312
1494294480.8931100368,       -0.7407226562,        0.1508789062,        0.0332031250,       65.5517578125,      -31.0821533203,       40.8325195312
1494294480.8958120346,       -0.7651367188,        0.2314453125,        0.0317382812,       65.5517578125,      -31.2194824219,       36.7736816406
1494294480.8985080719,       -0.7651367188,        0.2314453125,        0.0317382812,       53.5125732422,      -31.2194824219,       36.7736816406
1494294480.9012229443,       -0.7651367188,        0.2314453125,        0.0317382812,       53.5125732422,      -35.1257324219,       33.9202880859
1494294480.9039270878,       -0.7651367188,        0.2314453125,        0.0351562500,       41.6259765625,      -33.1420898438,       33.9202880859
1494294480.9066278934,       -0.7778320312,        0.1108398438,        0.0351562500,       41.6259765625,      -33.1420898438,       32.3944091797
1494294480.9093298912,       -0.7778320312,        0.1108398438,        0.0351562500,       36.1175537109,      -33.8592529297,       32.3944091797
1494294480.9120368958,       -0.7778320312,        0.1108398438,        0.0351562500,       36.1175537109,      -33.8592529297,       33.7524414062
1494294480.9147400856,       -0.7778320312,       -0.0327148438,        0.0776367188,       34.5764160156,      -34.1339111328,       33.7524414062
1494294480.9176049232,       -0.7822265625,       -0.0327148438,        0.0776367188,       34.5764160156,      -34.0728759766,       37.5976562500
1494294480.9203081131,       -0.7822265625,       -0.0327148438,        0.0776367188,       34.3475341797,      -34.0728759766,       37.5976562500
1494294480.9228990078,       -0.7822265625,       -0.0327148438,        0.0776367188,       34.3475341797,      -34.0728759766,       41.2750244141
1494294480.9254629612,       -0.7509765625,        0.0825195312,        0.1718750000,       31.7077636719,      -31.6619873047,       41.2750244141
1494294480.9280180931,       -0.7509765625,        0.0825195312,        0.1718750000,       31.7077636719,      -31.6619873047,       41.2750244141
1494294480.9305860996,       -0.7509765625,        0.0825195312,        0.1718750000,       22.5830078125,      -27.5878906250,       42.5109863281
1494294480.9332730770,       -0.7509765625,        0.0825195312,        0.1718750000,       22.5830078125,      -27.5878906250,       42.5109863281
1494294480.9358329773,       -0.7485351562,        0.0502929688,        0.0971679688,       12.2375488281,      -24.9176025391,       42.4346923828
1494294480.9383950233,       -0.7485351562,        0.0502929688,        0.0971679688,       12.2375488281,      -24.9176025391,       42.4346923828
1494294480.9410998821,       -0.7485351562,        0.0502929688,        0.0971679688,        4.6844482422,      -24.1851806641,       43.7469482422
1494294480.9437839985,       -0.7485351562,        0.0502929688,        0.0971679688,        4.6844482422,      -24.1851806641,       43.7469482422
1494294480.9464759827,       -0.7392578125,        0.0126953125,        0.0839843750,       -1.7242431641,      -23.6816406250,       47.1038818359
1494294480.9491920471,       -0.7392578125,        0.0126953125,        0.0839843750,       -1.7242431641,      -23.6816406250,       47.1038818359
1494294480.9518790245,       -0.7392578125,        0.0126953125,        0.0839843750,       -3.4790039062,      -22.7355957031,       49.7283935547
1494294480.9545559883,       -0.7392578125,        0.0126953125,        0.2265625000,       -3.4790039062,      -22.7355957031,       49.7283935547
1494294480.9572350979,       -0.7319335938,        0.1318359375,        0.2265625000,        2.6550292969,      -21.3012695312,       46.5087890625
1494294480.9599239826,       -0.7319335938,        0.1318359375,        0.2265625000,        2.6550292969,      -21.3012695312,       46.5087890625
1494294480.9626030922,       -0.7319335938,        0.1318359375,        0.2265625000,       15.9149169922,      -19.9584960938,       39.7796630859
1494294480.9652640820,       -0.7319335938,        0.1254882812,        0.3134765625,       15.9149169922,      -19.9584960938,       39.7796630859
1494294480.9679200649,       -0.7114257812,        0.1254882812,        0.3134765625,       30.3955078125,      -17.2424316406,       33.0810546875
1494294480.9707000256,       -0.7114257812,        0.1254882812,        0.3134765625,       30.3955078125,      -17.2424316406,       33.0810546875
1494294480.9734129906,       -0.7114257812,        0.1254882812,        0.3134765625,       40.1763916016,      -14.5721435547,       28.2135009766
1494294480.9761159420,       -0.6992187500,        0.0927734375,        0.2416992188,       40.1763916016,      -14.5721435547,       28.2135009766
1494294480.9788210392,       -0.6992187500,        0.0927734375,        0.2416992188,       47.3937988281,      -13.3514404297,       25.4211425781
1494294480.9815208912,       -0.6992187500,        0.0927734375,        0.2416992188,       47.3937988281,      -13.3514404297,       25.4211425781
1494294480.9840819836,       -0.6992187500,        0.0927734375,        0.2416992188,       51.0864257812,      -12.9547119141,       23.6663818359
1494294480.9867930412,       -0.7133789062,        0.1220703125,        0.1259765625,       51.0864257812,      -12.9547119141,       23.6663818359
1494294480.9903008938,       -0.7133789062,        0.1220703125,        0.1259765625,       51.4831542969,      -13.3361816406,       23.3917236328
1494294480.9930241108,       -0.7133789062,        0.1220703125,        0.1259765625,       51.4831542969,      -13.3361816406,       23.3917236328
1494294480.9957320690,       -0.7319335938,        0.1220703125,        0.0273437500,       50.5218505859,      -13.6260986328,       23.7274169922
1494294480.9984331131,       -0.7319335938,        0.1220703125,        0.0273437500,       50.5218505859,      -13.6260986328,       23.7274169922
1494294481.0011839867,       -0.7319335938,        0.1220703125,        0.0273437500,       49.0570068359,      -14.0228271484,       25.0396728516
1494294481.0038850307,       -0.7319335938,        0.1220703125,        0.0273437500,       49.0570068359,      -14.0228271484,       25.0396728516
1494294481.0065860748,       -0.7407226562,        0.1225585938,        0.0073242188,       45.8679199219,      -14.2211914062,       26.9165039062
1494294481.0092890263,       -0.7407226562,        0.1225585938,        0.0073242188,       45.8679199219,      -14.2211914062,       26.9165039062
1494294481.0120050907,       -0.7407226562,        0.1225585938,        0.0073242188,       41.9921875000,      -13.5192871094,       29.0374755859
1494294481.0147099495,       -0.7407226562,        0.1225585938,        0.0073242188,       41.9921875000,      -13.5192871094,       29.0374755859
1494294481.0174160004,       -0.7539062500,        0.1118164062,        0.0312500000,       39.4287109375,      -13.9007568359,       30.8990478516
1494294481.0201120377,       -0.7539062500,        0.1118164062,        0.0312500000,       39.4287109375,      -13.9007568359,       30.8990478516
1494294481.0227220058,       -0.7539062500,        0.1118164062,        0.0312500000,       38.0401611328,      -14.1143798828,       32.7148437500
1494294481.0252780914,       -0.7539062500,        0.1118164062,        0.0976562500,       38.0401611328,      -14.1143798828,       32.7148437500
1494294481.0278379917,       -0.7280273438,        0.1210937500,        0.0976562500,       38.0706787109,      -13.6108398438,       33.7066650391
1494294481.0304000378,       -0.7280273438,        0.1210937500,        0.0976562500,       38.0706787109,      -13.6108398438,       33.7066650391
1494294481.0330901146,       -0.7280273438,        0.1210937500,        0.0976562500,       39.7033691406,      -13.2598876953,       34.0728759766
1494294481.0356519222,       -0.7280273438,        0.1362304688,        0.1499023438,       39.7033691406,      -13.2598876953,       34.0728759766
1494294481.0382170677,       -0.7246093750,        0.1362304688,        0.1499023438,       42.3431396484,      -13.5498046875,       33.2641601562
1494294481.0408449173,       -0.7246093750,        0.1362304688,        0.1499023438,       42.3431396484,      -13.5498046875,       33.2641601562
1494294481.0435519218,       -0.7246093750,        0.1362304688,        0.1499023438,       46.7681884766,      -15.0604248047,       31.2194824219
1494294481.0462388992,       -0.7172851562,        0.1206054688,        0.1850585938,       46.7681884766,      -15.0604248047,       31.2194824219
1494294481.0489280224,       -0.7172851562,        0.1206054688,        0.1850585938,       50.3234863281,      -16.6320800781,       30.6396484375
1494294481.0516290665,       -0.7172851562,        0.1206054688,        0.1850585938,       50.3234863281,      -16.6320800781,       30.6396484375
1494294481.0543160439,       -0.7172851562,        0.1206054688,        0.1850585938,       51.6510009766,      -16.8609619141,       30.8837890625
1494294481.0570011139,       -0.7158203125,        0.0600585938,        0.2065429688,       51.6510009766,      -16.8609619141,       30.8837890625
1494294481.0596940517,       -0.7158203125,        0.0600585938,        0.2065429688,       51.7730712891,      -16.2963867188,       33.2031250000
1494294481.0623888969,       -0.7158203125,        0.0600585938,        0.2065429688,       51.7730712891,      -16.2963867188,       33.2031250000
1494294481.0651969910,       -0.7158203125,        0.0600585938,        0.2065429688,       49.7283935547,      -15.2740478516,       35.7360839844
1494294481.0678861141,       -0.7045898438,        0.0488281250,        0.2050781250,       49.7283935547,      -15.2740478516,       35.7360839844
1494294481.0705668926,       -0.7045898438,        0.0488281250,        0.2050781250,       45.8831787109,      -13.9770507812,       39.0472412109
1494294481.0732629299,       -0.7045898438,        0.0488281250,        0.2050781250,       45.8831787109,      -13.9770507812,       39.0472412109
1494294481.0758230686,       -0.7045898438,        0.0820312500,        0.1665039062,       43.7011718750,      -13.8702392578,       42.4346923828
1494294481.0783789158,       -0.7167968750,        0.0820312500,        0.1665039062,       43.7011718750,      -13.8702392578,       42.4346923828
1494294481.0810220242,       -0.7167968750,        0.0820312500,        0.1665039062,       39.7949218750,      -13.3209228516,       44.2657470703
1494294481.0837140083,       -0.7167968750,        0.0820312500,        0.1665039062,       42.6025390625,      -13.3209228516,       44.2657470703
1494294481.0864069462,       -0.7246093750,        0.0966796875,        0.1528320312,       42.6025390625,      -13.3666992188,       45.3796386719
1494294481.0890889168,       -0.7246093750,        0.0966796875,        0.1528320312,       41.4276123047,      -13.3666992188,       45.3796386719
1494294481.0918900967,       -0.7246093750,        0.0966796875,        0.1528320312,       41.4276123047,      -13.3972167969,       46.3562011719
1494294481.0945520401,       -0.7246093750,        0.0966796875,        0.1528320312,       40.9851074219,      -13.3972167969,       46.3562011719
1494294481.0973320007,       -0.7270507812,        0.1176757812,        0.1450195312,       40.9851074219,      -13.2904052734,       47.7142333984
1494294481.1000208855,       -0.7270507812,        0.1176757812,        0.1450195312,       41.0461425781,      -13.2904052734,       47.7142333984
1494294481.1027801037,       -0.7270507812,        0.1176757812,        0.1450195312,       41.0461425781,      -13.0920410156,       48.2635498047
1494294481.1054320335,       -0.7270507812,        0.1176757812,        0.0200195312,       41.0156250000,      -13.0920410156,       48.2635498047
1494294481.1080920696,       -0.7314453125,        0.1269531250,        0.1142578125,       41.0156250000,      -13.0920410156,       48.9044189453
1494294481.1107499599,       -0.7314453125,        0.1269531250,        0.1142578125,       40.4357910156,      -13.1378173828,       48.9044189453
1494294481.1134359837,       -0.7314453125,        0.1269531250,        0.1142578125,       40.4357910156,      -13.1378173828,       51.3000488281
1494294481.1161220074,       -0.7314453125,        0.1372070312,        0.1000976562,       40.8782958984,      -13.3514404297,       51.3000488281
1494294481.1188020706,       -0.7148437500,        0.1372070312,        0.1000976562,       40.8782958984,      -13.3514404297,       52.7038574219
1494294481.1214609146,       -0.7148437500,        0.1372070312,        0.1000976562,       40.7562255859,      -14.0991210938,       52.7038574219
1494294481.1251420975,       -0.7148437500,        0.1372070312,        0.1000976562,       39.7796630859,      -14.5111083984,       54.0771484375
1494294481.1283829212,       -0.7563476562,        0.1547851562,        0.0766601562,       39.7796630859,      -14.5111083984,       54.0771484375
1494294481.1310911179,       -0.7563476562,        0.1547851562,        0.0766601562,       38.6962890625,      -14.8315429688,       55.0384521484
1494294481.1340041161,       -0.7563476562,        0.1547851562,        0.0766601562,       38.6962890625,      -15.2893066406,       56.4117431641
1494294481.1390140057,       -0.7744140625,        0.1713867188,        0.0439453125,       36.4990234375,      -15.2893066406,       56.4117431641
1494294481.1422979832,       -0.7744140625,        0.1713867188,        0.0439453125,       35.3851318359,      -15.5944824219,       58.4106445312
1494294481.1450560093,       -0.7744140625,        0.1713867188,        0.0439453125,       34.2254638672,      -16.2658691406,       59.7839355469
1494294481.1495969296,       -0.7915039062,        0.1845703125,        0.0332031250,       34.2254638672,      -16.2658691406,       59.7839355469
1494294481.1525108814,       -0.7915039062,        0.1845703125,        0.0332031250,       33.3251953125,      -16.7541503906,       61.2487792969
1494294481.1550800800,       -0.7915039062,        0.1845703125,        0.0332031250,       33.3251953125,      -16.7541503906,       61.2487792969
1494294481.1576390266,       -0.7753906250,        0.2080078125,       -0.0195312500,       32.7301025391,      -17.1203613281,       64.0106201172
1494294481.1601939201,       -0.7753906250,        0.2080078125,       -0.0195312500,       32.7301025391,      -17.1203613281,       64.0106201172
1494294481.1627659798,       -0.7753906250,        0.2080078125,       -0.0195312500,       32.7301025391,      -17.5170898438,       66.7877197266
1494294481.1653199196,       -0.7753906250,        0.2080078125,       -0.0195312500,       33.5998535156,      -17.5170898438,       66.7877197266
1494294481.1678719521,       -0.7680664062,        0.1909179688,       -0.0302734375,       33.5998535156,      -17.5170898438,       70.2972412109
1494294481.1704299450,       -0.7680664062,        0.1909179688,       -0.0302734375,       33.4320068359,      -17.8985595703,       70.2972412109
1494294481.1731169224,       -0.7680664062,        0.1909179688,       -0.0302734375,       33.4320068359,      -17.8985595703,       75.1800537109
1494294481.1756689548,       -0.7680664062,        0.1909179688,       -0.0302734375,       34.7747802734,      -17.2882080078,       75.1800537109
1494294481.1782250404,       -0.8212890625,        0.1352539062,        0.0200195312,       34.7747802734,      -17.2882080078,       75.1800537109
1494294481.1807808876,       -0.8212890625,        0.1352539062,        0.0200195312,       33.2946777344,      -15.8233642578,       80.8868408203
1494294481.1833500862,       -0.8212890625,        0.1352539062,        0.0200195312,       33.2946777344,      -15.8233642578,       80.8868408203
1494294481.1859068871,       -0.8212890625,        0.1352539062,        0.0200195312,       30.1361083984,      -13.4887695312,       86.8377685547
1494294481.1884589195,       -0.8681640625,        0.0825195312,        0.1162109375,       30.1361083984,      -13.4887695312,       86.8377685547
1494294481.1910328865,       -0.8681640625,        0.0825195312,        0.1162109375,       27.7862548828,      -11.1389160156,       93.2006835938
1494294481.1935920715,       -0.8681640625,        0.0825195312,        0.1162109375,       27.7862548828,      -11.1389160156,       93.2006835938
1494294481.1962049007,       -0.8681640625,        0.0825195312,        0.2412109375,       27.3742675781,      -10.6048583984,       98.1140136719
1494294481.1987650394,       -0.8911132812,        0.0922851562,        0.1835937500,       27.3742675781,      -10.6048583984,       98.1140136719
1494294481.2015419006,       -0.8911132812,        0.0922851562,        0.1835937500,       27.8167724609,      -10.3302001953,      103.0883789062
1494294481.2041978836,       -0.8911132812,        0.0922851562,        0.1835937500,       27.8167724609,      -10.3302001953,      103.0883789062
1494294481.2069509029,       -0.8911132812,        0.1025390625,        0.1938476562,       27.4810791016,      -10.6658935547,      106.7657470703
1494294481.2100028992,       -0.8876953125,        0.1025390625,        0.1938476562,       27.4810791016,      -10.6658935547,      106.7657470703
1494294481.2127089500,       -0.8876953125,        0.1025390625,        0.1938476562,       28.7628173828,      -10.6353759766,      110.2294921875
1494294481.2154119015,       -0.8876953125,        0.1025390625,        0.1938476562,       28.7628173828,      -10.6353759766,      110.2294921875
1494294481.2182459831,       -0.9018554688,        0.1606445312,        0.1528320312,       30.6396484375,      -10.5133056641,      113.4796142578
1494294481.2209470272,       -0.9018554688,        0.1606445312,        0.1528320312,       30.6396484375,      -10.5133056641,      113.4796142578
1494294481.2235059738,       -0.9018554688,        0.1606445312,        0.1528320312,       32.0281982422,      -10.7421875000,      116.7449951172
1494294481.2260630131,       -0.9018554688,        0.1606445312,        0.1528320312,       32.0281982422,      -10.7421875000,      116.7449951172
1494294481.2286179066,       -0.9384765625,        0.1884765625,        0.1494140625,       35.4156494141,      -11.2304687500,      119.6441650391
1494294481.2312030792,       -0.9384765625,        0.1884765625,        0.1494140625,       35.4156494141,      -11.2304687500,      119.6441650391
1494294481.2338991165,       -0.9384765625,        0.1884765625,        0.1494140625,       37.7807617188,      -11.6882324219,      122.1466064453
1494294481.2365961075,       -0.9384765625,        0.1884765625,        0.0244140625,       37.7807617188,      -11.6882324219,      122.1466064453
1494294481.2392899990,       -0.9809570312,        0.1899414062,        0.1118164062,       40.6494140625,      -13.2293701172,      124.6948242188
1494294481.2419340611,       -0.9809570312,        0.1899414062,        0.1118164062,       40.6494140625,      -13.2293701172,      124.6948242188
1494294481.2444911003,       -0.9809570312,        0.1899414062,        0.1118164062,       44.5556640625,      -14.7094726562,      127.7618408203
1494294481.2470519543,       -0.9809570312,        0.1899414062,        0.1191406250,       44.6624755859,      -14.7094726562,      127.7618408203
1494294481.2496130466,       -1.0170898438,        0.1669921875,        0.1191406250,       44.6624755859,      -16.2353515625,      131.3323974609
1494294481.2522668839,       -1.0170898438,        0.1669921875,        0.1191406250,       47.8515625000,      -16.2353515625,      131.3323974609
1494294481.2548289299,       -1.0170898438,        0.1669921875,        0.1191406250,       47.8515625000,      -16.2353515625,      134.2468261719
1494294481.2573850155,       -1.0170898438,        0.1308593750,        0.1318359375,       52.3529052734,      -17.9138183594,      134.2468261719
1494294481.2599380016,       -1.0444335938,        0.1308593750,        0.1318359375,       52.3529052734,      -17.9138183594,      137.2070312500
1494294481.2627699375,       -1.0444335938,        0.1308593750,        0.1318359375,       56.8847656250,      -21.3623046875,      137.2070312500
1494294481.2654531002,       -1.0444335938,        0.1308593750,        0.1318359375,       56.8847656250,      -21.3623046875,      139.3585205078
1494294481.2681388855,       -1.0957031250,        0.1118164062,        0.1318359375,       60.9588623047,      -24.4140625000,      139.3585205078
1494294481.2708148956,       -1.0957031250,        0.1118164062,        0.1318359375,       60.9588623047,      -24.4140625000,      141.6168212891
1494294481.2736659050,       -1.0957031250,        0.1118164062,        0.1318359375,       67.1081542969,      -26.5655517578,      141.6168212891
1494294481.2762238979,       -1.0957031250,        0.1118164062,        0.1318359375,       67.1081542969,      -26.5655517578,      141.6168212891
1494294481.2787880898,       -1.1293945312,        0.0893554688,        0.0766601562,       74.9664306641,      -27.6031494141,      144.0277099609
1494294481.2814240456,       -1.1293945312,        0.0893554688,        0.0766601562,       74.9664306641,      -27.6031494141,      144.0277099609
1494294481.2841188908,       -1.1293945312,        0.0893554688,        0.0766601562,       83.7249755859,      -28.8238525391,      145.8282470703
1494294481.2868139744,       -1.1293945312,        0.0893554688,        0.0766601562,       83.7249755859,      -28.8238525391,      145.8282470703
1494294481.2895150185,       -1.2436523438,        0.0532226562,        0.0400390625,       91.7510986328,      -28.8238525391,      147.7050781250
1494294481.2923350334,       -1.2436523438,        0.0532226562,        0.0400390625,       91.7510986328,      -28.8238525391,      147.7050781250
1494294481.2950410843,       -1.2436523438,        0.0532226562,        0.0400390625,      101.4709472656,      -27.0233154297,      147.2167968750
1494294481.2977340221,       -1.2436523438,       -0.0312500000,        0.0258789062,      101.4709472656,      -27.0233154297,      147.2167968750
1494294481.3004260063,       -1.3969726562,       -0.0312500000,        0.0258789062,      111.6180419922,      -25.4821777344,      145.8435058594
1494294481.3031730652,       -1.3969726562,       -0.0312500000,        0.0258789062,      111.6180419922,      -25.4821777344,      145.8435058594
1494294481.3058679104,       -1.3969726562,       -0.0312500000,        0.0258789062,      121.7041015625,      -24.8260498047,      143.3715820312
1494294481.3085579872,       -1.5332031250,       -0.1362304688,       -0.0146484375,      121.7041015625,      -24.8260498047,      143.3715820312
1494294481.3112690449,       -1.5332031250,       -0.1362304688,       -0.0146484375,      134.4146728516,      -25.0549316406,      141.8609619141
1494294481.3139600754,       -1.5332031250,       -0.1362304688,       -0.0146484375,      134.4146728516,      -25.0549316406,      141.8609619141
1494294481.3167018890,       -1.5332031250,       -0.1362304688,       -0.0146484375,      152.8472900391,      -26.1077880859,      140.6097412109
1494294481.3195049763,       -1.5795898438,       -0.2319335938,       -0.0473632812,      152.8472900391,      -26.1077880859,      140.6097412109
1494294481.3224050999,       -1.5795898438,       -0.2319335938,       -0.0473632812,      172.8515625000,      -29.2053222656,      138.3972167969
1494294481.3249680996,       -1.5795898438,       -0.2319335938,       -0.0473632812,      172.8515625000,      -29.2053222656,      138.3972167969
1494294481.3275339603,       -1.5795898438,       -0.2319335938,        0.1665039062,      186.8133544922,      -34.4543457031,      137.9241943359
1494294481.3300919533,       -1.5312500000,       -0.3945312500,        0.1665039062,      186.8133544922,      -34.4543457031,      137.9241943359
1494294481.3328070641,       -1.5312500000,       -0.3945312500,        0.1665039062,      187.6220703125,      -38.6047363281,      140.6860351562
1494294481.3355069160,       -1.5312500000,       -0.3945312500,        0.1665039062,      187.6220703125,      -38.6047363281,      140.6860351562
1494294481.3382079601,       -1.5312500000,       -0.4995117188,        0.4443359375,      172.9431152344,      -39.3066406250,      149.8107910156
1494294481.3409540653,       -1.4501953125,       -0.4995117188,        0.4443359375,      172.9431152344,      -39.3066406250,      149.8107910156
1494294481.3436551094,       -1.4501953125,       -0.4995117188,        0.4443359375,      146.8200683594,      -32.5775146484,      169.2810058594
1494294481.3463571072,       -1.4501953125,       -0.4995117188,        0.4443359375,      146.8200683594,      -32.5775146484,      169.2810058594
1494294481.3490540981,       -1.3139648438,       -0.1254882812,        0.4702148438,      122.1618652344,      -17.1051025391,      195.6634521484
1494294481.3517179489,       -1.3139648438,       -0.1254882812,        0.4702148438,      122.1618652344,      -17.1051025391,      195.6634521484
1494294481.3542740345,       -1.3139648438,       -0.1254882812,        0.4702148438,      101.7456054688,       -5.5236816406,      211.5936279297
1494294481.3568279743,       -1.3139648438,       -0.1254882812,        0.4702148438,      101.7456054688,       -5.5236816406,      211.5936279297
1494294481.3593831062,       -1.2875976562,        0.2084960938,        0.3432617188,       79.4982910156,       -2.4719238281,      206.8786621094
1494294481.3619449139,       -1.2875976562,        0.2084960938,        0.3432617188,       79.4982910156,       -2.4719238281,      206.8786621094
1494294481.3645000458,       -1.2875976562,        0.2084960938,        0.3432617188,       53.9093017578,       -5.5084228516,      192.5811767578
1494294481.3671689034,       -1.2875976562,        0.2084960938,        0.3432617188,       53.9093017578,       -5.5084228516,      192.5811767578
1494294481.3697259426,       -1.2753906250,        0.0844726562,        0.4047851562,       25.1312255859,       -8.5754394531,      177.8564453125
1494294481.3724279404,       -1.2753906250,        0.0844726562,        0.4047851562,       25.1312255859,       -8.5754394531,      177.8564453125
1494294481.3749821186,       -1.2753906250,        0.0844726562,        0.4047851562,       25.1312255859,       -8.3618164062,      167.9534912109
1494294481.3775360584,       -1.2753906250,        0.0844726562,        0.4047851562,        4.8828125000,       -8.3618164062,      167.9534912109
1494294481.3800868988,       -1.2114257812,        0.0234375000,        0.4155273438,        4.8828125000,       -4.4555664062,      164.2150878906
1494294481.3828890324,       -1.2114257812,        0.0234375000,        0.4155273438,        3.0517578125,       -7.2631835938,      164.2150878906
1494294481.3855769634,       -1.2114257812,        0.0234375000,        0.4155273438,        3.0517578125,      -15.0756835938,      158.1420898438
1494294481.3882710934,       -1.2114257812,        0.0234375000,        0.5200195312,        4.5318603516,      -13.0310058594,      158.1420898438
1494294481.3909780979,       -1.0219726562,        0.1206054688,        0.5200195312,        4.5318603516,      -20.8435058594,      144.8669433594
1494294481.3936700821,       -1.0219726562,        0.1206054688,        0.5200195312,       -2.9144287109,      -22.8118896484,      144.8669433594
1494294481.3963611126,       -1.0219726562,        0.1206054688,        0.5200195312,       -2.9144287109,      -22.8118896484,      126.6021728516
1494294481.3990530968,       -0.9423828125,        0.0805664062,        0.4238281250,       -7.3547363281,      -23.4069824219,      126.6021728516
1494294481.4017601013,       -0.9423828125,        0.0805664062,        0.4238281250,       -7.3547363281,      -23.4069824219,      112.7929687500
1494294481.4044559002,       -0.9423828125,        0.0805664062,        0.4238281250,        3.0670166016,      -13.6871337891,      112.7929687500
1494294481.4071478844,       -0.9423828125,        0.0805664062,        0.4238281250,        3.0670166016,      -13.6871337891,      100.6774902344
1494294481.4098439217,       -0.9169921875,        0.0190429688,        0.1616210938,       24.5208740234,       -6.3781738281,      100.6774902344
1494294481.4125831127,       -0.9169921875,        0.0190429688,        0.1616210938,       24.5208740234,       -6.3781738281,       93.1854248047
1494294481.4152739048,       -0.9169921875,        0.0190429688,        0.1616210938,       40.1000976562,       -3.2806396484,       93.1854248047
1494294481.4179699421,       -0.9169921875,        0.0190429688,        0.1616210938,       40.1000976562,       -3.2806396484,       86.6546630859
1494294481.4206740856,       -0.7065429688,        0.3725585938,        0.1494140625,       37.5671386719,      -11.1236572266,       86.6546630859
1494294481.4232330322,       -0.7065429688,        0.3725585938,        0.1494140625,       37.5671386719,      -11.1236572266,       71.0296630859
1494294481.4257891178,       -0.7065429688,        0.3725585938,        0.1494140625,       24.8107910156,      -25.8941650391,       72.1435546875
1494294481.4283471107,       -0.7065429688,        0.3725585938,        0.3559570312,       24.8107910156,      -25.8941650391,       72.1435546875
1494294481.4309360981,       -0.4868164062,        0.3041992188,        0.3559570312,       17.5170898438,      -26.9775390625,       48.9349365234
1494294481.4334928989,       -0.4868164062,        0.3041992188,        0.3559570312,       17.5170898438,      -26.9775390625,       48.9349365234
1494294481.4360520840,       -0.4868164062,        0.3041992188,        0.3559570312,       14.9230957031,      -13.4124755859,       20.2331542969
1494294481.4388840199,       -0.4868164062,       -0.0654296875,        0.0668945312,       14.9230957031,      -13.4124755859,       20.2331542969
1494294481.4418010712,       -0.6933593750,       -0.0654296875,        0.0668945312,       16.2506103516,       -1.3580322266,       -7.7514648438
1494294481.4444959164,       -0.6933593750,       -0.0654296875,        0.0668945312,       16.2506103516,       -1.3580322266,       -7.7514648438
1494294481.4471879005,       -0.6933593750,       -0.0654296875,        0.0668945312,       23.3612060547,       -0.1068115234,      -30.3039550781
1494294481.4498798847,       -0.5366210938,       -0.2900390625,       -0.0170898438,       23.3612060547,       -0.1068115234,      -30.3039550781
1494294481.4524950981,       -0.5366210938,       -0.2900390625,       -0.0170898438,       28.5491943359,       -1.3732910156,      -49.1485595703
1494294481.4550518990,       -0.5366210938,       -0.2900390625,       -0.0170898438,       28.5491943359,       -1.3732910156,      -49.1485595703
1494294481.4576079845,       -0.5366210938,       -0.2900390625,       -0.0170898438,       26.6265869141,       -0.9460449219,      -62.6068115234
1494294481.4601709843,       -0.3442382812,       -0.3100585938,       -0.0351562500,       26.6265869141,       -0.9460449219,      -62.6068115234
1494294481.4628539085,       -0.3442382812,       -0.3100585938,       -0.0351562500,       21.2554931641,        0.0000000000,      -72.0520019531
1494294481.4655520916,       -0.3442382812,       -0.3100585938,       -0.0351562500,       21.2554931641,        0.0000000000,      -72.0520019531
1494294481.4682490826,       -0.3442382812,       -0.3100585938,       -0.0351562500,       15.8538818359,        1.3580322266,      -80.1849365234
1494294481.4709489346,       -0.2211914062,       -0.2456054688,       -0.0625000000,       15.8538818359,        1.3580322266,      -80.1849365234
1494294481.4735040665,       -0.2211914062,       -0.2456054688,       -0.0625000000,       12.7410888672,        2.4566650391,      -88.4094238281
1494294481.4760570526,       -0.2211914062,       -0.2456054688,       -0.0625000000,       12.7410888672,        2.4566650391,      -88.4094238281
1494294481.4786119461,       -0.2211914062,       -0.2456054688,       -0.0625000000,        9.2773437500,        3.5400390625,      -96.5881347656
1494294481.4812009335,       -0.1718750000,       -0.1269531250,       -0.0468750000,        9.2773437500,        3.5400390625,      -96.5881347656
1494294481.4837510586,       -0.1718750000,       -0.1269531250,       -0.0468750000,        9.2773437500,        3.4942626953,     -105.2093505859
1494294481.4863030910,       -0.1718750000,       -0.1269531250,       -0.0468750000,        4.4403076172,        3.4942626953,     -105.2093505859
1494294481.4888570309,       -0.1718750000,       -0.1269531250,       -0.0468750000,        4.4403076172,        3.4942626953,     -115.3411865234
1494294481.4915130138,       -0.1958007812,       -0.0327148438,       -0.0292968750,       -0.3356933594,        3.8757324219,     -115.3411865234
1494294481.4940660000,       -0.1958007812,       -0.0327148438,       -0.0292968750,       -0.3356933594,        3.8757324219,     -127.0599365234
1494294481.4966189861,       -0.1958007812,       -0.0327148438,       -0.0292968750,       -4.3334960938,        3.5705566406,     -125.7629394531
1494294481.4991719723,       -0.1958007812,       -0.0327148438,       -0.0034179688,       -4.3334960938,        3.5705566406,     -125.7629394531
1494294481.5019109249,       -0.2373046875,       -0.0166015625,       -0.0034179688,       -7.4615478516,        4.2266845703,     -136.5203857422
1494294481.5046100616,       -0.2373046875,       -0.0166015625,       -0.0034179688,       -7.4615478516,        4.2266845703,     -136.5203857422
1494294481.5073070526,       -0.2373046875,       -0.0166015625,       -0.0034179688,      -11.6119384766,        4.9438476562,     -146.8505859375
1494294481.5100049973,       -0.2861328125,       -0.0434570312,        0.0302734375,      -11.6119384766,        4.9438476562,     -146.8505859375
1494294481.5128219128,       -0.2861328125,       -0.0434570312,        0.0302734375,      -19.4396972656,        6.0577392578,     -156.4636230469
1494294481.5155179501,       -0.2861328125,       -0.0434570312,        0.0302734375,      -19.4396972656,        6.0577392578,     -156.4636230469
1494294481.5182108879,       -0.2861328125,       -0.0434570312,        0.0302734375,      -29.2053222656,        6.6528320312,     -165.6036376953
1494294481.5209500790,       -0.3164062500,       -0.0913085938,        0.0502929688,      -29.2053222656,        6.6528320312,     -165.6036376953
1494294481.5236480236,       -0.3164062500,       -0.0913085938,        0.0502929688,      -40.9851074219,        7.3394775391,     -174.6673583984
1494294481.5263440609,       -0.3164062500,       -0.0913085938,        0.0502929688,      -40.9851074219,        7.3394775391,     -174.6673583984
1494294481.5290420055,       -0.3164062500,       -0.0913085938,        0.0502929688,      -52.1545410156,        8.3618164062,     -183.3801269531
1494294481.5317010880,       -0.3461914062,       -0.1201171875,        0.0634765625,      -52.1545410156,        8.3618164062,     -183.3801269531
1494294481.5342619419,       -0.3461914062,       -0.1201171875,        0.0634765625,      -62.8051757812,        9.1400146484,     -190.9942626953
1494294481.5368208885,       -0.3461914062,       -0.1201171875,        0.0634765625,      -62.8051757812,        9.1400146484,     -190.9942626953
1494294481.5393800735,       -0.3461914062,       -0.1201171875,        0.0649414062,      -71.7468261719,       10.5743408203,     -198.0438232422
1494294481.5420970917,       -0.3759765625,       -0.1069335938,        0.0649414062,      -71.7468261719,       10.5743408203,     -198.0438232422
1494294481.5446579456,       -0.3759765625,       -0.1069335938,        0.0649414062,      -78.9794921875,       12.2070312500,     -205.7037353516
1494294481.5472149849,       -0.3759765625,       -0.1069335938,        0.0649414062,      -78.9794921875,       12.2070312500,     -205.7037353516
1494294481.5497789383,       -0.3759765625,       -0.1069335938,        0.0439453125,      -83.5113525391,       14.0533447266,     -213.3789062500
1494294481.5525019169,       -0.4282226562,       -0.0488281250,        0.0439453125,      -83.5113525391,       14.0533447266,     -213.3789062500
1494294481.5551719666,       -0.4282226562,       -0.0488281250,        0.0439453125,      -86.6394042969,       15.4571533203,     -221.2829589844
1494294481.5580968857,       -0.4282226562,       -0.0488281250,        0.0439453125,      -86.6394042969,       15.4571533203,     -221.2829589844
1494294481.5611810684,       -0.4882812500,        0.0180664062,        0.0356445312,      -89.4470214844,       16.9830322266,     -228.9428710938
1494294481.5638880730,       -0.4882812500,        0.0180664062,        0.0356445312,      -89.4470214844,       16.9830322266,     -228.9428710938
1494294481.5665850639,       -0.4882812500,        0.0180664062,        0.0356445312,      -91.0949707031,       18.1427001953,     -235.5804443359
1494294481.5692780018,       -0.4882812500,        0.0180664062,        0.0356445312,      -91.0949707031,       18.1427001953,     -235.5804443359
1494294481.5719809532,       -0.5351562500,        0.0820312500,        0.0434570312,      -92.1020507812,       18.6920166016,     -242.9962158203
1494294481.5746719837,       -0.5351562500,        0.0820312500,        0.0434570312,      -92.1020507812,       18.6920166016,     -242.9962158203
1494294481.5773720741,       -0.5351562500,        0.0820312500,        0.0434570312,      -93.4143066406,       18.9056396484,     -250.5035400391
1494294481.5800681114,       -0.5351562500,        0.2070312500,        0.0761718750,      -93.4143066406,       18.9056396484,     -250.5035400391
1494294481.5827739239,       -0.5971679688,        0.1298828125,        0.0761718750,      -93.7347412109,       19.5312500000,     -257.6446533203
1494294481.5854740143,       -0.5971679688,        0.1298828125,        0.0761718750,      -93.7347412109,       19.5312500000,     -257.6446533203
1494294481.5882799625,       -0.5971679688,        0.1298828125,        0.0761718750,      -93.4448242188,       19.7143554688,     -264.4042968750
1494294481.5909841061,       -0.6562500000,        0.1801757812,        0.0791015625,      -93.4448242188,       19.7143554688,     -264.4042968750
1494294481.5935449600,       -0.6562500000,        0.1801757812,        0.0791015625,      -93.2922363281,       20.0042724609,     -270.8892822266
1494294481.5961039066,       -0.6562500000,        0.1801757812,        0.0791015625,      -93.2922363281,       20.0042724609,     -270.8892822266
1494294481.5986649990,       -0.6562500000,        0.1801757812,        0.0791015625,      -93.0480957031,       19.5312500000,     -277.0385742188
1494294481.6012270451,       -0.7231445312,        0.2285156250,        0.0747070312,      -93.0480957031,       19.5312500000,     -277.0385742188
1494294481.6037900448,       -0.7231445312,        0.2285156250,        0.0747070312,      -93.0480957031,       19.1497802734,     -282.5317382812
1494294481.6063458920,       -0.7231445312,        0.2285156250,        0.0747070312,      -91.9799804688,       19.1497802734,     -282.5317382812
1494294481.6089038849,       -0.7231445312,        0.2285156250,        0.0747070312,      -91.9799804688,       19.1497802734,     -287.4450683594
1494294481.6116371155,       -0.8105468750,        0.2719726562,        0.0888671875,      -91.8579101562,       18.5241699219,     -287.4450683594
1494294481.6141979694,       -0.8105468750,        0.2719726562,        0.0888671875,      -91.8579101562,       18.5241699219,     -291.8090820312
1494294481.6167609692,       -0.8105468750,        0.2719726562,        0.0888671875,      -91.5374755859,       18.5546875000,     -291.8090820312
1494294481.6193249226,       -0.8105468750,        0.2719726562,        0.0888671875,      -91.5374755859,       18.5546875000,     -295.8068847656
1494294481.6220800877,       -0.9111328125,        0.2924804688,        0.0864257812,      -90.1641845703,       19.4091796875,     -295.8068847656
1494294481.6247670650,       -0.9111328125,        0.2924804688,        0.0864257812,      -90.1641845703,       19.4091796875,     -299.4689941406
1494294481.6274549961,       -0.9111328125,        0.2924804688,        0.0864257812,      -87.3565673828,       20.1110839844,     -299.4689941406
1494294481.6301429272,       -0.9111328125,        0.2924804688,        0.0498046875,      -87.3565673828,       20.1110839844,     -302.2308349609
1494294481.6328370571,       -1.0043945312,        0.3173828125,        0.0498046875,      -84.1674804688,       20.7061767578,     -302.2308349609
1494294481.6355309486,       -1.0043945312,        0.3173828125,        0.0498046875,      -84.1674804688,       20.7061767578,     -302.2308349609
1494294481.6382160187,       -1.0043945312,        0.3173828125,        0.0498046875,      -81.6345214844,       21.4691162109,     -302.7954101562
1494294481.6409471035,       -1.0043945312,        0.3115234375,        0.0454101562,      -81.6345214844,       21.4691162109,     -302.7954101562
1494294481.6436290741,       -1.0712890625,        0.3115234375,        0.0454101562,      -79.6508789062,       20.5535888672,     -302.4597167969
1494294481.6463100910,       -1.0712890625,        0.3115234375,        0.0454101562,      -79.6508789062,       20.5535888672,     -302.4597167969
1494294481.6489980221,       -1.0712890625,        0.3115234375,        0.0454101562,      -76.6754150391,       19.8822021484,     -302.1392822266
1494294481.6516859531,       -1.1401367188,        0.3017578125,        0.0908203125,      -76.6754150391,       19.8822021484,     -302.1392822266
1494294481.6543779373,       -1.1401367188,        0.3017578125,        0.0908203125,      -75.5157470703,       20.5383300781,     -301.5136718750
1494294481.6570699215,       -1.1401367188,        0.3017578125,        0.0908203125,      -75.5157470703,       20.5383300781,     -301.5136718750
1494294481.6598739624,       -1.1401367188,        0.3017578125,        0.0908203125,      -76.1871337891,       21.7895507812,     -301.4984130859
1494294481.6625781059,       -1.1879882812,        0.2832031250,        0.1538085938,      -76.1871337891,       21.7895507812,     -301.4984130859
1494294481.6652638912,       -1.1879882812,        0.2832031250,        0.1538085938,      -77.0263671875,       23.2849121094,     -301.2542724609
1494294481.6679520607,       -1.1879882812,        0.2832031250,        0.1538085938,      -77.0263671875,       23.2849121094,     -301.2542724609
1494294481.6706728935,       -1.1879882812,        0.2832031250,        0.2011718750,      -76.9805908203,       24.0936279297,     -300.6744384766
1494294481.6733748913,       -1.2666015625,        0.3261718750,        0.2011718750,      -76.9805908203,       24.0936279297,     -300.6744384766
1494294481.6760621071,       -1.2666015625,        0.3261718750,        0.2011718750,      -76.7669677734,       23.8037109375,     -298.9654541016
1494294481.6789228916,       -1.2666015625,        0.3261718750,        0.2011718750,      -76.7669677734,       23.8037109375,     -295.0592041016
1494294481.6817080975,       -1.3261718750,        0.5117187500,        0.2866210938,      -72.8149414062,       22.2473144531,     -296.8292236328
1494294481.6844210625,       -1.3261718750,        0.5117187500,        0.2866210938,      -72.8149414062,       22.2473144531,     -296.8292236328
1494294481.6871230602,       -1.3261718750,        0.5117187500,        0.2866210938,      -59.1735839844,       24.3225097656,     -295.0897216797
1494294481.6898260117,       -1.3261718750,        0.5117187500,        0.2866210938,      -59.1735839844,       24.3225097656,     -295.0897216797
1494294481.6925721169,       -1.3603515625,        0.7299804688,        0.2290039062,      -46.7681884766,       27.8625488281,     -294.8913574219
1494294481.6952750683,       -1.3603515625,        0.7299804688,        0.2290039062,      -46.7681884766,       27.8625488281,     -294.8913574219
1494294481.6979761124,       -1.3603515625,        0.7299804688,        0.2290039062,      -40.7714843750,       27.1911621094,     -294.2047119141
1494294481.7006840706,       -1.3603515625,        0.7299804688,        0.2802734375,      -40.7714843750,       27.1911621094,     -290.2984619141
1494294481.7033860683,       -1.3544921875,        0.7309570312,        0.2802734375,      -37.1398925781,       24.2156982422,     -291.6107177734
1494294481.7060859203,       -1.3544921875,        0.7309570312,        0.2802734375,      -37.1398925781,       24.2156982422,     -291.6107177734
1494294481.7087850571,       -1.3544921875,        0.7309570312,        0.2802734375,      -35.5987548828,       22.9187011719,     -285.6597900391
1494294481.7114489079,       -1.3544921875,        0.6977539062,        0.2719726562,      -35.5987548828,       22.9187011719,     -285.6597900391
1494294481.7140030861,       -1.3784179688,        0.6977539062,        0.2719726562,      -38.5437011719,       22.0489501953,     -277.2521972656
1494294481.7165610790,       -1.3784179688,        0.6977539062,        0.2719726562,      -38.5437011719,       22.0489501953,     -277.2521972656
1494294481.7191159725,       -1.3784179688,        0.6977539062,        0.2719726562,      -42.4804687500,       20.8587646484,     -266.1437988281
1494294481.7217309475,       -1.3784179688,        0.7412109375,        0.1987304688,      -42.4804687500,       20.8587646484,     -266.1437988281
1494294481.7242870331,       -1.4243164062,        0.7412109375,        0.1987304688,      -46.3867187500,       21.1334228516,     -252.6550292969
1494294481.7268490791,       -1.4243164062,        0.7412109375,        0.1987304688,      -46.3867187500,       21.1334228516,     -252.6550292969
1494294481.7294130325,       -1.4243164062,        0.7412109375,        0.1987304688,      -52.7954101562,       22.5677490234,     -237.3504638672
1494294481.7320790291,       -1.4238281250,        0.8300781250,        0.1196289062,      -52.7954101562,       22.5677490234,     -237.3504638672
1494294481.7347519398,       -1.4238281250,        0.8300781250,        0.1196289062,      -63.7359619141,       22.8881835938,     -219.6350097656
1494294481.7373149395,       -1.4238281250,        0.8300781250,        0.1196289062,      -63.7359619141,       22.8881835938,     -219.6350097656
1494294481.7398779392,       -1.4238281250,        0.8300781250,        0.1196289062,      -78.7048339844,       23.0560302734,     -200.9124755859
1494294481.7426910400,       -1.3383789062,        0.9350585938,        0.1757812500,      -78.7048339844,       23.0560302734,     -200.9124755859
1494294481.7453889847,       -1.3383789062,        0.9350585938,        0.1757812500,      -96.0998535156,       24.2309570312,     -181.1370849609
1494294481.7480878830,       -1.3383789062,        0.9350585938,        0.1757812500,      -96.0998535156,       24.2309570312,     -181.1370849609
1494294481.7507910728,       -1.3383789062,        0.9350585938,        0.1757812500,     -115.9820556641,       24.4598388672,     -161.1328125000
1494294481.7534949780,       -1.1137695312,        1.0952148438,        0.4257812500,     -115.9820556641,       24.4598388672,     -161.1328125000
1494294481.7561960220,       -1.1137695312,        1.0952148438,        0.4257812500,     -130.7678222656,       16.1437988281,     -142.2119140625
1494294481.7588911057,       -1.1137695312,        1.0952148438,        0.4257812500,     -130.7678222656,       16.1437988281,     -142.2119140625
1494294481.7616031170,       -1.1137695312,        1.5952148438,        0.6381835938,     -135.7574462891,       12.0849609375,     -125.5645751953
1494294481.7643039227,       -0.8784179688,        1.5488281250,        0.6381835938,     -135.7574462891,       12.0849609375,     -125.5645751953
1494294481.7670009136,       -0.8784179688,        1.5488281250,        0.6381835938,     -135.7574462891,        6.3476562500,     -107.1319580078
1494294481.7696979046,       -0.8784179688,        1.5488281250,        0.6381835938,     -133.9874267578,        6.3476562500,     -107.1319580078
1494294481.7723178864,       -0.5922851562,        2.0429687500,        0.3901367188,     -133.9874267578,       -5.1269531250,      -82.8399658203
1494294481.7748720646,       -0.5922851562,        2.0429687500,        0.3901367188,     -123.5961914062,       -5.1269531250,      -82.8399658203
1494294481.7774250507,       -0.5922851562,        2.0429687500,        0.3901367188,     -123.5961914062,       -5.1269531250,      -56.0302734375
1494294481.7799789906,       -0.5922851562,        2.0429687500,        0.3901367188,      -99.1516113281,      -15.3350830078,      -56.0302734375
1494294481.7826449871,       -0.4653320312,        2.2846679688,        0.1083984375,      -99.1516113281,      -15.3350830078,      -27.8167724609
1494294481.7852020264,       -0.4653320312,        2.2846679688,        0.1083984375,      -65.7196044922,      -22.6593017578,      -27.8167724609
1494294481.7877609730,       -0.4653320312,        2.2846679688,        0.1083984375,      -65.7196044922,      -22.6593017578,      -27.8167724609
1494294481.7903230190,       -0.4653320312,        2.2846679688,        0.1083984375,      -36.8499755859,      -27.5115966797,        4.6081542969
1494294481.7930140495,       -0.6372070312,        1.8452148438,        0.1489257812,      -36.8499755859,      -27.5115966797,        4.6081542969
1494294481.7956988811,       -0.6372070312,        1.8452148438,        0.1489257812,      -24.5819091797,      -27.9083251953,       37.1398925781
1494294481.7984509468,       -0.6372070312,        1.8452148438,        0.1489257812,      -24.5819091797,      -27.9083251953,       37.1398925781
1494294481.8012468815,       -0.6372070312,        1.8452148438,        0.1489257812,      -26.0314941406,      -26.7333984375,       66.1163330078
1494294481.8039219379,       -1.0122070312,        1.2592773438,        0.3745117188,      -26.0314941406,      -26.7333984375,       66.1163330078
1494294481.8067440987,       -1.0122070312,        1.2592773438,        0.3745117188,      -30.7312011719,      -26.0162353516,       82.2448730469
1494294481.8095591068,       -1.0122070312,        1.2592773438,        0.3745117188,      -30.7312011719,      -26.0162353516,      101.7761230469
1494294481.8122711182,       -1.0122070312,        1.1176757812,        0.3574218750,      -58.3801269531,      -15.8843994141,      102.4932861328
1494294481.8149690628,       -0.8725585938,        1.1176757812,        0.3574218750,      -58.3801269531,      -15.8843994141,      129.8370361328
1494294481.8176679611,       -0.8725585938,        1.1176757812,        0.3574218750,      -88.1042480469,      -18.8598632812,      129.7607421875
1494294481.8203699589,       -0.8725585938,        1.1176757812,        0.3574218750,      -88.1042480469,      -18.8598632812,      129.7607421875
1494294481.8230760098,       -0.5458984375,        0.7124023438,        0.7275390625,      -95.2148437500,      -31.4788818359,      151.0620117188
1494294481.8257739544,       -0.5458984375,        0.7124023438,        0.7275390625,      -95.2148437500,      -31.4788818359,      151.0620117188
1494294481.8284709454,       -0.5458984375,        0.7124023438,        0.7275390625,     -105.2703857422,      -35.2783203125,      145.2789306641
1494294481.8311710358,       -0.5458984375,        0.7124023438,        0.7275390625,     -105.2703857422,      -35.2783203125,      145.2789306641
1494294481.8337309361,       -1.2197265625,       -0.9638671875,       -0.1391601562,      -97.0916748047,      -30.9143066406,      112.1215820312
1494294481.8362889290,       -1.2197265625,       -0.9638671875,       -0.1391601562,      -97.0916748047,      -30.9143066406,      112.1215820312
1494294481.8388519287,       -1.2197265625,       -0.9638671875,       -0.1391601562,      -30.8227539062,      -18.6614990234,       70.4650878906
1494294481.8414189816,       -1.2197265625,       -0.9638671875,       -0.1391601562,      -30.8227539062,      -18.6614990234,       70.4650878906
1494294481.8439800739,       -1.8188476562,       -2.3022460938,       -0.8808593750,       59.1125488281,        3.2196044922,       59.3719482422
1494294481.8465349674,       -1.8188476562,       -2.3022460938,       -0.8808593750,       59.1125488281,        3.2196044922,       59.3719482422
1494294481.8490889072,       -1.8188476562,       -2.3022460938,       -0.8808593750,       70.4650878906,        8.0108642578,      100.7385253906
1494294481.8518209457,       -1.8188476562,       -2.3022460938,       -0.2558593750,       70.4650878906,        8.0108642578,      100.7385253906
1494294481.8543710709,       -1.1181640625,       -0.6811523438,       -0.3657226562,        1.7242431641,       -8.1329345703,      157.1197509766
1494294481.8569240570,       -1.1181640625,       -0.6811523438,       -0.3657226562,        1.7242431641,       -8.1329345703,      157.1197509766
1494294481.8594748974,       -1.1181640625,       -0.6811523438,       -0.3657226562,      -87.9058837891,      -23.7579345703,      205.6884765625
1494294481.8622670174,       -1.1181640625,       -0.6811523438,        0.2797851562,      -87.9058837891,      -23.7579345703,      205.6884765625
1494294481.8649671078,       -0.8256835938,        1.1967773438,        0.2797851562,     -166.0308837891,      -41.5039062500,      230.5603027344
1494294481.8676691055,       -0.8256835938,        1.1967773438,        0.2797851562,     -166.3208007812,      -41.5039062500,      230.5603027344
1494294481.8703660965,       -0.8256835938,        1.1967773438,        0.2797851562,     -189.7583007812,      -46.9207763672,      218.5668945312
1494294481.8729579449,       -1.3256835938,        1.4780273438,        0.2368164062,     -188.3087158203,      -46.9207763672,      218.5668945312
1494294481.8755168915,       -1.2910156250,        1.4780273438,        0.2368164062,     -188.3087158203,      -39.1082763672,      180.9997558594
1494294481.8780689240,       -1.2910156250,        1.4780273438,        0.2368164062,     -139.9383544922,      -42.3431396484,      180.9997558594
1494294481.8807489872,       -1.2910156250,        1.4780273438,        0.2368164062,     -139.9383544922,      -42.3431396484,      152.5115966797
1494294481.8834500313,       -1.1850585938,        0.6840820312,        0.0703125000,      -69.8699951172,      -39.0472412109,      152.5115966797
1494294481.8861479759,       -1.1850585938,        0.6840820312,        0.0703125000,      -69.8699951172,      -39.0472412109,      143.7377929688
1494294481.8888471127,       -1.1850585938,        0.6840820312,        0.0703125000,      -22.9492187500,      -38.9404296875,      143.7377929688
1494294481.8915579319,       -1.1850585938,        0.6840820312,        0.0703125000,      -22.9492187500,      -38.9404296875,      146.0418701172
1494294481.8942570686,       -0.8022460938,        0.3242187500,        0.1914062500,       -4.9285888672,      -44.5709228516,      146.0418701172
1494294481.8969480991,       -0.8022460938,        0.3242187500,        0.1914062500,       -4.9285888672,      -44.5709228516,      148.1170654297
1494294481.8996388912,       -0.8022460938,        0.3242187500,        0.1914062500,      -15.9454345703,      -56.8237304688,      148.1170654297
1494294481.9023790359,       -0.8022460938,        0.3242187500,        0.5131835938,      -15.9454345703,      -56.8237304688,      145.9960937500
1494294481.9050769806,       -0.7690429688,        0.1728515625,        0.5131835938,      -43.7622070312,      -61.5692138672,      145.9960937500
1494294481.9077780247,       -0.7690429688,        0.1728515625,        0.5131835938,      -43.7622070312,      -61.5692138672,      140.3198242188
1494294481.9104769230,       -0.7690429688,        0.1728515625,        0.5131835938,      -58.9904785156,      -55.4351806641,      140.3198242188
1494294481.9130570889,       -0.7690429688,        0.0791015625,        0.3828125000,      -58.9904785156,      -55.4351806641,      136.4135742188
1494294481.9156150818,       -0.6645507812,        0.0791015625,        0.3828125000,      -54.3670654297,      -43.9300537109,      134.7656250000
1494294481.9183900356,       -0.6645507812,        0.0791015625,        0.3828125000,      -54.3670654297,      -43.9300537109,      134.7656250000
1494294481.9210948944,       -0.6645507812,        0.0791015625,        0.3828125000,      -33.3251953125,      -35.1867675781,      129.6539306641
1494294481.9238159657,       -0.6157226562,        0.4565429688,        0.1284179688,      -33.3251953125,      -35.1867675781,      117.9351806641
1494294481.9265160561,       -0.6157226562,        0.4565429688,        0.1284179688,      -11.5203857422,      -27.9388427734,      118.9880371094
1494294481.9292171001,       -0.6157226562,        0.4565429688,        0.1284179688,      -11.5203857422,      -27.9388427734,      103.3630371094
1494294481.9319660664,       -0.6157226562,        0.4565429688,        0.1284179688,       -2.0141601562,      -24.5056152344,      105.2246093750
1494294481.9346570969,       -0.7470703125,        0.6166992188,        0.0390625000,       -2.0141601562,      -24.5056152344,      105.2246093750
1494294481.9373619556,       -0.7470703125,        0.6166992188,        0.0390625000,        1.9836425781,      -25.4516601562,       90.2252197266
1494294481.9400560856,       -0.7470703125,        0.6166992188,        0.0390625000,        1.9836425781,      -25.4516601562,       90.2252197266
1494294481.9427618980,       -0.7470703125,        0.6166992188,       -0.0229492188,        8.1634521484,      -26.1230468750,       79.8339843750
1494294481.9454588890,       -0.8076171875,        0.4746093750,       -0.0229492188,        8.1634521484,      -26.1230468750,       79.8339843750
1494294481.9481530190,       -0.8076171875,        0.4746093750,       -0.0229492188,       21.4233398438,      -26.9012451172,       69.8852539062
1494294481.9509000778,       -0.8076171875,        0.4746093750,       -0.0229492188,       21.4233398438,      -26.9012451172,       69.8852539062
1494294481.9534599781,       -0.8076171875,        0.2924804688,       -0.0312500000,       36.0412597656,      -29.3426513672,       58.2885742188
1494294481.9561278820,       -0.7148437500,        0.2924804688,       -0.0312500000,       36.0412597656,      -29.3426513672,       58.2885742188
1494294481.9586870670,       -0.7148437500,        0.2924804688,       -0.0312500000,       44.6166992188,      -31.3873291016,       47.6989746094
1494294481.9612550735,       -0.7148437500,        0.2924804688,       -0.0312500000,       44.6166992188,      -31.3873291016,       47.6989746094
1494294481.9638218880,       -0.7148437500,        0.2324218750,        0.0288085938,       45.0134277344,      -31.6314697266,       40.1153564453
1494294481.9663810730,       -0.7407226562,        0.2324218750,        0.0288085938,       45.0134277344,      -31.6314697266,       40.1153564453
1494294481.9689381123,       -0.7407226562,        0.2324218750,        0.0288085938,       39.4439697266,      -32.4707031250,       35.1715087891
1494294481.9716589451,       -0.7407226562,        0.2324218750,        0.0288085938,       39.4439697266,      -32.4707031250,       35.1715087891
1494294481.9742190838,       -0.7617187500,        0.2011718750,       -0.0141601562,       34.0576171875,      -33.0200195312,       31.2957763672
1494294481.9767689705,       -0.7617187500,        0.2011718750,       -0.0141601562,       34.0576171875,      -33.0200195312,       31.2957763672
1494294481.9793279171,       -0.7617187500,        0.2011718750,       -0.0141601562,       30.1513671875,      -33.3862304688,       28.9611816406
1494294481.9820919037,       -0.7617187500,        0.2011718750,       -0.0141601562,       29.0832519531,      -33.3862304688,       28.9611816406
1494294481.9847850800,       -0.7558593750,        0.0893554688,        0.0034179688,       24.2614746094,      -34.6832275391,       29.2968750000
1494294481.9874830246,       -0.7558593750,        0.0893554688,        0.0034179688,       24.2614746094,      -34.6832275391,       29.2968750000
1494294481.9901800156,       -0.7558593750,        0.0893554688,        0.0034179688,       20.3552246094,      -33.9813232422,       30.9906005859
1494294481.9928820133,       -0.7558593750,        0.0893554688,        0.0034179688,       19.9737548828,      -33.9813232422,       30.9906005859
1494294481.9955809116,       -0.7548828125,        0.0693359375,        0.0869140625,       12.1612548828,      -32.0739746094,       32.4249267578
1494294481.9982769489,       -0.7548828125,        0.0693359375,        0.0869140625,       14.9383544922,      -32.0739746094,       32.4249267578
1494294482.0009860992,       -0.7548828125,        0.0693359375,        0.0869140625,       11.0321044922,      -29.2663574219,       32.1044921875
1494294482.0036859512,       -0.7548828125,        0.0693359375,        0.1401367188,        9.3078613281,      -29.2663574219,       32.1044921875
1494294482.0063819885,       -0.7441406250,        0.0625000000,        0.1401367188,        1.4953613281,      -26.5045166016,       31.2194824219
1494294482.0090739727,       -0.7441406250,        0.0625000000,        0.1401367188,        3.7689208984,      -26.5045166016,       31.2194824219
1494294482.0117340088,       -0.7441406250,        0.0625000000,        0.1401367188,        3.7689208984,      -24.6582031250,       31.5399169922
1494294482.0142838955,       -0.7392578125,        0.0434570312,        0.0825195312,       -0.7324218750,      -24.6582031250,       31.5399169922
1494294482.0168321133,       -0.7392578125,        0.0434570312,        0.0825195312,       -0.7324218750,      -24.6582031250,       32.2875976562
1494294482.0193820000,       -0.7392578125,        0.0434570312,        0.0825195312,       -4.0283203125,      -23.8952636719,       32.2875976562
1494294482.0220270157,       -0.7392578125,        0.0434570312,        0.0825195312,       -4.0283203125,      -23.8952636719,       31.1737060547
1494294482.0247180462,       -0.7294921875,        0.1318359375,        0.0942382812,       -3.5552978516,      -23.9410400391,       31.1737060547
1494294482.0274140835,       -0.7294921875,        0.1318359375,        0.0942382812,       -3.5552978516,      -23.9410400391,       27.2674560547
1494294482.0302159786,       -0.7294921875,        0.1318359375,        0.0942382812,        1.6632080078,      -24.1241455078,       27.1301269531
1494294482.0329539776,       -0.7294921875,        0.1318359375,        0.0942382812,        1.6632080078,      -24.1241455078,       22.4456787109
1494294482.0356440544,       -0.7397460938,        0.1132812500,        0.1938476562,        9.7808837891,      -23.3154296875,       22.4456787109
1494294482.0385560989,       -0.7397460938,        0.1132812500,        0.1938476562,        9.7808837891,      -23.3154296875,       17.5933837891
1494294482.0416340828,       -0.7397460938,        0.1132812500,        0.1938476562,       18.1274414062,      -20.9960937500,       17.5933837891
1494294482.0443360806,       -0.7397460938,        0.0776367188,        0.2309570312,       18.1274414062,      -19.2413330078,       13.9617919922
1494294482.0470380783,       -0.7182617188,        0.0776367188,        0.2309570312,       26.0925292969,      -19.2413330078,       13.9617919922
1494294482.0497350693,       -0.7182617188,        0.0776367188,        0.2309570312,       26.0925292969,      -17.1508789062,       11.4746093750
1494294482.0524470806,       -0.7182617188,        0.0776367188,        0.2309570312,       32.7453613281,      -17.1508789062,       11.4746093750
1494294482.0551450253,       -0.7045898438,        0.1103515625,        0.1738281250,       32.7453613281,      -17.1508789062,        9.1400146484
1494294482.0578439236,       -0.7045898438,        0.1103515625,        0.1738281250,       37.0025634766,      -15.8843994141,        9.1400146484
1494294482.0605430603,       -0.7045898438,        0.1103515625,        0.1738281250,       37.0025634766,      -11.9781494141,        6.7596435547
1494294482.0631248951,       -0.7045898438,        0.1103515625,        0.1738281250,       40.1458740234,      -15.5792236328,        6.7596435547
1494294482.0656790733,       -0.7099609375,        0.1074218750,        0.0893554688,       40.1458740234,      -15.5792236328,        5.5847167969
1494294482.0682399273,       -0.7099609375,        0.1074218750,        0.0893554688,       41.1682128906,      -16.2048339844,        5.5847167969
1494294482.0707960129,       -0.7099609375,        0.1074218750,        0.0893554688,       41.1682128906,      -16.2048339844,        5.5847167969
1494294482.0733549595,       -0.7099609375,        0.1074218750,        0.0893554688,       39.8559570312,      -16.8304443359,        5.8898925781
1494294482.0759069920,       -0.7421875000,        0.0815429688,        0.0190429688,       39.8559570312,      -16.8304443359,        5.8898925781
1494294482.0784630775,       -0.7421875000,        0.0815429688,        0.0190429688,       35.5834960938,      -16.9372558594,        7.4005126953
1494294482.0810139179,       -0.7421875000,        0.0815429688,        0.0190429688,       35.5834960938,      -16.9372558594,        7.4005126953
1494294482.0835700035,       -0.7421875000,        0.0815429688,        0.0190429688,       30.3497314453,      -16.9372558594,       10.0402832031
1494294482.0861279964,       -0.7495117188,        0.0683593750,        0.0288085938,       30.3497314453,      -16.9372558594,       10.0402832031
1494294482.0886828899,       -0.7495117188,        0.0683593750,        0.0288085938,       26.2298583984,      -17.3187255859,       12.2375488281
1494294482.0913391113,       -0.7495117188,        0.0683593750,        0.0288085938,       26.2298583984,      -17.3187255859,       12.2375488281
1494294482.0938971043,       -0.7495117188,        0.0683593750,        0.0288085938,       23.1933593750,      -17.4407958984,       13.9160156250
1494294482.0964579582,       -0.7451171875,        0.0776367188,        0.0698242188,       23.1933593750,      -17.4407958984,       13.9160156250
1494294482.0990180969,       -0.7451171875,        0.0776367188,        0.0698242188,       23.1933593750,      -17.2729492188,       14.6636962891
1494294482.1017720699,       -0.7451171875,        0.0776367188,        0.0698242188,       21.0266113281,      -17.2729492188,       14.6636962891
1494294482.1043388844,       -0.7451171875,        0.0776367188,        0.1103515625,       21.0266113281,      -17.7459716797,       14.9536132812
1494294482.1069018841,       -0.7202148438,        0.0791015625,        0.1103515625,       21.4538574219,      -17.7459716797,       14.9536132812
1494294482.1094620228,       -0.7202148438,        0.0791015625,        0.1103515625,       21.4538574219,      -17.7459716797,       15.3350830078
1494294482.1121029854,       -0.7202148438,        0.0791015625,        0.1103515625,       22.8576660156,      -17.4255371094,       15.3350830078
1494294482.1148090363,       -0.7202148438,        0.1005859375,        0.1459960938,       22.8576660156,      -17.4255371094,       14.5568847656
1494294482.1175150871,       -0.7197265625,        0.1005859375,        0.1459960938,       26.1383056641,      -17.3187255859,       14.5568847656
1494294482.1202149391,       -0.7197265625,        0.1005859375,        0.1459960938,       26.1383056641,      -17.3187255859,       13.0615234375
1494294482.1229720116,       -0.7197265625,        0.1005859375,        0.1459960938,       29.9072265625,      -16.8914794922,       13.0615234375
1494294482.1256709099,       -0.7075195312,        0.0610351562,        0.1796875000,       29.9072265625,      -16.8914794922,       12.5579833984
1494294482.1283679008,       -0.7075195312,        0.0610351562,        0.1796875000,       31.9213867188,      -16.4794921875,       12.5579833984
1494294482.1310510635,       -0.7075195312,        0.0610351562,        0.1796875000,       31.9213867188,      -16.4794921875,       13.4124755859
1494294482.1336069107,       -0.7075195312,        0.0610351562,        0.1796875000,       33.6608886719,      -15.8691406250,       13.4124755859
1494294482.1361649036,       -0.7089843750,        0.0444335938,        0.1777343750,       33.6608886719,      -15.8691406250,       13.4124755859
1494294482.1387228966,       -0.7089843750,        0.0444335938,        0.1777343750,       34.7747802734,      -14.6789550781,       15.1367187500
1494294482.1413810253,       -0.7089843750,        0.0444335938,        0.1777343750,       34.7747802734,      -14.6789550781,       15.1367187500
1494294482.1440820694,       -0.7089843750,        0.0444335938,        0.1777343750,       35.0189208984,      -13.7176513672,       16.0980224609
1494294482.1467819214,       -0.7167968750,        0.0463867188,        0.1528320312,       35.0189208984,      -13.7176513672,       16.0980224609
1494294482.1494739056,       -0.7167968750,        0.0463867188,        0.1528320312,       35.1409912109,      -13.8244628906,       17.3797607422
1494294482.1521658897,       -0.7167968750,        0.0463867188,        0.1528320312,       35.1409912109,      -13.8244628906,       17.3797607422
1494294482.1547229290,       -0.7167968750,        0.0463867188,        0.1113281250,       35.7513427734,      -13.7329101562,       20.0958251953
1494294482.1574680805,       -0.7060546875,        0.0595703125,        0.1113281250,       35.7513427734,      -13.7329101562,       20.0958251953
1494294482.1600270271,       -0.7060546875,        0.0595703125,        0.1113281250,       35.0189208984,      -14.0075683594,       22.2473144531
1494294482.1630120277,       -0.7060546875,        0.0595703125,        0.1113281250,       35.0189208984,      -14.0075683594,       22.2473144531
1494294482.1657121181,       -0.7250976562,        0.0556640625,        0.0869140625,       35.1867675781,      -14.3890380859,       25.9399414062
1494294482.1684091091,       -0.7250976562,        0.0556640625,        0.0869140625,       35.1867675781,      -14.3890380859,       25.9399414062
1494294482.1711568832,       -0.7250976562,        0.0556640625,        0.0869140625,       35.4919433594,      -14.5263671875,       29.5410156250
1494294482.1738519669,       -0.7250976562,        0.0556640625,        0.0869140625,       35.4919433594,      -14.5263671875,       29.5410156250
1494294482.1766610146,       -0.7216796875,        0.0454101562,        0.0942382812,       35.8428955078,      -14.9536132812,       32.8369140625
1494294482.1793630123,       -0.7216796875,        0.0454101562,        0.0942382812,       35.8428955078,      -14.9536132812,       32.8369140625
1494294482.1820650101,       -0.7216796875,        0.0454101562,        0.0942382812,       35.7666015625,      -14.9230957031,       36.5905761719
1494294482.1847629547,       -0.7216796875,        0.0454101562,        0.1079101562,       35.7666015625,      -14.9230957031,       36.5905761719
1494294482.1874549389,       -0.7299804688,        0.0327148438,        0.1079101562,       35.2783203125,      -14.8925781250,       40.1763916016
1494294482.1901509762,       -0.7299804688,        0.0327148438,        0.1079101562,       35.2783203125,      -14.8925781250,       40.1763916016
1494294482.1927499771,       -0.7299804688,        0.0327148438,        0.1079101562,       34.2407226562,      -14.5416259766,       43.3349609375
1494294482.1953060627,       -0.7299804688,        0.0258789062,        0.1132812500,       34.2407226562,      -14.5416259766,       43.3349609375
1494294482.1978619099,       -0.7353515625,        0.0258789062,        0.1132812500,       31.2652587891,      -13.9007568359,       47.1191406250
1494294482.2004220486,       -0.7353515625,        0.0258789062,        0.1132812500,       31.2652587891,      -13.9007568359,       47.1191406250
1494294482.2030339241,       -0.7353515625,        0.0258789062,        0.1132812500,       29.1137695312,      -13.7786865234,       50.1403808594
1494294482.2055909634,       -0.7353515625,        0.0659179688,        0.1103515625,       29.1137695312,      -13.7786865234,       50.1403808594
1494294482.2081489563,       -0.7373046875,        0.0659179688,        0.1103515625,       28.2592773438,      -14.3280029297,       52.3681640625
1494294482.2108108997,       -0.7373046875,        0.0659179688,        0.1103515625,       28.2592773438,      -14.3280029297,       52.3681640625
1494294482.2133710384,       -0.7373046875,        0.0659179688,        0.1103515625,       24.3530273438,      -14.8162841797,       53.9855957031
1494294482.2159268856,       -0.7446289062,        0.1157226562,        0.0986328125,       27.2064208984,      -14.8162841797,       53.9855957031
1494294482.2184851170,       -0.7446289062,        0.1157226562,        0.0986328125,       27.2064208984,      -14.8162841797,       54.7027587891
1494294482.2212080956,       -0.7446289062,        0.1157226562,        0.0986328125,       27.1606445312,      -15.0299072266,       54.7027587891
1494294482.2239189148,       -0.7446289062,        0.1157226562,        0.0986328125,       27.1606445312,      -15.8386230469,       55.5877685547
1494294482.2266271114,       -0.7392578125,        0.1625976562,        0.1015625000,       27.9693603516,      -15.8386230469,       55.5877685547
1494294482.2293269634,       -0.7392578125,        0.1625976562,        0.1015625000,       27.9693603516,      -15.8386230469,       54.5959472656
1494294482.2320389748,       -0.7392578125,        0.1625976562,        0.1015625000,       29.6020507812,      -17.3950195312,       54.5959472656
1494294482.2347359657,       -0.7392578125,        0.1625976562,        0.1015625000,       29.6020507812,      -17.3950195312,       54.3975830078
1494294482.2374320030,       -0.7446289062,        0.1879882812,        0.1098632812,       32.3486328125,      -18.6004638672,       54.3975830078
1494294482.2401320934,       -0.7446289062,        0.1879882812,        0.1098632812,       32.3486328125,      -22.5067138672,       53.7872314453
1494294482.2427330017,       -0.7446289062,        0.1879882812,        0.1098632812,       34.7595214844,      -19.7143554688,       53.7872314453
1494294482.2452919483,       -0.7446289062,        0.1879882812,        0.0971679688,       34.7595214844,      -19.7143554688,       53.9550781250
1494294482.2478539944,       -0.7392578125,        0.1640625000,        0.0971679688,       36.7431640625,      -20.6146240234,       53.9550781250
1494294482.2505290508,       -0.7392578125,        0.1640625000,        0.0971679688,       36.7431640625,      -20.6146240234,       57.8613281250
1494294482.2532410622,       -0.7392578125,        0.1640625000,        0.0971679688,       38.0096435547,      -21.4843750000,       54.7027587891
1494294482.2559370995,       -0.7392578125,        0.1523437500,        0.1064453125,       38.0096435547,      -21.4843750000,       54.7027587891
1494294482.2586390972,       -0.7402343750,        0.1523437500,        0.1064453125,       39.7644042969,      -21.7285156250,       56.5490722656
1494294482.2613499165,       -0.7402343750,        0.1523437500,        0.1064453125,       39.7644042969,      -21.7285156250,       56.5490722656
1494294482.2640440464,       -0.7402343750,        0.1523437500,        0.1064453125,       41.0003662109,      -21.8048095703,       58.1359863281
1494294482.2667400837,       -0.7431640625,        0.1210937500,        0.1049804688,       41.0003662109,      -21.8048095703,       62.0422363281
1494294482.2694330215,       -0.7431640625,        0.1210937500,        0.1049804688,       41.0308837891,      -21.9268798828,       61.2487792969
1494294482.2721750736,       -0.7431640625,        0.1210937500,        0.1049804688,       41.0308837891,      -21.9268798828,       65.1550292969
1494294482.2748730183,       -0.7431640625,        0.1210937500,        0.1049804688,       40.2984619141,      -21.3623046875,       64.5599365234
1494294482.2776570320,       -0.7617187500,        0.0859375000,        0.1108398438,       40.2984619141,      -21.3623046875,       68.4661865234
1494294482.2807760239,       -0.7617187500,        0.0859375000,        0.1108398438,       39.9169921875,      -20.4925537109,       68.7713623047
1494294482.2834820747,       -0.7617187500,        0.0859375000,        0.1108398438,       39.9169921875,      -20.4925537109,       72.2351074219
1494294482.2861809731,       -0.7617187500,        0.0883789062,        0.1411132812,       39.8406982422,      -19.5617675781,       72.2351074219
1494294482.2888820171,       -0.7890625000,        0.0883789062,        0.1411132812,       39.8406982422,      -19.5617675781,       76.7059326172
1494294482.2915530205,       -0.7890625000,        0.0883789062,        0.1411132812,       38.4216308594,      -17.9138183594,       76.7059326172
1494294482.2941100597,       -0.7890625000,        0.0883789062,        0.1411132812,       38.4216308594,      -17.9138183594,       80.6121826172
1494294482.2966690063,       -0.8168945312,        0.0961914062,        0.1601562500,       37.5823974609,      -16.6931152344,       80.5816650391
1494294482.2992229462,       -0.8168945312,        0.0961914062,        0.1601562500,       37.5823974609,      -16.6931152344,       80.5816650391
1494294482.3018519878,       -0.8168945312,        0.0961914062,        0.1601562500,       37.3382568359,      -15.5792236328,       84.6557617188
1494294482.3045539856,       -0.8168945312,        0.0961914062,        0.1601562500,       37.3382568359,      -15.5792236328,       84.6557617188
1494294482.3072519302,       -0.8510742188,        0.1201171875,        0.1689453125,       37.8723144531,      -14.9078369141,       88.5162353516
1494294482.3099539280,       -0.8510742188,        0.1201171875,        0.1689453125,       37.8723144531,      -14.9078369141,       88.5162353516
1494294482.3125679493,       -0.8510742188,        0.1201171875,        0.1689453125,       37.8265380859,      -13.7329101562,       91.2322998047
1494294482.3151268959,       -0.8510742188,        0.1201171875,        0.1689453125,       37.8265380859,      -13.7329101562,       91.2322998047
1494294482.3176848888,       -0.8725585938,        0.1499023438,        0.1259765625,       37.0941162109,      -13.8092041016,       93.2312011719
1494294482.3202428818,       -0.8725585938,        0.1499023438,        0.1259765625,       37.0941162109,      -13.8092041016,       93.2312011719
1494294482.3229689598,       -0.8725585938,        0.1499023438,        0.1259765625,       37.0330810547,      -14.2211914062,       94.5434570312
1494294482.3255310059,       -0.8725585938,        0.1499023438,        0.1259765625,       37.0330810547,      -14.2211914062,       94.5434570312
1494294482.3280880451,       -0.8632812500,        0.1748046875,        0.0712890625,       37.2619628906,      -15.0299072266,       95.9320068359
1494294482.3307900429,       -0.8632812500,        0.1748046875,        0.0712890625,       37.2619628906,      -15.0299072266,       95.9320068359
1494294482.3333430290,       -0.8632812500,        0.1748046875,        0.0712890625,       37.2009277344,      -15.7623291016,       96.3439941406
1494294482.3358979225,       -0.8632812500,        0.1748046875,        0.0712890625,       37.2009277344,      -15.7623291016,       96.3439941406
1494294482.3384540081,       -0.9189453125,        0.1938476562,        0.0361328125,       37.2009277344,      -15.7318115234,       98.0377197266
1494294482.3411040306,       -0.9189453125,        0.1938476562,        0.0361328125,       37.1093750000,      -15.7318115234,       98.0377197266
1494294482.3436720371,       -0.9189453125,        0.1938476562,        0.0361328125,       37.1093750000,      -15.7318115234,      100.9979248047
1494294482.3462309837,       -0.9189453125,        0.1938476562,        0.0507812500,       36.7431640625,      -15.7012939453,      100.9979248047
1494294482.3487899303,       -0.9243164062,        0.1938476562,        0.0507812500,       36.7431640625,      -15.7012939453,      104.0191650391
1494294482.3514039516,       -0.9243164062,        0.1938476562,        0.0507812500,       36.1633300781,      -15.9454345703,      104.0191650391
1494294482.3541040421,       -0.9243164062,        0.1938476562,        0.0507812500,       36.1633300781,      -15.9454345703,      106.5826416016
1494294482.3568010330,       -0.9243164062,        0.1782226562,        0.0732421875,       35.8734130859,      -15.8843994141,      106.5826416016
1494294482.3595030308,       -0.9780273438,        0.1782226562,        0.0732421875,       35.8734130859,      -15.8843994141,      109.8937988281
1494294482.3622119427,       -0.9780273438,        0.1782226562,        0.0732421875,       35.1867675781,      -15.0299072266,      109.8937988281
1494294482.3649060726,       -0.9780273438,        0.1782226562,        0.0732421875,       35.1867675781,      -15.0299072266,      113.8000488281
1494294482.3676040173,       -1.0004882812,        0.1909179688,        0.1220703125,       35.5377197266,      -14.9230957031,      113.7237548828
1494294482.3703069687,       -1.0004882812,        0.1909179688,        0.1220703125,       35.5377197266,      -14.9230957031,      113.7237548828
1494294482.3730180264,       -1.0004882812,        0.1909179688,        0.1220703125,       37.1093750000,      -15.0604248047,      117.0654296875
1494294482.3757250309,       -1.0004882812,        0.1909179688,        0.1220703125,       37.1093750000,      -15.0604248047,      120.9716796875
1494294482.3784220219,       -0.9819335938,        0.2006835938,        0.1396484375,       42.4652099609,      -16.4642333984,      119.1864013672
1494294482.3811559677,       -0.9819335938,        0.2006835938,        0.1396484375,       42.4652099609,      -16.4642333984,      119.1864013672
1494294482.3838510513,       -0.9819335938,        0.2006835938,        0.1396484375,       48.4924316406,      -17.4865722656,      120.6207275391
1494294482.3865458965,       -0.9819335938,        0.2006835938,        0.1206054688,       48.4924316406,      -17.4865722656,      120.6207275391
1494294482.3892450333,       -0.9726562500,        0.1923828125,        0.1206054688,       54.0466308594,      -18.9971923828,      120.4681396484
1494294482.3918929100,       -0.9726562500,        0.1923828125,        0.1206054688,       54.0466308594,      -18.9971923828,      120.4681396484
1494294482.3944590092,       -0.9726562500,        0.1923828125,        0.1206054688,       61.1267089844,      -20.3399658203,      121.0784912109
1494294482.3972530365,       -1.0976562500,        0.1538085938,        0.0859375000,       61.1267089844,      -20.3399658203,      121.0784912109
1494294482.3998320103,       -1.0107421875,        0.1538085938,        0.0859375000,       66.3452148438,      -20.5841064453,      122.7264404297
1494294482.4028089046,       -1.0107421875,        0.1538085938,        0.0859375000,       66.3452148438,      -20.5841064453,      122.7264404297
1494294482.4055120945,       -1.0107421875,        0.1538085938,        0.0859375000,       71.2280273438,      -19.9584960938,      124.8168945312
1494294482.4082140923,       -1.1069335938,        0.0942382812,        0.0800781250,       71.2280273438,      -19.9584960938,      124.8168945312
1494294482.4109559059,       -1.1069335938,        0.0942382812,        0.0800781250,       75.3173828125,      -18.0969238281,      126.3427734375
1494294482.4136559963,       -1.1069335938,        0.0942382812,        0.0800781250,       75.3173828125,      -18.0969238281,      126.3427734375
1494294482.4163560867,       -1.1069335938,        0.0942382812,        0.0800781250,       79.5745849609,      -17.8375244141,      127.4261474609
1494294482.4190480709,       -1.2211914062,        0.0195312500,        0.1069335938,       79.5745849609,      -17.8375244141,      127.4261474609
1494294482.4217569828,       -1.2211914062,        0.0195312500,        0.1069335938,       85.2508544922,      -16.5710449219,      127.8839111328
1494294482.4244489670,       -1.2211914062,        0.0195312500,        0.1069335938,       85.2508544922,      -16.5710449219,      127.8839111328
1494294482.4271469116,       -1.2211914062,       -0.1054687500,        0.0976562500,       91.5832519531,      -17.4407958984,      128.0670166016
1494294482.4298470020,       -1.2807617188,       -0.0346679688,        0.0976562500,       91.5832519531,      -17.4407958984,      128.0670166016
1494294482.4324688911,       -1.2807617188,       -0.0346679688,        0.0976562500,      101.4099121094,      -19.7448730469,      129.2419433594
1494294482.4350268841,       -1.2807617188,       -0.0346679688,        0.0976562500,      101.4099121094,      -19.7448730469,      129.2419433594
1494294482.4375889301,       -1.2807617188,       -0.1010742188,        0.0327148438,      113.9984130859,      -21.9268798828,      129.5928955078
1494294482.4401469231,       -1.3222656250,       -0.1010742188,        0.0327148438,      113.9984130859,      -21.9268798828,      129.5928955078
1494294482.4427120686,       -1.3222656250,       -0.1010742188,        0.0327148438,      127.1362304688,      -23.5290527344,      129.8065185547
1494294482.4452741146,       -1.3222656250,       -0.1010742188,        0.0327148438,      127.1362304688,      -23.5290527344,      129.8065185547
1494294482.4478340149,       -1.4472656250,       -0.2431640625,        0.0268554688,      139.4348144531,      -24.7497558594,      130.7220458984
1494294482.4503929615,       -1.3789062500,       -0.2431640625,        0.0268554688,      139.4348144531,      -24.7497558594,      130.7220458984
1494294482.4530529976,       -1.3789062500,       -0.2431640625,        0.0268554688,      148.2696533203,      -25.6347656250,      132.9498291016
1494294482.4556159973,       -1.3789062500,       -0.2431640625,        0.0268554688,      148.2696533203,      -25.6347656250,      132.9498291016
1494294482.4581770897,       -1.4365234375,       -0.4492187500,        0.1840820312,      152.1759033203,      -25.6195068359,      136.1083984375
1494294482.4607920647,       -1.4365234375,       -0.4492187500,        0.1840820312,      149.9176025391,      -25.6195068359,      136.1083984375
1494294482.4635000229,       -1.4365234375,       -0.4492187500,        0.1840820312,      149.9176025391,      -26.0162353516,      142.0440673828
1494294482.4661970139,       -1.4365234375,       -0.4492187500,        0.1840820312,      141.4031982422,      -26.0162353516,      142.0440673828
1494294482.4688920975,       -1.4018554688,       -0.5083007812,        0.3833007812,      141.4031982422,      -27.2064208984,      152.9083251953
1494294482.4717109203,       -1.4018554688,       -0.5083007812,        0.3833007812,      122.8179931641,      -27.2064208984,      152.9083251953
1494294482.4744079113,       -1.4018554688,       -0.5083007812,        0.3833007812,      122.8179931641,      -25.9552001953,      167.1905517578
1494294482.4771029949,       -1.4018554688,       -0.5083007812,        0.3833007812,       97.6257324219,      -25.9552001953,      167.1905517578
1494294482.4798040390,       -1.2866210938,       -0.2666015625,        0.4555664062,       97.6257324219,      -20.8435058594,      183.8226318359
1494294482.4824969769,       -1.2866210938,       -0.2666015625,        0.4555664062,       79.2083740234,      -20.8435058594,      183.8226318359
1494294482.4851939678,       -1.2866210938,       -0.2666015625,        0.4555664062,       79.2083740234,      -11.0626220703,      198.4405517578
1494294482.4878869057,       -1.2866210938,        0.2377929688,        0.3349609375,       68.0999755859,      -11.0626220703,      198.4405517578
1494294482.4905829430,       -1.2470703125,        0.2377929688,        0.3349609375,       68.0999755859,       -3.2501220703,      194.7174072266
1494294482.4931380749,       -1.2470703125,        0.2377929688,        0.3349609375,       50.1098632812,       -3.7994384766,      194.7174072266
1494294482.4956879616,       -1.2470703125,        0.2377929688,        0.3349609375,       50.1098632812,       -3.7994384766,      178.0395507812
1494294482.4982390404,       -1.2470703125,        0.2236328125,        0.2045898438,       36.0565185547,       -2.8839111328,      178.0395507812
1494294482.5008349419,       -1.2456054688,        0.2236328125,        0.2045898438,       36.0565185547,       -2.8839111328,      178.0395507812
1494294482.5034060478,       -1.2456054688,        0.2236328125,        0.2045898438,       28.3813476562,       -8.0566406250,      165.0085449219
1494294482.5059640408,       -1.2456054688,        0.2236328125,        0.2045898438,       28.3813476562,       -8.0566406250,      165.0085449219
1494294482.5085210800,       -1.1777343750,        0.0190429688,        0.2607421875,       17.3187255859,      -12.9089355469,      157.8216552734
1494294482.5111000538,       -1.1777343750,        0.0190429688,        0.2607421875,       17.3187255859,      -12.9089355469,      157.8216552734
1494294482.5137889385,       -1.1777343750,        0.0190429688,        0.2607421875,        7.6446533203,      -14.8468017578,      152.2674560547
1494294482.5164749622,       -1.1777343750,        0.0190429688,        0.2607421875,        7.6446533203,      -14.8468017578,      152.2674560547
1494294482.5192949772,       -1.0766601562,        0.0864257812,        0.2631835938,        9.0179443359,      -14.7552490234,      148.9868164062
1494294482.5223820210,       -1.0766601562,        0.0864257812,        0.2631835938,        9.0179443359,      -14.7552490234,      148.9868164062
1494294482.5250790119,       -1.0766601562,        0.0864257812,        0.2631835938,       14.3890380859,      -18.9819335938,      145.0347900391
1494294482.5277791023,       -1.0766601562,        0.0864257812,        0.3510742188,       14.3890380859,      -18.9819335938,      145.0347900391
1494294482.5304760933,       -0.9458007812,        0.2553710938,        0.3510742188,       17.3645019531,      -23.4985351562,      137.3748779297
1494294482.5331869125,       -0.9458007812,        0.2553710938,        0.3510742188,       17.3645019531,      -23.4985351562,      137.3748779297
1494294482.5358829498,       -0.9458007812,        0.2553710938,        0.3510742188,       23.9410400391,      -25.7263183594,      125.6408691406
1494294482.5385820866,       -0.9458007812,        0.1894531250,        0.3291015625,       23.9410400391,      -25.7263183594,      125.6408691406
1494294482.5412890911,       -0.9155273438,        0.1894531250,        0.3291015625,       32.3486328125,      -21.3165283203,      112.3046875000
1494294482.5440959930,       -0.9155273438,        0.1894531250,        0.3291015625,       32.3486328125,      -21.3165283203,      112.3046875000
1494294482.5467970371,       -0.9155273438,        0.1894531250,        0.3291015625,       45.4864501953,      -11.9323730469,       97.9309082031
1494294482.5494968891,       -0.8476562500,        0.0214843750,        0.1499023438,       45.4864501953,      -11.9323730469,       97.9309082031
1494294482.5521330833,       -0.8476562500,        0.0214843750,        0.1499023438,       61.9201660156,       -7.7514648438,       88.1347656250
1494294482.5546929836,       -0.8476562500,        0.0214843750,        0.1499023438,       61.9201660156,       -7.7514648438,       88.1347656250
1494294482.5572500229,       -0.8476562500,        0.0214843750,        0.1499023438,       66.1621093750,      -15.3656005859,       86.4257812500
1494294482.5598070621,       -0.5800781250,        0.3447265625,        0.2841796875,       66.1621093750,      -15.3656005859,       86.4257812500
1494294482.5623710155,       -0.5800781250,        0.3447265625,        0.2841796875,       49.8352050781,      -30.5175781250,       77.3925781250
1494294482.5649290085,       -0.5800781250,        0.3447265625,        0.2841796875,       49.8352050781,      -30.5175781250,       77.3925781250
1494294482.5674920082,       -0.5800781250,        0.3447265625,        0.2841796875,       30.7769775391,      -33.4472656250,       54.5196533203
1494294482.5700509548,       -0.5742187500,        0.2377929688,        0.3618164062,       30.7769775391,      -33.4472656250,       54.5196533203
1494294482.5727810860,       -0.5742187500,        0.2377929688,        0.3618164062,       17.8222656250,      -17.6849365234,       23.9257812500
1494294482.5753319263,       -0.5742187500,        0.2377929688,        0.3618164062,       17.8222656250,      -17.6849365234,       23.9257812500
1494294482.5778889656,       -0.5742187500,        0.2377929688,        0.3618164062,       17.8222656250,       -2.2583007812,       -5.8898925781
1494294482.5804400444,       -0.7294921875,       -0.1372070312,        0.1098632812,       12.8631591797,       -2.2583007812,       -5.8898925781
1494294482.5832660198,       -0.7294921875,       -0.1372070312,        0.1098632812,       12.8631591797,        2.2430419922,      -28.9001464844
1494294482.5859520435,       -0.7294921875,       -0.1372070312,        0.1098632812,       16.5405273438,        2.2430419922,      -28.9001464844
1494294482.5886340141,       -0.7294921875,       -0.3432617188,        0.0048828125,       16.5405273438,        2.3956298828,      -43.8690185547
1494294482.5913701057,       -0.4990234375,       -0.3432617188,        0.0048828125,       19.9432373047,        2.3956298828,      -43.8690185547
1494294482.5940659046,       -0.4990234375,       -0.3432617188,        0.0048828125,       19.9432373047,        3.7078857422,      -54.8400878906
1494294482.5967609882,       -0.4990234375,       -0.3432617188,        0.0048828125,       16.4337158203,        3.7078857422,      -54.8400878906
1494294482.5994551182,       -0.3442382812,       -0.3818359375,       -0.0390625000,       16.4337158203,        7.6141357422,      -63.5681152344
1494294482.6021649837,       -0.3442382812,       -0.3818359375,       -0.0390625000,       10.9100341797,        5.3100585938,      -63.5681152344
1494294482.6048650742,       -0.3442382812,       -0.3818359375,       -0.0390625000,       10.9100341797,        5.3100585938,      -70.6634521484
1494294482.6075649261,       -0.3442382812,       -0.3818359375,       -0.0390625000,        4.9743652344,        6.5155029297,      -70.6634521484
1494294482.6102550030,       -0.2280273438,       -0.3012695312,       -0.0400390625,        4.9743652344,       10.4217529297,      -77.8503417969
1494294482.6129639149,       -0.2280273438,       -0.3012695312,       -0.0400390625,       -0.0457763672,        7.9956054688,      -77.8503417969
1494294482.6156558990,       -0.2280273438,       -0.3012695312,       -0.0400390625,       -0.0457763672,        7.9956054688,      -85.4644775391
1494294482.6184570789,       -0.2280273438,       -0.3012695312,       -0.0156250000,       -2.7160644531,        8.9111328125,      -85.4644775391
1494294482.6211609840,       -0.1948242188,       -0.1923828125,       -0.0156250000,       -2.7160644531,        8.9111328125,      -93.3380126953
1494294482.6238479614,       -0.1948242188,       -0.1923828125,       -0.0156250000,       -4.6386718750,        9.2163085938,      -93.3380126953
1494294482.6265358925,       -0.1948242188,       -0.1923828125,       -0.0156250000,       -4.6386718750,        9.2163085938,     -101.9439697266
1494294482.6292269230,       -0.1948242188,       -0.0966796875,        0.0043945312,       -7.3852539062,        8.8958740234,     -101.9439697266
1494294482.6319179535,       -0.2285156250,       -0.0966796875,        0.0043945312,       -7.3852539062,        8.8958740234,     -112.0452880859
1494294482.6344649792,       -0.2285156250,       -0.0966796875,        0.0043945312,      -10.5438232422,        8.7890625000,     -112.0452880859
1494294482.6370499134,       -0.2285156250,       -0.0966796875,        0.0043945312,      -10.5438232422,        8.7890625000,     -123.7640380859
1494294482.6396429539,       -0.2871093750,       -0.0625000000,        0.0615234375,      -14.8162841797,        8.8195800781,     -123.0773925781
1494294482.6425950527,       -0.2871093750,       -0.0625000000,        0.0615234375,      -14.8162841797,        8.8195800781,     -134.0179443359
1494294482.6452920437,       -0.2871093750,       -0.0625000000,        0.0615234375,      -20.0653076172,       10.6964111328,     -134.0179443359
1494294482.6479930878,       -0.2871093750,       -0.0625000000,        0.0615234375,      -20.0653076172,       10.6964111328,     -144.5007324219
1494294482.6507019997,       -0.3383789062,       -0.0625000000,        0.0947265625,      -26.1688232422,       12.7563476562,     -144.5007324219
1494294482.6534039974,       -0.3383789062,       -0.0625000000,        0.0947265625,      -26.1688232422,       12.7563476562,     -154.0985107422
1494294482.6560990810,       -0.3383789062,       -0.0625000000,        0.0947265625,      -32.2875976562,       15.5334472656,     -154.0985107422
1494294482.6587989330,       -0.3383789062,       -0.0625000000,        0.1054687500,      -32.2875976562,       15.5334472656,     -163.5437011719
1494294482.6615478992,       -0.3862304688,       -0.0673828125,        0.1054687500,      -38.9709472656,       18.4478759766,     -163.5437011719
1494294482.6642498970,       -0.3862304688,       -0.0673828125,        0.1054687500,      -38.9709472656,       18.4478759766,     -175.2624511719
1494294482.6669540405,       -0.3862304688,       -0.0673828125,        0.1054687500,      -46.4477539062,       21.4080810547,     -172.8820800781
1494294482.6696510315,       -0.3862304688,       -0.0537109375,        0.0815429688,      -46.4477539062,       21.4080810547,     -180.6945800781
1494294482.6722800732,       -0.4155273438,       -0.0537109375,        0.0815429688,      -53.2226562500,       24.2004394531,     -182.5256347656
1494294482.6748380661,       -0.4155273438,       -0.0537109375,        0.0815429688,      -53.2226562500,       24.2004394531,     -182.5256347656
1494294482.6773951054,       -0.4155273438,       -0.0537109375,        0.0815429688,      -59.2651367188,       26.7028808594,     -192.8710937500
1494294482.6799519062,       -0.4482421875,       -0.0375976562,        0.0600585938,      -59.2651367188,       26.7028808594,     -192.8710937500
1494294482.6825170517,       -0.4482421875,       -0.0375976562,        0.0600585938,      -64.9414062500,       29.1137695312,     -202.8045654297
1494294482.6850759983,       -0.4482421875,       -0.0375976562,        0.0600585938,      -64.9414062500,       29.1137695312,     -202.8045654297
1494294482.6876330376,       -0.4482421875,       -0.0375976562,        0.0600585938,      -68.9849853516,       30.6243896484,     -211.6241455078
1494294482.6901900768,       -0.4799804688,       -0.0498046875,        0.0405273438,      -68.9849853516,       30.6243896484,     -211.6241455078
1494294482.6929600239,       -0.4799804688,       -0.0498046875,        0.0405273438,      -72.6013183594,       31.6162109375,     -220.0164794922
1494294482.6955170631,       -0.4799804688,       -0.0498046875,        0.0405273438,      -72.6013183594,       31.6162109375,     -220.0164794922
1494294482.6980750561,       -0.4799804688,       -0.0498046875,        0.0405273438,      -74.0661621094,       32.4096679688,     -228.2104492188
1494294482.7007849216,       -0.5092773438,       -0.0463867188,        0.0273437500,      -74.0661621094,       32.4096679688,     -228.2104492188
1494294482.7034909725,       -0.5092773438,       -0.0463867188,        0.0273437500,      -73.9746093750,       33.5083007812,     -236.3433837891
1494294482.7061939240,       -0.5092773438,       -0.0463867188,        0.0273437500,      -73.9746093750,       33.5083007812,     -236.3433837891
1494294482.7088949680,       -0.5092773438,       -0.0463867188,        0.0273437500,      -73.0590820312,       33.3557128906,     -243.7591552734
1494294482.7116088867,       -0.5380859375,       -0.0180664062,        0.0253906250,      -73.0590820312,       33.3557128906,     -243.7591552734
1494294482.7143089771,       -0.5380859375,       -0.0180664062,        0.0253906250,      -71.4874267578,       33.8897705078,     -250.9918212891
1494294482.7170069218,       -0.5380859375,       -0.0180664062,        0.0253906250,      -71.4874267578,       33.8897705078,     -250.9918212891
1494294482.7197000980,       -0.5380859375,        0.1069335938,        0.0390625000,      -69.6563720703,       33.6914062500,     -257.7819824219
1494294482.7224080563,       -0.5673828125,        0.0087890625,        0.0390625000,      -69.6563720703,       33.6914062500,     -257.7819824219
1494294482.7251091003,       -0.5673828125,        0.0087890625,        0.0390625000,      -68.8476562500,       32.8063964844,     -264.3280029297
1494294482.7278089523,       -0.5673828125,        0.0087890625,        0.0390625000,      -68.8476562500,       32.8063964844,     -264.3280029297
1494294482.7305090427,       -0.6152343750,        0.0424804688,        0.0473632812,      -67.9931640625,       31.8756103516,     -271.5301513672
1494294482.7330949306,       -0.6152343750,        0.0424804688,        0.0473632812,      -67.9931640625,       31.8756103516,     -271.5301513672
1494294482.7356579304,       -0.6152343750,        0.0424804688,        0.0473632812,      -67.9931640625,       30.8380126953,     -278.2592773438
1494294482.7382249832,       -0.6152343750,        0.0424804688,        0.0473632812,      -67.2607421875,       30.8380126953,     -278.2592773438
1494294482.7407989502,       -0.6982421875,        0.0971679688,        0.0620117188,      -67.2607421875,       30.8380126953,     -284.6221923828
1494294482.7434968948,       -0.6982421875,        0.0971679688,        0.0620117188,      -65.2465820312,       29.6478271484,     -284.6221923828
1494294482.7461869717,       -0.6982421875,        0.0971679688,        0.0620117188,      -65.2465820312,       29.6478271484,     -291.2139892578
1494294482.7488710880,       -0.6982421875,        0.0971679688,        0.0620117188,      -63.1256103516,       27.6641845703,     -291.2139892578
1494294482.7515699863,       -0.7788085938,        0.1484375000,        0.0756835938,      -63.1256103516,       27.6641845703,     -297.7905273438
1494294482.7542669773,       -0.7788085938,        0.1484375000,        0.0756835938,      -61.0961914062,       26.1230468750,     -297.7905273438
1494294482.7570469379,       -0.7788085938,        0.1484375000,        0.0756835938,      -61.0961914062,       26.1230468750,     -304.1381835938
1494294482.7597429752,       -0.7788085938,        0.1484375000,        0.0800781250,      -58.1359863281,       24.3530273438,     -304.1381835938
1494294482.7627630234,       -0.8608398438,        0.1728515625,        0.0800781250,      -58.1359863281,       22.8576660156,     -309.7229003906
1494294482.7655630112,       -0.8608398438,        0.1728515625,        0.0800781250,      -55.7250976562,       22.8576660156,     -309.7229003906
1494294482.7682631016,       -0.8608398438,        0.1728515625,        0.0800781250,      -55.7250976562,       21.6217041016,     -315.0024414062
1494294482.7709689140,       -0.9433593750,        0.1757812500,        0.0815429688,      -52.9937744141,       21.6217041016,     -315.0024414062
1494294482.7736680508,       -0.9433593750,        0.1757812500,        0.0815429688,      -52.9937744141,       20.5383300781,     -319.1070556641
1494294482.7763650417,       -0.9433593750,        0.1757812500,        0.0815429688,      -50.6744384766,       20.5383300781,     -319.1070556641
1494294482.7790670395,       -0.9433593750,        0.1757812500,        0.0815429688,      -50.6744384766,       20.5383300781,     -322.9370117188
1494294482.7817780972,       -1.0517578125,        0.1601562500,        0.0776367188,      -49.6673583984,       19.6075439453,     -322.9370117188
1494294482.7844719887,       -1.0517578125,        0.1601562500,        0.0776367188,      -49.6673583984,       15.7012939453,     -325.0885009766
1494294482.7871730328,       -1.0517578125,        0.1601562500,        0.0776367188,      -51.2695312500,       18.7683105469,     -325.0885009766
1494294482.7898709774,       -1.0517578125,        0.1601562500,        0.0952148438,      -51.2695312500,       18.7683105469,     -326.4160156250
1494294482.7924840450,       -1.1708984375,        0.1406250000,        0.0952148438,      -52.5970458984,       17.9748535156,     -326.4160156250
1494294482.7950439453,       -1.1708984375,        0.1406250000,        0.0952148438,      -52.5970458984,       17.9748535156,     -327.1636962891
1494294482.7975978851,       -1.1708984375,        0.1406250000,        0.0952148438,      -53.6499023438,       17.2424316406,     -327.1636962891
1494294482.8001489639,       -1.1708984375,        0.1406250000,        0.1425781250,      -53.6499023438,       17.2424316406,     -327.1636962891
1494294482.8027160168,       -1.3037109375,        0.1791992188,        0.1425781250,      -56.3201904297,       16.6778564453,     -328.7811279297
1494294482.8052680492,       -1.3037109375,        0.1791992188,        0.1425781250,      -56.3201904297,       16.6778564453,     -328.7811279297
1494294482.8078279495,       -1.3037109375,        0.1791992188,        0.1425781250,      -60.1196289062,       16.1590576172,     -330.0628662109
1494294482.8103849888,       -1.3037109375,        0.3041992188,        0.2446289062,      -60.1196289062,       16.1590576172,     -330.0628662109
1494294482.8130850792,       -1.4355468750,        0.2836914062,        0.2446289062,      -57.8002929688,       14.2974853516,     -330.4595947266
1494294482.8156490326,       -1.4355468750,        0.2836914062,        0.2446289062,      -57.8002929688,       14.2974853516,     -330.4595947266
1494294482.8182070255,       -1.4355468750,        0.2836914062,        0.2446289062,      -42.0684814453,       18.1121826172,     -330.0323486328
1494294482.8208019733,       -1.4355468750,        0.5849609375,        0.2285156250,      -42.0684814453,       18.1121826172,     -330.0323486328
1494294482.8233640194,       -1.5717773438,        0.5849609375,        0.2285156250,      -28.2135009766,       23.4985351562,     -331.7565917969
1494294482.8259201050,       -1.5717773438,        0.5849609375,        0.2285156250,      -28.2135009766,       23.4985351562,     -331.7565917969
1494294482.8284831047,       -1.5717773438,        0.5849609375,        0.2285156250,      -20.4010009766,       23.6663818359,     -333.1146240234
1494294482.8310620785,       -1.6967773438,        0.7353515625,        0.2021484375,      -21.9116210938,       23.6663818359,     -333.1146240234
1494294482.8337640762,       -1.6464843750,        0.7353515625,        0.2021484375,      -18.0053710938,       23.1475830078,     -331.0089111328
1494294482.8364601135,       -1.6464843750,        0.7353515625,        0.2021484375,      -18.3868408203,       23.1475830078,     -331.0089111328
1494294482.8392651081,       -1.6464843750,        0.7353515625,        0.2021484375,      -18.3868408203,       25.0549316406,     -325.1190185547
1494294482.8419768810,       -1.7202148438,        0.7949218750,        0.2236328125,      -18.8598632812,       25.0549316406,     -325.1190185547
1494294482.8446750641,       -1.7202148438,        0.7949218750,        0.2236328125,      -22.7661132812,       26.4892578125,     -315.5364990234
1494294482.8473720551,       -1.7202148438,        0.7949218750,        0.2236328125,      -21.5606689453,       26.4892578125,     -315.5364990234
1494294482.8500699997,       -1.7202148438,        0.7949218750,        0.2236328125,      -29.3731689453,       26.2908935547,     -302.9479980469
1494294482.8526721001,       -1.7187500000,        0.7856445312,        0.1684570312,      -28.7475585938,       26.2908935547,     -302.9479980469
1494294482.8552329540,       -1.7187500000,        0.7856445312,        0.1684570312,      -28.7475585938,       30.1971435547,     -285.9497070312
1494294482.8577919006,       -1.7187500000,        0.7856445312,        0.1684570312,      -41.7785644531,       27.7557373047,     -285.9497070312
1494294482.8603439331,       -1.7187500000,        0.7856445312,        0.1684570312,      -41.7785644531,       27.7557373047,     -265.1367187500
1494294482.8630518913,       -1.7114257812,        0.8002929688,        0.1376953125,      -60.7147216797,       30.1513671875,     -265.1367187500
1494294482.8656160831,       -1.7114257812,        0.8002929688,        0.1376953125,      -60.7147216797,       30.1513671875,     -245.6054687500
1494294482.8681719303,       -1.7114257812,        0.8002929688,        0.1376953125,      -83.0688476562,       30.1055908203,     -242.5842285156
1494294482.8707230091,       -1.7114257812,        0.8002929688,        0.4624023438,      -83.0688476562,       30.1055908203,     -242.5842285156
1494294482.8732850552,       -1.5551757812,        0.9570312500,        0.4624023438,     -108.2763671875,       26.5960693359,     -219.1162109375
1494294482.8758389950,       -1.5551757812,        0.9570312500,        0.4624023438,     -108.2763671875,       26.5960693359,     -219.1162109375
1494294482.8786039352,       -1.5551757812,        0.9570312500,        0.4624023438,     -128.1890869141,       21.8200683594,     -195.5718994141
1494294482.8814311028,       -1.1801757812,        1.5708007812,        0.9321289062,     -128.1890869141,       21.8200683594,     -195.5718994141
1494294482.8841350079,       -1.1274414062,        1.5708007812,        0.9321289062,     -130.3710937500,       14.4958496094,     -176.1779785156
1494294482.8868370056,       -1.1274414062,        1.5708007812,        0.9321289062,     -130.3710937500,       14.4958496094,     -176.1779785156
1494294482.8895359039,       -1.1274414062,        1.5708007812,        0.9321289062,     -132.4310302734,        6.5155029297,     -153.5339355469
1494294482.8922429085,       -0.5815429688,        2.4028320312,        0.6464843750,     -132.4310302734,        6.5155029297,     -153.5339355469
1494294482.8949420452,       -0.5815429688,        2.4028320312,        0.6464843750,     -125.6103515625,      -10.0250244141,     -120.3460693359
1494294482.8976418972,       -0.5815429688,        2.4028320312,        0.6464843750,     -125.6103515625,      -10.0250244141,     -120.3460693359
1494294482.9003419876,       -0.5815429688,        2.4028320312,        0.6464843750,      -96.0845947266,      -24.3072509766,      -81.7413330078
1494294482.9030449390,       -0.3666992188,        2.9497070312,        0.1235351562,      -96.0845947266,      -24.3072509766,      -81.7413330078
1494294482.9057459831,       -0.3666992188,        2.9497070312,        0.1235351562,      -52.3071289062,      -33.7371826172,      -45.3338623047
1494294482.9084439278,       -0.3666992188,        2.9497070312,        0.1235351562,      -52.3071289062,      -33.7371826172,      -45.3338623047
1494294482.9111299515,       -0.3666992188,        2.9497070312,        0.0356445312,      -15.9454345703,      -37.9333496094,       -3.6010742188
1494294482.9137890339,       -0.6474609375,        2.3715820312,        0.0356445312,      -15.9454345703,      -37.9333496094,       -3.6010742188
1494294482.9163460732,       -0.6474609375,        2.3715820312,        0.0356445312,       -4.0130615234,      -33.2946777344,       43.5943603516
1494294482.9188981056,       -0.6474609375,        2.3715820312,        0.0356445312,       -4.0130615234,      -33.2946777344,       43.5943603516
1494294482.9214599133,       -0.6474609375,        1.7465820312,        0.2758789062,      -15.6250000000,      -27.2064208984,       83.1909179688
1494294482.9240190983,       -0.8764648438,        1.6601562500,        0.2758789062,      -15.6250000000,      -27.2064208984,       83.1909179688
1494294482.9265749454,       -0.8764648438,        1.6601562500,        0.2758789062,      -44.0521240234,      -22.3999023438,      111.2670898438
1494294482.9291369915,       -0.8764648438,        1.6601562500,        0.2758789062,      -44.0521240234,      -22.3999023438,      111.2670898438
1494294482.9318530560,       -1.1264648438,        1.1904296875,        0.5805664062,      -71.3958740234,      -23.8647460938,      125.9002685547
1494294482.9344129562,       -1.1699218750,        1.1904296875,        0.5805664062,      -70.7855224609,      -23.8647460938,      125.9002685547
1494294482.9369668961,       -1.1699218750,        1.1904296875,        0.5805664062,      -70.7855224609,      -16.0522460938,      140.9301757812
1494294482.9395248890,       -1.1699218750,        1.1904296875,        0.5805664062,     -105.7891845703,      -16.3421630859,      140.9301757812
1494294482.9423069954,       -0.7856445312,        0.8457031250,        0.3427734375,     -105.7891845703,      -12.4359130859,      163.0859375000
1494294482.9449999332,       -0.7856445312,        0.8457031250,        0.3427734375,     -141.3879394531,      -14.6179199219,      163.0859375000
1494294482.9476919174,       -0.7856445312,        0.8457031250,        0.3427734375,     -141.3879394531,      -30.2429199219,      165.6646728516
1494294482.9503860474,       -0.7856445312,        0.8457031250,        0.3427734375,     -135.8337402344,      -29.9224853516,      165.6646728516
1494294482.9530849457,       -0.8129882812,       -0.2548828125,        0.3681640625,     -135.8337402344,      -37.7349853516,      134.4757080078
1494294482.9557819366,       -0.8129882812,       -0.2548828125,        0.3681640625,     -134.5977783203,      -38.5742187500,      134.4757080078
1494294482.9584789276,       -0.8129882812,       -0.2548828125,        0.3681640625,     -134.5977783203,      -38.5742187500,       75.1190185547
1494294482.9611821175,       -0.8129882812,       -0.2548828125,       -0.3818359375,     -107.4676513672,      -33.7219238281,       75.1190185547
1494294482.9638729095,       -1.4843750000,       -2.2094726562,       -0.4511718750,     -107.4676513672,      -33.7219238281,       35.6445312500
1494294482.9665689468,       -1.4843750000,       -2.2094726562,       -0.4511718750,        1.7852783203,      -22.3083496094,       35.6445312500
1494294482.9692640305,       -1.4843750000,       -2.2094726562,       -0.4511718750,        1.7852783203,      -22.3083496094,       52.0935058594
1494294482.9719090462,       -1.4843750000,       -1.8945312500,       -0.6435546875,       79.0863037109,       -3.1738281250,       52.0935058594
1494294482.9744589329,       -1.2465820312,       -1.8945312500,       -0.6435546875,       79.0863037109,       -3.1738281250,      102.8747558594
1494294482.9770081043,       -1.2465820312,       -1.8945312500,       -0.6435546875,       37.7960205078,       -0.4730224609,      102.4780273438
1494294482.9795620441,       -1.2465820312,       -1.8945312500,       -0.6435546875,       37.7960205078,       -0.4730224609,      102.4780273438
1494294482.9822099209,       -1.2465820312,        0.2060546875,       -0.3969726562,      -33.4930419922,       -6.3171386719,      158.7677001953
1494294482.9850089550,       -0.8032226562,        0.2060546875,       -0.3969726562,      -33.4930419922,       -6.3171386719,      158.7677001953
1494294482.9876990318,       -0.8032226562,        0.2060546875,       -0.3969726562,     -107.5897216797,      -11.4135742188,      205.5358886719
1494294482.9903950691,       -0.8032226562,        0.2060546875,       -0.3969726562,     -107.5897216797,      -11.4135742188,      205.5358886719
1494294482.9930961132,       -0.9501953125,        1.7973632812,        0.0864257812,     -183.4564208984,      -24.6276855469,      216.2170410156
1494294482.9957969189,       -0.9501953125,        1.7973632812,        0.0864257812,     -183.4564208984,      -24.6276855469,      216.2170410156
1494294482.9986059666,       -0.9501953125,        1.7973632812,        0.0864257812,     -188.8732910156,      -33.9202880859,      196.3043212891
1494294483.0015931129,       -0.9501953125,        1.7973632812,       -0.0385742188,     -188.8732910156,      -33.9202880859,      157.2418212891
1494294483.0042970181,       -1.3671875000,        1.1259765625,       -0.0732421875,     -115.1580810547,      -32.8369140625,      157.1197509766
