time_stamp before, Acceleration x, Acceleration y, Acceleration z, Gyro x, Gyro y, Gyro z
1494294691.5884099007,       -1.7026367188,       -0.3339843750,        0.6967773438,       16.4794921875,       16.2048339844,      147.6440429688
1494294691.5948688984,       -1.7026367188,       -0.3339843750,        0.6967773438,       22.6898193359,       16.2048339844,      147.6440429688
1494294691.5975461006,       -0.3256835938,       -0.5156250000,        0.5205078125,      -33.1573486328,       -9.0332031250,       92.6208496094
1494294691.6001050472,       -0.3256835938,       -0.5156250000,        0.5205078125,      -33.1573486328,       -9.0332031250,       92.6208496094
1494294691.6029551029,       -0.3256835938,       -0.5156250000,        0.5205078125,     -132.9803466797,      -29.1900634766,       73.0285644531
1494294691.6056089401,       -0.3256835938,       -0.5156250000,        0.2705078125,     -132.9803466797,      -29.1900634766,       73.0285644531
1494294691.6085278988,       -1.4541015625,       -1.0141601562,        0.3735351562,     -219.1467285156,      -13.9465332031,       36.3464355469
1494294691.6112279892,       -1.4541015625,       -1.0141601562,        0.3735351562,     -219.1467285156,      -13.9465332031,       36.3464355469
1494294691.6139190197,       -1.4541015625,       -1.0141601562,        0.3735351562,     -230.2703857422,        9.6893310547,      -20.2789306641
1494294691.6166079044,       -1.4541015625,       -1.4536132812,        0.1596679688,     -230.2703857422,        9.6893310547,      -20.2789306641
1494294691.6192979813,       -1.3413085938,       -1.4536132812,        0.1596679688,     -181.7626953125,        5.0048828125,      -35.2020263672
1494294691.6219949722,       -1.3413085938,       -1.4536132812,        0.1596679688,     -181.7626953125,        5.0048828125,      -35.2020263672
1494294691.6246800423,       -1.3413085938,       -1.4536132812,        0.1596679688,     -156.6619873047,        3.0822753906,      -24.2614746094
1494294691.6273629665,       -0.5883789062,       -0.9443359375,        0.1533203125,     -156.6619873047,        3.0822753906,      -24.2614746094
1494294691.6300520897,       -0.5883789062,       -0.9443359375,        0.1533203125,     -156.6619873047,        4.0893554688,      -25.4211425781
1494294691.6327590942,       -0.5883789062,       -0.9443359375,        0.1533203125,     -159.0728759766,        4.0893554688,      -25.4211425781
1494294691.6354529858,       -0.5883789062,       -0.9443359375,        0.1533203125,     -166.8853759766,        7.4615478516,      -46.9512939453
1494294691.6381399632,       -0.4262695312,       -0.2626953125,        0.1582031250,     -166.7022705078,        7.4615478516,      -46.9512939453
1494294691.6408181190,       -0.4262695312,       -0.2626953125,        0.1582031250,     -166.7022705078,       12.7563476562,      -81.4208984375
1494294691.6433849335,       -0.4262695312,       -0.2626953125,        0.1582031250,     -166.3360595703,       12.7563476562,      -81.4208984375
1494294691.6459419727,       -0.4262695312,       -0.2626953125,        0.1582031250,     -166.3360595703,       12.7563476562,     -121.7498779297
1494294691.6484949589,       -0.3955078125,       -0.1088867188,        0.1259765625,     -151.9775390625,       16.4794921875,     -121.7498779297
1494294691.6511259079,       -0.3955078125,       -0.1088867188,        0.1259765625,     -151.9775390625,       16.4794921875,     -160.8123779297
1494294691.6536839008,       -0.3955078125,       -0.1088867188,        0.1259765625,     -128.3721923828,       19.6533203125,     -163.0706787109
1494294691.6562399864,       -0.3955078125,       -0.1088867188,        0.0009765625,     -128.3721923828,       19.6533203125,     -163.0706787109
1494294691.6587951183,       -0.4077148438,       -0.3232421875,        0.0229492188,     -105.4077148438,       24.2614746094,     -198.1964111328
1494294691.6615219116,       -0.4077148438,       -0.3232421875,        0.0229492188,     -105.4077148438,       24.2614746094,     -198.1964111328
1494294691.6642239094,       -0.4077148438,       -0.3232421875,        0.0229492188,      -89.5233154297,       31.6467285156,     -225.1892089844
1494294691.6670739651,       -0.4077148438,       -0.5708007812,       -0.0488281250,      -89.5233154297,       31.6467285156,     -225.1892089844
1494294691.6697719097,       -0.2734375000,       -0.5708007812,       -0.0488281250,      -79.1015625000,       37.3687744141,     -245.2850341797
1494294691.6724770069,       -0.2734375000,       -0.5708007812,       -0.0488281250,      -79.1015625000,       37.3687744141,     -245.2850341797
1494294691.6751759052,       -0.2734375000,       -0.5708007812,       -0.0488281250,      -73.8525390625,       38.0096435547,     -260.7269287109
1494294691.6778719425,       -0.2451171875,       -0.6245117188,       -0.0527343750,      -73.8525390625,       38.0096435547,     -260.7269287109
1494294691.6805720329,       -0.2451171875,       -0.6245117188,       -0.0527343750,      -73.8677978516,       37.4450683594,     -274.4293212891
1494294691.6831429005,       -0.2451171875,       -0.6245117188,       -0.0527343750,      -73.8677978516,       37.4450683594,     -274.4293212891
1494294691.6856980324,       -0.2451171875,       -0.6245117188,       -0.0527343750,      -74.0051269531,       37.8875732422,     -287.2009277344
1494294691.6882560253,       -0.3881835938,       -0.4790039062,       -0.0664062500,      -74.0051269531,       37.8875732422,     -287.2009277344
1494294691.6908199787,       -0.3881835938,       -0.4790039062,       -0.0664062500,      -74.2645263672,       40.9240722656,     -298.8128662109
1494294691.6935219765,       -0.3881835938,       -0.4790039062,       -0.0664062500,      -74.2645263672,       40.9240722656,     -298.8128662109
1494294691.6962211132,       -0.3881835938,       -0.4790039062,       -0.0664062500,      -71.5942382812,       43.5028076172,     -306.4575195312
1494294691.6989209652,       -0.5170898438,       -0.2719726562,       -0.1342773438,      -71.5942382812,       43.5028076172,     -306.4575195312
1494294691.7016329765,       -0.5170898438,       -0.2719726562,       -0.1342773438,      -63.4460449219,       45.4864501953,     -312.4237060547
1494294691.7043290138,       -0.5170898438,       -0.2719726562,       -0.1342773438,      -63.4460449219,       45.4864501953,     -312.4237060547
1494294691.7070291042,       -0.5170898438,       -0.2719726562,       -0.1738281250,      -54.1687011719,       47.3480224609,     -320.0225830078
1494294691.7097249031,       -0.6367187500,       -0.0874023438,       -0.1738281250,      -54.1687011719,       47.3480224609,     -320.0225830078
1494294691.7124300003,       -0.6367187500,       -0.0874023438,       -0.1738281250,      -45.4559326172,       50.6591796875,     -329.2846679688
1494294691.7151288986,       -0.6367187500,       -0.0874023438,       -0.1738281250,      -45.4559326172,       50.6591796875,     -329.2846679688
1494294691.7179250717,       -0.7495117188,        0.0468750000,       -0.2138671875,      -36.5600585938,       55.1757812500,     -339.2333984375
1494294691.7206270695,       -0.7495117188,        0.0468750000,       -0.2138671875,      -36.5600585938,       55.1757812500,     -339.2333984375
1494294691.7232429981,       -0.7495117188,        0.0468750000,       -0.2138671875,      -28.3355712891,       59.2041015625,     -347.8240966797
1494294691.7258059978,       -0.7495117188,        0.0468750000,       -0.2138671875,      -28.3355712891,       59.2041015625,     -347.8240966797
1494294691.7283699512,       -0.8403320312,        0.1259765625,       -0.2646484375,      -23.3459472656,       61.5844726562,     -356.8115234375
1494294691.7309789658,       -0.8403320312,        0.1259765625,       -0.2646484375,      -23.3459472656,       61.5844726562,     -356.8115234375
1494294691.7336759567,       -0.8403320312,        0.1259765625,       -0.2646484375,      -21.9268798828,       63.9953613281,     -364.2120361328
1494294691.7363750935,       -0.8403320312,        0.1259765625,       -0.2646484375,      -21.9268798828,       63.9953613281,     -364.2120361328
1494294691.7391920090,       -0.9658203125,        0.1250000000,       -0.2807617188,      -23.8189697266,       66.1773681641,     -370.9564208984
1494294691.7418940067,       -0.9658203125,        0.1250000000,       -0.2807617188,      -23.8189697266,       66.1773681641,     -370.9564208984
1494294691.7446000576,       -0.9658203125,        0.1250000000,       -0.2807617188,      -26.2145996094,       67.8405761719,     -379.8675537109
1494294691.7473011017,       -0.9658203125,        0.1250000000,       -0.2460937500,      -26.2145996094,       67.8405761719,     -379.8675537109
1494294691.7500069141,       -1.1113281250,        0.1411132812,       -0.2460937500,      -29.5104980469,       68.9544677734,     -387.9089355469
1494294691.7526481152,       -1.1113281250,        0.1411132812,       -0.2460937500,      -29.5104980469,       68.9544677734,     -387.9089355469
1494294691.7552130222,       -1.1113281250,        0.1411132812,       -0.2460937500,      -33.4167480469,       71.0449218750,     -395.1416015625
1494294691.7577760220,       -1.1113281250,        0.1943359375,       -0.1928710938,      -32.0892333984,       71.0449218750,     -395.1416015625
1494294691.7603359222,       -1.3100585938,        0.1943359375,       -0.1928710938,      -32.0892333984,       71.0449218750,     -402.0996093750
1494294691.7629940510,       -1.3100585938,        0.1943359375,       -0.1928710938,      -32.5622558594,       73.9288330078,     -402.0996093750
1494294691.7655580044,       -1.3100585938,        0.1943359375,       -0.1928710938,      -32.5622558594,       73.9288330078,     -407.2723388672
1494294691.7681150436,       -1.4350585938,        0.1967773438,       -0.1342773438,      -32.6690673828,       75.3479003906,     -407.2723388672
1494294691.7707929611,       -1.4116210938,        0.1967773438,       -0.1342773438,      -32.6690673828,       75.3479003906,     -411.1785888672
1494294691.7733559608,       -1.4116210938,        0.1967773438,       -0.1342773438,      -33.7829589844,       74.1119384766,     -410.5529785156
1494294691.7759160995,       -1.4116210938,        0.1967773438,       -0.1342773438,      -33.7829589844,       74.1119384766,     -410.5529785156
1494294691.7784759998,       -1.5761718750,        0.1806640625,       -0.0292968750,      -37.0178222656,       71.9757080078,     -412.5213623047
1494294691.7811191082,       -1.5761718750,        0.1806640625,       -0.0292968750,      -37.0178222656,       71.9757080078,     -412.5213623047
1494294691.7838220596,       -1.5761718750,        0.1806640625,       -0.0292968750,      -43.4875488281,       69.1680908203,     -412.4145507812
1494294691.7865281105,       -1.5761718750,        0.1806640625,       -0.0292968750,      -43.4875488281,       69.1680908203,     -412.4145507812
1494294691.7892229557,       -1.7954101562,        0.2055664062,        0.1137695312,      -54.1534423828,       65.1550292969,     -410.2325439453
1494294691.7919659615,       -1.7954101562,        0.2055664062,        0.1137695312,      -54.1534423828,       65.1550292969,     -410.2325439453
1494294691.7946600914,       -1.7954101562,        0.2055664062,        0.1137695312,      -68.7866210938,       60.0891113281,     -407.3944091797
1494294691.7973608971,       -1.7954101562,        0.2055664062,        0.2387695312,      -68.7866210938,       60.0891113281,     -407.3944091797
1494294691.8000679016,       -1.9614257812,        0.2436523438,        0.2358398438,      -85.8764648438,       54.6417236328,     -403.7933349609
1494294691.8027789593,       -1.9614257812,        0.2436523438,        0.2358398438,      -85.8764648438,       54.6417236328,     -403.7933349609
1494294691.8054769039,       -1.9614257812,        0.2436523438,        0.2358398438,     -104.4769287109,       48.1262207031,     -396.3012695312
1494294691.8081800938,       -1.9614257812,        0.3261718750,        0.4482421875,     -104.4769287109,       48.1262207031,     -396.3012695312
1494294691.8109281063,       -2.1030273438,        0.3261718750,        0.4482421875,     -125.6866455078,       39.4287109375,     -386.4593505859
1494294691.8137450218,       -2.1030273438,        0.3261718750,        0.4482421875,     -125.6866455078,       39.4287109375,     -386.4593505859
1494294691.8164460659,       -2.1030273438,        0.3261718750,        0.4482421875,     -123.8708496094,       36.7736816406,     -373.7335205078
1494294691.8191480637,       -2.3647460938,        1.0327148438,        0.3994140625,     -123.8708496094,       36.7736816406,     -373.7335205078
1494294691.8218119144,       -2.3647460938,        1.0327148438,        0.3994140625,     -105.9112548828,       57.6629638672,     -356.5979003906
1494294691.8243710995,       -2.3647460938,        1.0327148438,        0.3994140625,     -105.9112548828,       57.6629638672,     -356.5979003906
1494294691.8269290924,       -2.3647460938,        1.0327148438,        0.3994140625,     -111.2365722656,       54.0161132812,     -342.6055908203
1494294691.8294920921,       -2.1142578125,        1.5576171875,        0.1416015625,     -111.2365722656,       54.0161132812,     -342.6055908203
1494294691.8323199749,       -2.1142578125,        1.5576171875,        0.1416015625,     -125.3204345703,       45.2270507812,     -330.2459716797
1494294691.8348829746,       -2.1142578125,        1.5576171875,        0.1416015625,     -125.3204345703,       45.2270507812,     -330.2459716797
1494294691.8374459743,       -2.1142578125,        1.5576171875,        0.1416015625,     -144.2565917969,       46.1578369141,     -308.9447021484
1494294691.8400061131,       -2.0971679688,        1.5585937500,        0.2583007812,     -144.2565917969,       46.1578369141,     -308.9447021484
1494294691.8427491188,       -2.0971679688,        1.5585937500,        0.2583007812,     -173.3703613281,       50.0030517578,     -284.0270996094
1494294691.8454070091,       -2.0971679688,        1.5585937500,        0.2583007812,     -173.3703613281,       50.0030517578,     -284.0270996094
1494294691.8481619358,       -2.0971679688,        1.5585937500,        0.7714843750,     -210.5255126953,       53.3294677734,     -257.1258544922
1494294691.8509650230,       -1.6875000000,        1.4453125000,        0.7714843750,     -210.5255126953,       53.3294677734,     -257.1258544922
1494294691.8536798954,       -1.6875000000,        1.4453125000,        0.7714843750,     -244.1864013672,       50.2929687500,     -225.6317138672
1494294691.8563749790,       -1.6875000000,        1.4453125000,        0.7714843750,     -244.1864013672,       50.2929687500,     -225.6317138672
1494294691.8590700626,       -1.2133789062,        2.2026367188,        1.3046875000,     -259.4299316406,       48.0041503906,     -194.5648193359
1494294691.8617269993,       -1.2133789062,        2.2026367188,        1.3046875000,     -259.4299316406,       48.0041503906,     -194.5648193359
1494294691.8642809391,       -1.2133789062,        2.2026367188,        1.3046875000,     -251.8463134766,       42.1142578125,     -161.4379882812
1494294691.8668310642,       -1.2133789062,        2.2026367188,        1.3046875000,     -251.8463134766,       42.1142578125,     -161.4379882812
1494294691.8693799973,       -0.4975585938,        3.4721679688,        1.0693359375,     -251.8463134766,       25.4058837891,     -123.9166259766
1494294691.8720059395,       -0.4975585938,        3.4721679688,        1.0693359375,     -223.9227294922,       25.4058837891,     -123.9166259766
1494294691.8747019768,       -0.4975585938,        3.4721679688,        1.0693359375,     -223.9227294922,        5.8746337891,      -77.7130126953
1494294691.8773939610,       -0.4975585938,        3.4721679688,        1.0693359375,     -177.9937744141,        4.2724609375,      -77.7130126953
1494294691.8800859451,       -0.2758789062,        4.0039062500,        0.9873046875,     -177.9937744141,      -15.2587890625,      -25.7110595703
1494294691.8826899529,       -0.2758789062,        4.0039062500,        0.9873046875,     -123.4436035156,      -13.5955810547,      -25.7110595703
1494294691.8852429390,       -0.2758789062,        4.0039062500,        0.9873046875,     -123.4436035156,      -13.5955810547,       20.7061767578
1494294691.8879120350,       -0.2758789062,        4.0039062500,        0.9873046875,      -76.4465332031,      -26.7944335938,       20.7061767578
1494294691.8904750347,       -0.4443359375,        3.4482421875,        1.1865234375,      -76.4465332031,      -26.7944335938,       55.8624267578
1494294691.8930981159,       -0.4443359375,        3.4482421875,        1.1865234375,      -50.8422851562,      -32.2875976562,       55.0994873047
1494294691.8956539631,       -0.4443359375,        3.4482421875,        1.1865234375,      -50.8422851562,      -32.2875976562,       55.0994873047
1494294691.8982059956,       -0.4443359375,        3.4482421875,        1.1865234375,      -49.8809814453,      -26.8249511719,       89.5080566406
1494294691.9008400440,       -0.7221679688,        3.2011718750,        1.1411132812,      -49.8809814453,      -26.8249511719,       89.5080566406
1494294691.9034080505,       -0.7221679688,        3.2011718750,        1.1411132812,      -46.3409423828,      -21.2707519531,      115.7684326172
1494294691.9059650898,       -0.7221679688,        3.2011718750,        1.1411132812,      -46.3409423828,      -21.2707519531,      115.7684326172
1494294691.9085230827,       -0.7221679688,        3.2011718750,        0.8911132812,      -40.0238037109,      -25.2380371094,      138.0767822266
1494294691.9114789963,       -0.7314453125,        2.6860351562,        0.9487304688,      -40.0238037109,      -25.2380371094,      138.0767822266
1494294691.9140410423,       -0.7314453125,        2.6860351562,        0.9487304688,      -36.6973876953,      -35.0189208984,      166.3970947266
1494294691.9165990353,       -0.7314453125,        2.6860351562,        0.9487304688,      -36.6973876953,      -35.0189208984,      166.3970947266
1494294691.9191629887,       -0.7314453125,        1.7158203125,        0.9355468750,       -2.5634765625,      -57.8765869141,      178.6956787109
1494294691.9219069481,       -1.1621093750,        1.7158203125,        0.9355468750,       -2.5634765625,      -57.8765869141,      178.6956787109
1494294691.9245591164,       -1.1621093750,        1.7158203125,        0.9355468750,       22.3083496094,      -47.0275878906,      190.6585693359
1494294691.9274470806,       -1.1621093750,        1.7158203125,        0.9355468750,       22.3083496094,      -47.0275878906,      190.6585693359
1494294691.9301419258,       -1.4794921875,       -0.0917968750,       -0.4169921875,      -13.5803222656,      -19.1345214844,      164.2456054688
1494294691.9328498840,       -1.4794921875,       -0.0917968750,       -0.4169921875,      -13.5803222656,      -19.1345214844,      164.2456054688
1494294691.9355530739,       -1.4794921875,       -0.0917968750,       -0.4169921875,      -14.4042968750,        3.9520263672,      102.5695800781
1494294691.9382500648,       -1.4794921875,       -0.0917968750,       -0.4169921875,      -14.4042968750,        3.9520263672,      102.5695800781
1494294691.9409549236,       -2.2817382812,       -3.7949218750,       -1.5419921875,       73.6846923828,       11.9171142578,       77.5299072266
1494294691.9436459541,       -2.2817382812,       -3.7949218750,       -1.5419921875,       73.6846923828,       11.9171142578,       77.5299072266
1494294691.9463379383,       -2.2817382812,       -3.7949218750,       -1.5419921875,      105.4077148438,       -2.7160644531,      101.4709472656
1494294691.9490270615,       -2.2817382812,       -3.7949218750,       -0.2597656250,      105.4077148438,       -2.7160644531,      101.4709472656
1494294691.9517619610,       -2.1396484375,       -2.4492187500,       -0.2597656250,       24.5361328125,      -43.8385009766,      160.3088378906
1494294691.9544579983,       -2.1396484375,       -2.4492187500,       -0.2597656250,       24.5361328125,      -43.8385009766,      160.3088378906
1494294691.9571580887,       -2.1396484375,       -2.4492187500,       -0.2597656250,      -34.3933105469,      -98.0682373047,      300.7965087891
1494294691.9599640369,       -1.7768554688,        1.8183593750,        1.3637695312,      -34.3933105469,      -98.0682373047,      300.7965087891
1494294691.9625821114,       -1.7768554688,        1.8183593750,        1.3637695312,      -99.1363525391,     -100.9674072266,      408.4014892578
1494294691.9651401043,       -1.7768554688,        1.8183593750,        1.3637695312,      -99.1363525391,     -100.9674072266,      408.4014892578
1494294691.9676859379,       -1.7768554688,        1.8183593750,        1.3637695312,     -254.2877197266,      -72.8912353516,      382.9803466797
1494294691.9702370167,       -1.8046875000,        3.8417968750,        0.5297851562,     -254.2877197266,      -72.8912353516,      382.9803466797
1494294691.9729659557,       -1.8046875000,        3.8417968750,        0.5297851562,     -254.2877197266,      -30.9906005859,      276.7181396484
1494294691.9755220413,       -1.8046875000,        3.8417968750,        0.5297851562,     -255.1727294922,      -30.9906005859,      276.7181396484
1494294691.9780769348,       -1.8046875000,        3.8417968750,        0.5297851562,     -255.1727294922,      -58.3343505859,      191.9403076172
1494294691.9807810783,       -0.6757812500,        0.7773437500,       -0.2651367188,      -94.0856933594,      -58.5174560547,      191.9403076172
1494294691.9834818840,       -0.6757812500,        0.7773437500,       -0.2651367188,      -94.0856933594,     -105.3924560547,      176.0864257812
1494294691.9861819744,       -0.6757812500,        0.7773437500,       -0.2651367188,      -31.3415527344,     -103.0578613281,      176.0864257812
1494294691.9888811111,       -0.6757812500,        0.7773437500,       -0.2651367188,      -31.3415527344,     -103.0578613281,      178.0700683594
1494294691.9915881157,       -0.1992187500,        0.2060546875,        0.4536132812,      -40.1916503906,     -105.1788330078,      178.0700683594
1494294691.9942870140,       -0.1992187500,        0.2060546875,        0.4536132812,      -40.1916503906,      -97.3663330078,      177.8106689453
1494294691.9969899654,       -0.1992187500,        0.2060546875,        0.4536132812,      -67.9473876953,      -95.2301025391,      177.8106689453
1494294691.9996860027,       -0.1992187500,        0.9560546875,        0.7656250000,      -67.9473876953,      -95.2301025391,      169.1741943359
1494294692.0023169518,       -0.9809570312,        0.9072265625,        0.7656250000,      -75.3631591797,      -81.8786621094,      169.1741943359
1494294692.0048758984,       -0.9809570312,        0.9072265625,        0.7656250000,      -75.3631591797,      -81.8786621094,      157.4554443359
1494294692.0074369907,       -0.9809570312,        0.9072265625,        0.7656250000,      -43.5943603516,      -62.4084472656,      158.2641601562
1494294692.0099949837,       -0.9809570312,        1.4160156250,        0.2465820312,      -43.5943603516,      -62.4084472656,      158.2641601562
1494294692.0127279758,       -1.1020507812,        1.4160156250,        0.2465820312,        6.1035156250,      -52.3529052734,      141.0522460938
1494294692.0154209137,       -1.1020507812,        1.4160156250,        0.2465820312,        6.1035156250,      -52.3529052734,      141.0522460938
1494294692.0181159973,       -1.1020507812,        1.4160156250,        0.2465820312,       50.0488281250,      -56.6558837891,      111.9384765625
1494294692.0208129883,       -0.7416992188,        0.8295898438,        0.0405273438,       50.0488281250,      -56.6558837891,      111.9384765625
1494294692.0235090256,       -0.7416992188,        0.8295898438,        0.0405273438,       61.3555908203,      -66.2994384766,       79.7271728516
1494294692.0262091160,       -0.7416992188,        0.8295898438,        0.0405273438,       61.3555908203,      -66.2994384766,       79.7271728516
1494294692.0289061069,       -0.7416992188,        0.8295898438,        0.0405273438,       48.3398437500,      -68.0999755859,       59.4635009766
1494294692.0316150188,       -0.7763671875,        0.1137695312,        0.2773437500,       48.3398437500,      -68.0999755859,       59.4635009766
1494294692.0344169140,       -0.7763671875,        0.1137695312,        0.2773437500,       41.7785644531,      -62.3931884766,       55.0537109375
1494294692.0372040272,       -0.7763671875,        0.1137695312,        0.2773437500,       41.7785644531,      -62.3931884766,       55.0537109375
1494294692.0399041176,       -0.7763671875,        0.1137695312,        0.0620117188,       56.2438964844,      -56.1218261719,       57.7850341797
1494294692.0426120758,       -0.8198242188,        0.2705078125,        0.0620117188,       56.2438964844,      -56.1218261719,       57.7850341797
1494294692.0453109741,       -0.8198242188,        0.2705078125,        0.0620117188,       67.8100585938,      -52.2003173828,       54.5806884766
1494294692.0480151176,       -0.8198242188,        0.2705078125,        0.0620117188,       67.8100585938,      -52.2003173828,       54.5806884766
1494294692.0507180691,       -0.6992187500,        0.3129882812,       -0.0073242188,       68.7408447266,      -51.9714355469,       44.8608398438
1494294692.0532810688,       -0.6992187500,        0.3129882812,       -0.0073242188,       68.7408447266,      -51.9714355469,       44.8608398438
1494294692.0558400154,       -0.6992187500,        0.3129882812,       -0.0073242188,       71.4416503906,      -54.7637939453,       34.0423583984
1494294692.0583999157,       -0.6992187500,        0.3129882812,       -0.0073242188,       71.4416503906,      -54.7637939453,       34.0423583984
1494294692.0610001087,       -0.7036132812,        0.0791015625,        0.0781250000,       75.4699707031,      -54.1381835938,       27.6641845703
1494294692.0636970997,       -0.7036132812,        0.0791015625,        0.0781250000,       75.4699707031,      -54.1381835938,       27.6641845703
1494294692.0663979053,       -0.7036132812,        0.0791015625,        0.0781250000,       77.6367187500,      -51.7578125000,       27.2369384766
1494294692.0690979958,       -0.7036132812,        0.0791015625,        0.0781250000,       77.6367187500,      -51.7578125000,       27.2369384766
1494294692.0717620850,       -0.7324218750,       -0.0092773438,        0.1005859375,       76.9653320312,      -49.5452880859,       30.5175781250
1494294692.0743250847,       -0.7324218750,       -0.0092773438,        0.1005859375,       76.9653320312,      -49.5452880859,       30.5175781250
1494294692.0768840313,       -0.7324218750,       -0.0092773438,        0.1005859375,       73.5321044922,      -47.9431152344,       33.4167480469
1494294692.0794479847,       -0.7324218750,       -0.0092773438,        0.1005859375,       73.5321044922,      -47.9431152344,       33.4167480469
1494294692.0820450783,       -0.7080078125,       -0.0312500000,        0.1069335938,       63.8732910156,      -46.5087890625,       35.1562500000
1494294692.0846009254,       -0.7080078125,       -0.0312500000,        0.1069335938,       63.8732910156,      -46.5087890625,       35.1562500000
1494294692.0871570110,       -0.7080078125,       -0.0312500000,        0.1069335938,       63.8732910156,      -44.2962646484,       36.2091064453
1494294692.0897209644,       -0.7080078125,       -0.0312500000,        0.1069335938,       51.5289306641,      -44.2962646484,       36.2091064453
1494294692.0925099850,       -0.7539062500,       -0.0742187500,        0.1044921875,       51.5289306641,      -41.9006347656,       38.5742187500
1494294692.0951929092,       -0.7539062500,       -0.0742187500,        0.1044921875,       36.9415283203,      -41.9006347656,       38.5742187500
1494294692.0978639126,       -0.7539062500,       -0.0742187500,        0.1044921875,       36.9415283203,      -37.9943847656,       39.9780273438
1494294692.1005449295,       -0.7539062500,       -0.0742187500,        0.1376953125,       24.2309570312,      -38.2690429688,       39.9780273438
1494294692.1031270027,       -0.7788085938,       -0.1240234375,        0.1376953125,       24.2309570312,      -38.2690429688,       42.8466796875
1494294692.1056859493,       -0.7788085938,       -0.1240234375,        0.1376953125,       15.4418945312,      -35.1257324219,       42.8466796875
1494294692.1083478928,       -0.7788085938,       -0.1240234375,        0.1376953125,       15.4418945312,      -35.1257324219,       46.7529296875
1494294692.1110279560,       -0.7788085938,       -0.1469726562,        0.2099609375,        6.3629150391,      -31.6162109375,       46.0052490234
1494294692.1137249470,       -0.7675781250,       -0.1469726562,        0.2099609375,        6.3629150391,      -31.6162109375,       48.9349365234
1494294692.1164219379,       -0.7675781250,       -0.1469726562,        0.2099609375,       -0.6103515625,      -28.3508300781,       48.9349365234
1494294692.1191151142,       -0.7675781250,       -0.1469726562,        0.2099609375,       -0.6103515625,      -28.3508300781,       52.8411865234
1494294692.1218199730,       -0.7299804688,       -0.0698242188,        0.2871093750,       -5.1269531250,      -24.8870849609,       52.1545410156
1494294692.1245229244,       -0.7299804688,       -0.0698242188,        0.2871093750,       -5.1269531250,      -24.8870849609,       56.0607910156
1494294692.1272130013,       -0.7299804688,       -0.0698242188,        0.2871093750,       -4.3640136719,      -21.4080810547,       54.9468994141
1494294692.1299080849,       -0.7299804688,       -0.0698242188,        0.2871093750,       -4.3640136719,      -21.4080810547,       54.9468994141
1494294692.1326189041,       -0.6821289062,        0.0292968750,        0.3364257812,        1.5106201172,      -18.9361572266,       54.8858642578
1494294692.1353580952,       -0.6821289062,        0.0292968750,        0.3364257812,        1.5106201172,      -18.9361572266,       54.8858642578
1494294692.1379120350,       -0.6821289062,        0.0292968750,        0.3364257812,        8.0871582031,      -17.5628662109,       52.3986816406
1494294692.1404709816,       -0.6821289062,        0.0292968750,        0.3554687500,        8.0871582031,      -17.5628662109,       52.3986816406
1494294692.1432769299,       -0.6733398438,        0.0117187500,        0.3554687500,        9.9334716797,      -16.8457031250,       49.5758056641
1494294692.1460130215,       -0.6733398438,        0.0117187500,        0.3554687500,        9.9334716797,      -16.8457031250,       49.5758056641
1494294692.1486659050,       -0.6733398438,        0.0117187500,        0.3554687500,       10.4980468750,      -15.4876708984,       49.0264892578
1494294692.1515619755,       -0.6806640625,        0.1079101562,        0.2436523438,       10.4980468750,      -15.4876708984,       49.0264892578
1494294692.1541230679,       -0.6806640625,        0.1079101562,        0.2436523438,       11.7340087891,      -14.6484375000,       49.3927001953
1494294692.1566810608,       -0.6806640625,        0.1079101562,        0.2436523438,       11.7340087891,      -14.6484375000,       49.3927001953
1494294692.1592381001,       -0.6806640625,        0.1079101562,        0.2436523438,       21.4843750000,      -14.4348144531,       46.9055175781
1494294692.1618618965,       -0.6137695312,        0.1445312500,        0.0825195312,       21.4843750000,      -14.4348144531,       46.9055175781
1494294692.1645579338,       -0.6137695312,        0.1445312500,        0.0825195312,       31.2500000000,      -16.5557861328,       41.2445068359
1494294692.1672520638,       -0.6137695312,        0.1445312500,        0.0825195312,       31.2500000000,      -16.5557861328,       41.2445068359
1494294692.1699440479,       -0.6137695312,        0.1445312500,        0.0825195312,        0.8544921875,      -21.9573974609,       47.2106933594
1494294692.1726560593,       -0.7895507812,       -0.0415039062,        0.0483398438,        0.8544921875,      -21.9573974609,       47.2106933594
1494294692.1753480434,       -0.7895507812,       -0.0415039062,        0.0483398438,        2.3040771484,      -20.9960937500,       54.9468994141
1494294692.1780450344,       -0.7895507812,       -0.0415039062,        0.0483398438,        2.3040771484,      -20.9960937500,       54.9468994141
1494294692.1808929443,       -0.7895507812,       -0.0415039062,       -0.0991210938,        5.4626464844,      -19.5465087891,       57.8002929688
1494294692.1834468842,       -0.7348632812,        0.2241210938,       -0.0991210938,        5.4626464844,      -19.5465087891,       57.8002929688
1494294692.1860010624,       -0.7348632812,        0.2241210938,       -0.0991210938,       14.6789550781,      -21.9268798828,       57.4493408203
1494294692.1885569096,       -0.7348632812,        0.2241210938,       -0.0991210938,       14.6789550781,      -21.9268798828,       57.4493408203
1494294692.1912629604,       -0.7348632812,        0.3491210938,       -0.0029296875,       23.0102539062,      -26.7791748047,       57.0373535156
1494294692.1938219070,       -0.7851562500,        0.2729492188,       -0.0029296875,       23.0102539062,      -26.7791748047,       57.0373535156
1494294692.1963760853,       -0.7851562500,        0.2729492188,       -0.0029296875,       31.5399169922,      -29.4647216797,       54.7027587891
1494294692.1989350319,       -0.7851562500,        0.2729492188,       -0.0029296875,       31.5399169922,      -29.4647216797,       54.7027587891
1494294692.2016301155,       -0.7851562500,        0.1894531250,        0.1279296875,       43.2586669922,      -29.4799804688,       52.2155761719
1494294692.2041831017,       -0.7885742188,        0.1894531250,        0.1279296875,       45.9899902344,      -29.4799804688,       52.2155761719
1494294692.2067410946,       -0.7885742188,        0.1894531250,        0.1279296875,       45.9899902344,      -33.3862304688,       49.4537353516
1494294692.2092978954,       -0.7885742188,        0.1894531250,        0.1279296875,       60.5773925781,      -32.1960449219,       49.4537353516
1494294692.2119688988,       -0.7885742188,        0.1230468750,        0.3168945312,       60.5773925781,      -32.1960449219,       46.6003417969
1494294692.2146730423,       -0.8320312500,        0.1230468750,        0.3168945312,       70.3887939453,      -34.5916748047,       46.6003417969
1494294692.2173740864,       -0.8320312500,        0.1230468750,        0.3168945312,       70.3887939453,      -34.5916748047,       45.9289550781
1494294692.2200720310,       -0.8320312500,        0.1230468750,        0.3168945312,       81.7565917969,      -36.1480712891,       45.9289550781
1494294692.2227818966,       -0.8515625000,        0.0781250000,        0.3955078125,       81.7565917969,      -36.1480712891,       45.0134277344
1494294692.2254800797,       -0.8515625000,        0.0781250000,        0.3955078125,       94.6502685547,      -37.1093750000,       45.0134277344
1494294692.2281770706,       -0.8515625000,        0.0781250000,        0.3955078125,       94.6502685547,      -37.1093750000,       42.0837402344
1494294692.2309288979,       -0.8515625000,        0.0781250000,        0.3955078125,      106.3385009766,      -38.4674072266,       42.0837402344
1494294692.2336289883,       -0.9086914062,        0.0590820312,        0.3247070312,      106.3385009766,      -38.4674072266,       42.6025390625
1494294692.2363278866,       -0.9086914062,        0.0590820312,        0.3247070312,      115.8294677734,      -40.0543212891,       42.6025390625
1494294692.2390251160,       -0.9086914062,        0.0590820312,        0.3247070312,      115.8294677734,      -40.0543212891,       52.2918701172
1494294692.2418389320,       -0.9086914062,        0.0053710938,        0.1645507812,      122.4060058594,      -40.7867431641,       52.2918701172
1494294692.2445380688,       -0.8925781250,        0.0053710938,        0.1645507812,      122.4060058594,      -40.7867431641,       63.8122558594
1494294692.2472329140,       -0.8925781250,        0.0053710938,        0.1645507812,      128.1890869141,      -41.6259765625,       63.8122558594
1494294692.2499349117,       -0.8925781250,        0.0053710938,        0.1645507812,      128.1890869141,      -41.6259765625,       75.5767822266
1494294692.2525498867,       -1.0058593750,       -0.1323242188,        0.0776367188,      130.7830810547,      -40.8020019531,       75.5767822266
1494294692.2552180290,       -1.0058593750,       -0.1323242188,        0.0776367188,      130.7830810547,      -40.8020019531,       87.8448486328
1494294692.2578949928,       -1.0058593750,       -0.1323242188,        0.0776367188,      127.1667480469,      -35.6597900391,       87.8448486328
1494294692.2604560852,       -1.0058593750,       -0.1323242188,        0.0776367188,      127.1667480469,      -35.6597900391,      104.3395996094
1494294692.2635788918,       -1.1606445312,       -0.1855468750,       -0.0751953125,      114.5019531250,      -27.7557373047,      104.3395996094
1494294692.2662808895,       -1.1606445312,       -0.1855468750,       -0.0751953125,      114.5019531250,      -27.7557373047,      122.2229003906
1494294692.2689809799,       -1.1606445312,       -0.1855468750,       -0.0751953125,      100.5401611328,      -20.4162597656,      122.2229003906
1494294692.2716350555,       -1.1606445312,       -0.1855468750,       -0.0644531250,      100.5401611328,      -20.4162597656,      133.9416503906
1494294692.2741920948,       -1.2109375000,       -0.1601562500,       -0.0644531250,       89.0197753906,      -16.2048339844,      136.3830566406
1494294692.2767479420,       -1.2109375000,       -0.1601562500,       -0.0644531250,       89.0197753906,      -16.2048339844,      136.3830566406
1494294692.2793049812,       -1.2109375000,       -0.1601562500,       -0.0644531250,       82.4584960938,      -14.1754150391,      148.7274169922
1494294692.2822539806,       -1.2109375000,       -0.1079101562,       -0.0585937500,       82.4584960938,      -14.1754150391,      159.1796875000
1494294692.2853019238,       -1.2563476562,       -0.1079101562,       -0.0585937500,       78.3996582031,      -12.8021240234,      159.1796875000
1494294692.2880148888,       -1.2563476562,       -0.1079101562,       -0.0585937500,       78.3996582031,      -12.8021240234,      168.5333251953
1494294692.2907269001,       -1.2563476562,       -0.1079101562,       -0.0585937500,       79.3762207031,      -13.4735107422,      168.5333251953
1494294692.2932949066,       -1.3051757812,       -0.0097656250,       -0.1425781250,       79.3762207031,      -13.4735107422,      172.4395751953
1494294692.2958528996,       -1.3051757812,       -0.0097656250,       -0.1425781250,       79.0252685547,      -16.1743164062,      173.2788085938
1494294692.2984199524,       -1.3051757812,       -0.0097656250,       -0.1425781250,       79.0252685547,      -16.1743164062,      173.2788085938
1494294692.3010070324,       -1.3051757812,       -0.0097656250,       -0.1425781250,       79.1931152344,      -17.5018310547,      180.8471679688
1494294692.3035728931,       -1.4379882812,       -0.0048828125,       -0.1962890625,       79.1931152344,      -17.5018310547,      180.8471679688
1494294692.3061380386,       -1.4379882812,       -0.0048828125,       -0.1962890625,       83.0688476562,      -17.3645019531,      187.2406005859
1494294692.3086969852,       -1.4379882812,       -0.0048828125,       -0.1962890625,       83.0688476562,      -17.3645019531,      187.2406005859
1494294692.3112940788,       -1.4379882812,       -0.0048828125,       -0.1962890625,       87.0056152344,      -19.0582275391,      189.6667480469
1494294692.3139979839,       -1.4658203125,       -0.1196289062,       -0.1928710938,       87.0056152344,      -19.0582275391,      189.6667480469
1494294692.3167059422,       -1.4658203125,       -0.1196289062,       -0.1928710938,       90.3320312500,      -18.5546875000,      192.2149658203
1494294692.3194100857,       -1.4658203125,       -0.1196289062,       -0.1928710938,       90.3320312500,      -18.5546875000,      192.2149658203
1494294692.3220860958,       -1.4658203125,       -0.1196289062,       -0.1147460938,       92.9260253906,      -18.4478759766,      196.4416503906
1494294692.3246490955,       -1.5322265625,       -0.3217773438,       -0.1147460938,       92.9260253906,      -18.4478759766,      196.4416503906
1494294692.3272130489,       -1.5322265625,       -0.3217773438,       -0.1147460938,       98.0224609375,      -18.2647705078,      199.2950439453
1494294692.3298859596,       -1.5322265625,       -0.3217773438,       -0.1147460938,       98.0224609375,      -18.2647705078,      199.2950439453
1494294692.3326079845,       -1.5322265625,       -0.5683593750,       -0.0605468750,      107.0098876953,      -19.6228027344,      201.8432617188
1494294692.3351659775,       -1.5751953125,       -0.5683593750,       -0.0605468750,      107.0098876953,      -19.6228027344,      201.8432617188
1494294692.3377220631,       -1.5751953125,       -0.5683593750,       -0.0605468750,      118.7286376953,      -23.1781005859,      205.5664062500
1494294692.3402760029,       -1.5751953125,       -0.5683593750,       -0.0605468750,      120.8801269531,      -23.1781005859,      205.5664062500
1494294692.3430991173,       -1.5751953125,       -0.7841796875,       -0.0532226562,      136.5051269531,      -28.1372070312,      208.1604003906
1494294692.3457939625,       -1.6196289062,       -0.7841796875,       -0.0532226562,      135.6964111328,      -28.1372070312,      208.1604003906
1494294692.3484950066,       -1.6196289062,       -0.7841796875,       -0.0532226562,      155.2276611328,      -32.9742431641,      208.2214355469
1494294692.3511860371,       -1.6196289062,       -0.7841796875,       -0.0532226562,      152.8472900391,      -32.9742431641,      208.2214355469
1494294692.3537399769,       -1.7084960938,       -1.0400390625,        0.0092773438,      152.8472900391,      -36.8804931641,      206.0699462891
1494294692.3563048840,       -1.7084960938,       -1.0400390625,        0.0092773438,      173.4008789062,      -35.9954833984,      206.0699462891
1494294692.3588631153,       -1.7084960938,       -1.0400390625,        0.0092773438,      173.4008789062,      -35.9954833984,      203.6590576172
1494294692.3615159988,       -1.7084960938,       -1.0400390625,        0.0092773438,      185.8978271484,      -38.6657714844,      203.6590576172
1494294692.3642148972,       -1.7670898438,       -1.3491210938,        0.1723632812,      185.8978271484,      -38.6657714844,      207.9620361328
1494294692.3669130802,       -1.7670898438,       -1.3491210938,        0.1723632812,      190.5212402344,      -38.9556884766,      207.9620361328
1494294692.3696110249,       -1.7670898438,       -1.3491210938,        0.1723632812,      190.5212402344,      -38.9556884766,      220.8099365234
1494294692.3723530769,       -1.7670898438,       -1.3491210938,        0.2973632812,      190.1397705078,      -33.3862304688,      220.8099365234
1494294692.3750479221,       -1.9721679688,       -1.1889648438,        0.3037109375,      190.1397705078,      -33.3862304688,      243.8354492188
1494294692.3777480125,       -1.9721679688,       -1.1889648438,        0.3037109375,      182.3120117188,      -28.2745361328,      243.8354492188
1494294692.3804450035,       -1.9721679688,       -1.1889648438,        0.3037109375,      182.3120117188,      -28.2745361328,      276.9927978516
1494294692.3831961155,       -1.9721679688,       -0.1645507812,        0.1420898438,      174.0112304688,      -13.6718750000,      276.9927978516
1494294692.3858919144,       -2.2260742188,       -0.1645507812,        0.1420898438,      174.0112304688,      -13.6718750000,      288.1317138672
1494294692.3885850906,       -2.2260742188,       -0.1645507812,        0.1420898438,      179.1992187500,       -0.1831054688,      288.1317138672
1494294692.3912959099,       -2.2260742188,       -0.1645507812,        0.1420898438,      179.1992187500,       -0.1831054688,      261.4440917969
1494294692.3939909935,       -2.0214843750,        0.1225585938,        0.6240234375,      169.2352294922,      -11.9018554688,      261.4440917969
1494294692.3967308998,       -2.0214843750,        0.1225585938,        0.6240234375,      169.2352294922,      -11.9018554688,      231.0028076172
1494294692.3994998932,       -2.0214843750,        0.1225585938,        0.6240234375,      115.5395507812,      -31.7535400391,      231.0028076172
1494294692.4022479057,       -2.0214843750,        0.1225585938,        0.6240234375,      115.5395507812,      -31.7535400391,      223.1903076172
1494294692.4048089981,       -1.9897460938,       -0.5556640625,        1.1601562500,       44.4030761719,      -38.2385253906,      223.5107421875
1494294692.4073669910,       -1.9897460938,       -0.5556640625,        1.1601562500,       44.4030761719,      -38.2385253906,      223.5107421875
1494294692.4099259377,       -1.9897460938,       -0.5556640625,        1.1601562500,       -2.3040771484,      -25.5432128906,      224.9450683594
1494294692.4126110077,       -1.9897460938,       -0.5556640625,        1.1601562500,       -2.3040771484,      -25.5432128906,      224.9450683594
1494294692.4153039455,       -1.8437500000,       -0.8383789062,        1.1342773438,      -15.8386230469,       -9.5214843750,      219.8638916016
1494294692.4179980755,       -1.8437500000,       -0.8383789062,        1.1342773438,      -15.8386230469,       -9.5214843750,      219.8638916016
1494294692.4207019806,       -1.8437500000,       -0.8383789062,        1.1342773438,      -13.7634277344,        0.6713867188,      208.7402343750
1494294692.4233970642,       -1.8437500000,       -0.6914062500,        0.4306640625,      -13.7634277344,        0.6713867188,      208.7402343750
1494294692.4260969162,       -1.7246093750,       -0.6914062500,        0.4306640625,       -3.8604736328,       18.7530517578,      193.2983398438
1494294692.4287860394,       -1.7246093750,       -0.6914062500,        0.4306640625,       -3.8604736328,       18.7530517578,      193.2983398438
1494294692.4314460754,       -1.7246093750,       -0.6914062500,        0.4306640625,        2.9754638672,       14.6179199219,      165.6188964844
1494294692.4340019226,       -0.7836914062,       -0.3676757812,        0.3784179688,        2.9754638672,       14.6179199219,      165.6188964844
1494294692.4365580082,       -0.7836914062,       -0.3676757812,        0.3784179688,      -42.6788330078,      -16.4337158203,      131.1798095703
1494294692.4391191006,       -0.7836914062,       -0.3676757812,        0.3784179688,      -42.6788330078,      -16.4337158203,      131.1798095703
1494294692.4418139458,       -0.7836914062,       -0.3676757812,        0.3784179688,     -109.8480224609,      -27.3437500000,       97.7935791016
1494294692.4443740845,       -1.1689453125,       -0.3920898438,        0.5283203125,     -109.8480224609,      -27.3437500000,       97.7935791016
1494294692.4469389915,       -1.1689453125,       -0.3920898438,        0.5283203125,     -157.6843261719,       -5.3253173828,       42.7856445312
1494294692.4494950771,       -1.1689453125,       -0.3920898438,        0.5283203125,     -157.6843261719,       -5.3253173828,       42.7856445312
1494294692.4522080421,       -1.1689453125,       -0.3920898438,        0.5283203125,     -153.6560058594,       14.5263671875,      -20.9350585938
1494294692.4547700882,       -1.3583984375,       -1.0449218750,        0.0131835938,     -153.6560058594,       14.5263671875,      -20.9350585938
1494294692.4573309422,       -1.3583984375,       -1.0449218750,        0.0131835938,     -153.6560058594,        7.5988769531,      -57.6629638672
1494294692.4598870277,       -1.3583984375,       -1.0449218750,        0.0131835938,     -114.1357421875,        7.5988769531,      -57.6629638672
1494294692.4625780582,       -1.3583984375,       -1.0449218750,        0.0131835938,     -114.1357421875,        2.8686523438,      -68.3135986328
1494294692.4652750492,       -0.5761718750,       -1.0478515625,        0.0112304688,      -89.6301269531,        2.8686523438,      -68.3135986328
1494294692.4679679871,       -0.5761718750,       -1.0478515625,        0.0112304688,      -89.6301269531,        2.8686523438,      -68.8781738281
1494294692.4706730843,       -0.5761718750,       -1.0478515625,        0.0112304688,      -88.6077880859,        2.9144287109,      -68.8781738281
1494294692.4733710289,       -0.5761718750,       -1.0478515625,        0.0083007812,      -88.6077880859,       10.7269287109,      -74.9053955078
1494294692.4761779308,       -0.2954101562,       -0.7177734375,        0.0083007812,      -95.8557128906,        7.9040527344,      -74.9053955078
1494294692.4788789749,       -0.2954101562,       -0.7177734375,        0.0083007812,      -95.8557128906,       15.7165527344,      -91.0186767578
1494294692.4815940857,       -0.2954101562,       -0.7177734375,        0.0083007812,      -97.5494384766,       16.5100097656,      -91.0186767578
1494294692.4842851162,       -0.2304687500,       -0.4086914062,        0.0092773438,      -97.5494384766,       24.3225097656,     -116.5161132812
1494294692.4869840145,       -0.2304687500,       -0.4086914062,        0.0092773438,      -97.5952148438,       24.3530273438,     -116.5161132812
1494294692.4896850586,       -0.2304687500,       -0.4086914062,        0.0092773438,      -97.5952148438,       28.2592773438,     -146.5759277344
1494294692.4925329685,       -0.2304687500,       -0.4086914062,        0.0092773438,      -94.6655273438,       30.5480957031,     -146.5759277344
1494294692.4950950146,       -0.3256835938,       -0.3710937500,       -0.0156250000,      -94.6655273438,       30.5480957031,     -177.4597167969
1494294692.4976580143,       -0.3256835938,       -0.3710937500,       -0.0156250000,      -87.9669189453,       35.7666015625,     -177.4597167969
1494294692.5002160072,       -0.3256835938,       -0.3710937500,       -0.0156250000,      -87.9669189453,       35.7666015625,     -205.8715820312
1494294692.5028469563,       -0.3256835938,       -0.3710937500,       -0.0156250000,      -81.0089111328,       42.8314208984,     -205.8715820312
1494294692.5054059029,       -0.3872070312,       -0.4375000000,       -0.0170898438,      -81.0089111328,       42.8314208984,     -205.8715820312
1494294692.5080640316,       -0.3872070312,       -0.4375000000,       -0.0170898438,      -75.1190185547,       49.7436523438,     -227.1881103516
1494294692.5109019279,       -0.3872070312,       -0.4375000000,       -0.0170898438,      -75.1190185547,       49.7436523438,     -242.8131103516
1494294692.5136079788,       -0.3872070312,       -0.4375000000,       -0.0078125000,      -74.3713378906,       55.7098388672,     -243.2250976562
1494294692.5163080692,       -0.3588867188,       -0.4458007812,       -0.0078125000,      -74.3713378906,       55.7098388672,     -254.9438476562
1494294692.5190160275,       -0.3588867188,       -0.4458007812,       -0.0078125000,      -76.8127441406,       60.9588623047,     -256.0272216797
1494294692.5217609406,       -0.3588867188,       -0.4458007812,       -0.0078125000,      -76.8127441406,       60.9588623047,     -267.7459716797
1494294692.5244679451,       -0.4838867188,       -0.3798828125,       -0.0166015625,      -77.4841308594,       64.6514892578,     -268.7072753906
1494294692.5271670818,       -0.4072265625,       -0.3798828125,       -0.0166015625,      -77.4841308594,       64.6514892578,     -268.7072753906
1494294692.5298600197,       -0.4072265625,       -0.3798828125,       -0.0166015625,      -77.3010253906,       66.9860839844,     -279.2053222656
1494294692.5325748920,       -0.4072265625,       -0.3798828125,       -0.0166015625,      -77.3010253906,       66.9860839844,     -279.2053222656
1494294692.5352749825,       -0.5375976562,       -0.2407226562,        0.0058593750,      -76.6601562500,       68.1457519531,     -287.8112792969
1494294692.5379760265,       -0.5375976562,       -0.2407226562,        0.0058593750,      -76.6601562500,       68.1457519531,     -287.8112792969
1494294692.5406899452,       -0.5375976562,       -0.2407226562,        0.0058593750,      -77.1789550781,       69.3054199219,     -295.2880859375
1494294692.5432510376,       -0.5375976562,       -0.2407226562,        0.0058593750,      -77.1789550781,       69.3054199219,     -295.2880859375
1494294692.5458130836,       -0.6186523438,       -0.1137695312,        0.0605468750,      -74.2034912109,       70.9686279297,     -301.9714355469
1494294692.5483760834,       -0.6186523438,       -0.1137695312,        0.0605468750,      -74.2034912109,       70.9686279297,     -301.9714355469
1494294692.5510890484,       -0.6186523438,       -0.1137695312,        0.0605468750,      -70.1141357422,       72.6776123047,     -309.7534179688
1494294692.5536561012,       -0.6186523438,       -0.1137695312,        0.0605468750,      -70.1141357422,       72.6776123047,     -309.7534179688
1494294692.5562160015,       -0.6728515625,       -0.0419921875,        0.0957031250,      -65.4449462891,       75.3479003906,     -319.5037841797
1494294692.5587749481,       -0.6728515625,       -0.0419921875,        0.0957031250,      -65.4449462891,       75.3479003906,     -319.5037841797
1494294692.5614860058,       -0.6728515625,       -0.0419921875,        0.0957031250,      -60.8673095703,       76.9500732422,     -329.2999267578
1494294692.5640459061,       -0.6728515625,       -0.0419921875,        0.0957031250,      -60.8673095703,       76.9500732422,     -329.2999267578
1494294692.5666029453,       -0.7656250000,       -0.0166015625,        0.0805664062,      -57.4340820312,       78.0334472656,     -339.4927978516
1494294692.5691609383,       -0.7656250000,       -0.0166015625,        0.0805664062,      -57.4340820312,       78.0334472656,     -339.4927978516
1494294692.5718979836,       -0.7656250000,       -0.0166015625,        0.0805664062,      -53.4210205078,       77.4536132812,     -348.0072021484
1494294692.5746030807,       -0.7656250000,        0.0322265625,        0.0253906250,      -53.4210205078,       77.4536132812,     -348.0072021484
1494294692.5773029327,       -0.8857421875,        0.0322265625,        0.0253906250,      -51.5747070312,       76.1108398438,     -354.2327880859
1494294692.5799980164,       -0.8857421875,        0.0322265625,        0.0253906250,      -51.5747070312,       76.1108398438,     -354.2327880859
1494294692.5827059746,       -0.8857421875,        0.0322265625,        0.0253906250,      -52.5512695312,       73.9135742188,     -359.3902587891
1494294692.5854101181,       -0.9892578125,        0.1040039062,        0.0185546875,      -52.5512695312,       73.9135742188,     -359.3902587891
1494294692.5881121159,       -0.9892578125,        0.1040039062,        0.0185546875,      -54.5196533203,       70.7855224609,     -365.1123046875
1494294692.5908129215,       -0.9892578125,        0.1040039062,        0.0185546875,      -54.5196533203,       70.7855224609,     -365.1123046875
1494294692.5933730602,       -0.9892578125,        0.1040039062,        0.0185546875,      -54.5196533203,       68.5729980469,     -371.5362548828
1494294692.5959379673,       -1.1376953125,        0.1650390625,        0.0434570312,      -55.2215576172,       68.5729980469,     -371.5362548828
1494294692.5984950066,       -1.1376953125,        0.1650390625,        0.0434570312,      -55.2215576172,       68.5729980469,     -377.7770996094
1494294692.6010780334,       -1.1376953125,        0.1650390625,        0.0434570312,      -53.8177490234,       66.8945312500,     -377.7770996094
1494294692.6037840843,       -1.1376953125,        0.1650390625,        0.0434570312,      -53.8177490234,       66.8945312500,     -384.6282958984
1494294692.6064810753,       -1.2182617188,        0.1567382812,        0.0415039062,      -52.9632568359,       64.0716552734,     -384.6282958984
1494294692.6091868877,       -1.2182617188,        0.1567382812,        0.0415039062,      -52.9632568359,       64.0716552734,     -391.0827636719
1494294692.6118841171,       -1.2182617188,        0.1567382812,        0.0415039062,      -52.3681640625,       61.2182617188,     -391.0827636719
1494294692.6145830154,       -1.2182617188,        0.1567382812,        0.0639648438,      -52.3681640625,       61.2182617188,     -396.6064453125
1494294692.6172850132,       -1.3364257812,        0.0903320312,        0.0639648438,      -53.5278320312,       57.2052001953,     -396.6064453125
1494294692.6199851036,       -1.3364257812,        0.0903320312,        0.0639648438,      -53.5278320312,       57.2052001953,     -398.6663818359
1494294692.6228029728,       -1.3364257812,        0.0903320312,        0.0639648438,      -60.9436035156,       51.5441894531,     -398.6663818359
1494294692.6255071163,       -1.5239257812,        0.1030273438,        0.1621093750,      -60.9436035156,       51.5441894531,     -397.7508544922
1494294692.6282620430,       -1.5239257812,        0.1030273438,        0.1621093750,      -70.2209472656,       45.4864501953,     -397.7508544922
1494294692.6313419342,       -1.5239257812,        0.1030273438,        0.1621093750,      -70.2209472656,       41.4276123047,     -395.2636718750
1494294692.6340489388,       -1.5239257812,        0.1030273438,        0.1621093750,      -75.8361816406,       41.4276123047,     -395.2636718750
1494294692.6367530823,       -1.7875976562,        0.3911132812,        0.2822265625,      -75.8361816406,       42.7093505859,     -392.1051025391
1494294692.6394510269,       -1.7875976562,        0.3911132812,        0.2822265625,      -74.3255615234,       42.7093505859,     -392.1051025391
1494294692.6420850754,       -1.7875976562,        0.3911132812,        0.2822265625,      -74.3255615234,       46.6156005859,     -389.8162841797
1494294692.6446480751,       -1.7875976562,        0.3911132812,        0.2822265625,      -71.0449218750,       45.0134277344,     -389.8162841797
1494294692.6472139359,       -1.8955078125,        0.7500000000,        0.2670898438,      -71.0449218750,       45.0134277344,     -389.8162841797
1494294692.6497750282,       -1.8955078125,        0.7500000000,        0.2670898438,      -68.7255859375,       42.4041748047,     -387.0086669922
1494294692.6524519920,       -1.8955078125,        0.7500000000,        0.2670898438,      -68.7255859375,       42.4041748047,     -383.1024169922
1494294692.6551530361,       -1.8955078125,        1.0000000000,        0.4008789062,      -67.1691894531,       38.2232666016,     -382.9498291016
1494294692.6578569412,       -2.0239257812,        1.0693359375,        0.4008789062,      -67.1691894531,       38.2232666016,     -375.1373291016
1494294692.6605560780,       -2.0239257812,        1.0693359375,        0.4008789062,      -69.2901611328,       35.9191894531,     -377.4414062500
1494294692.6631340981,       -2.0239257812,        1.0693359375,        0.4008789062,      -69.2901611328,       35.9191894531,     -377.4414062500
1494294692.6656949520,       -2.0239257812,        1.1450195312,        0.4096679688,      -76.0650634766,       36.3922119141,     -369.9188232422
1494294692.6682510376,       -2.1069335938,        1.1450195312,        0.4096679688,      -76.0650634766,       36.3922119141,     -369.9188232422
1494294692.6708030701,       -2.1069335938,        1.1450195312,        0.4096679688,      -85.8001708984,       38.9709472656,     -356.3079833984
1494294692.6733639240,       -2.1069335938,        1.1450195312,        0.4096679688,      -85.8001708984,       38.9709472656,     -356.3079833984
1494294692.6759281158,       -2.0820312500,        1.1523437500,        0.3281250000,      -96.8170166016,       43.1823730469,     -335.0830078125
1494294692.6784911156,       -2.0820312500,        1.1523437500,        0.3281250000,      -96.8170166016,       43.1823730469,     -335.0830078125
1494294692.6811571121,       -2.0820312500,        1.1523437500,        0.3281250000,     -107.7728271484,       47.3785400391,     -306.9763183594
1494294692.6837270260,       -2.0820312500,        1.1523437500,        0.3281250000,     -107.7728271484,       47.3785400391,     -306.9763183594
1494294692.6862900257,       -1.8852539062,        1.5820312500,        0.4702148438,     -122.4060058594,       48.4619140625,     -276.0772705078
1494294692.6888530254,       -1.8852539062,        1.5820312500,        0.4702148438,     -122.4060058594,       48.4619140625,     -276.0772705078
1494294692.6915218830,       -1.8852539062,        1.5820312500,        0.4702148438,     -138.0310058594,       44.5098876953,     -245.7885742188
1494294692.6940829754,       -1.8852539062,        1.5820312500,        0.4702148438,     -138.1072998047,       44.5098876953,     -245.7885742188
1494294692.6967558861,       -1.4238281250,        2.3393554688,        1.0229492188,     -138.1072998047,       38.8488769531,     -217.0104980469
1494294692.6993129253,       -1.4238281250,        2.3393554688,        1.0229492188,     -143.2037353516,       38.8488769531,     -217.0104980469
1494294692.7020919323,       -1.4238281250,        2.3393554688,        1.0229492188,     -143.2037353516,       34.0728759766,     -186.0504150391
1494294692.7047939301,       -1.4238281250,        2.3393554688,        1.0229492188,     -133.5449218750,       34.0728759766,     -186.0504150391
1494294692.7074899673,       -0.7500000000,        3.3203125000,        1.0195312500,     -133.5449218750,       18.4478759766,     -150.4364013672
1494294692.7101891041,       -0.7500000000,        3.3203125000,        1.0195312500,     -115.5242919922,       16.4794921875,     -150.4364013672
1494294692.7128911018,       -0.7500000000,        3.3203125000,        1.0195312500,     -115.5242919922,       -3.0517578125,     -115.4022216797
1494294692.7155849934,       -0.7500000000,        3.3203125000,        0.7763671875,      -82.9162597656,       -0.3814697266,     -115.4022216797
1494294692.7182829380,       -0.3769531250,        3.8862304688,        0.7763671875,      -82.9162597656,      -16.0064697266,      -66.5435791016
1494294692.7209870815,       -0.3769531250,        3.8862304688,        0.7763671875,      -44.7845458984,      -17.6849365234,      -66.5435791016
1494294692.7235410213,       -0.3769531250,        3.8862304688,        0.7763671875,      -44.7845458984,      -17.6849365234,       -2.3803710938
1494294692.7260980606,       -0.3769531250,        3.5776367188,        0.7500000000,      -19.2260742188,      -27.0690917969,       -2.3803710938
1494294692.7286560535,       -0.4819335938,        3.5776367188,        0.7500000000,      -19.2260742188,      -27.0690917969,       44.4946289062
1494294692.7314150333,       -0.4819335938,        3.5776367188,        0.7500000000,      -12.6495361328,      -31.6925048828,       45.9899902344
1494294692.7339770794,       -0.4819335938,        3.5776367188,        0.7500000000,      -12.6495361328,      -31.6925048828,       45.9899902344
1494294692.7365419865,       -0.8901367188,        3.3784179688,        0.9638671875,      -11.8713378906,      -28.7017822266,       85.3576660156
1494294692.7390990257,       -0.8901367188,        3.3784179688,        0.9638671875,      -11.8713378906,      -28.7017822266,       85.3576660156
1494294692.7417230606,       -0.8901367188,        3.3784179688,        0.9638671875,      -12.6495361328,      -16.2353515625,      117.7368164062
1494294692.7442820072,       -0.8901367188,        3.3784179688,        0.9638671875,      -12.6495361328,      -16.2353515625,      117.7368164062
1494294692.7470800877,       -1.1533203125,        2.4536132812,        1.0161132812,       -6.0272216797,      -27.3895263672,      132.4157714844
1494294692.7496340275,       -1.1533203125,        2.4536132812,        1.0161132812,       -6.0272216797,      -27.3895263672,      132.4157714844
1494294692.7525880337,       -1.1533203125,        2.4536132812,        1.0161132812,        4.5166015625,      -41.3665771484,      167.4652099609
1494294692.7552869320,       -1.1533203125,        2.4536132812,        1.0161132812,        4.5166015625,      -41.3665771484,      167.4652099609
1494294692.7579770088,       -0.9887695312,        1.9809570312,        0.9580078125,       -7.3394775391,      -35.9191894531,      205.4901123047
1494294692.7606849670,       -0.9887695312,        1.9809570312,        0.9580078125,       -7.3394775391,      -35.9191894531,      205.4901123047
1494294692.7633879185,       -0.9887695312,        1.9809570312,        0.9580078125,      -11.0168457031,      -27.6031494141,      183.6090087891
1494294692.7660839558,       -0.9887695312,       -1.2690429688,       -1.1479492188,      -11.0168457031,      -27.6031494141,      183.6090087891
1494294692.7687780857,       -1.9458007812,       -1.3413085938,       -1.1479492188,        9.0484619141,        2.8076171875,      125.5187988281
1494294692.7715859413,       -1.9458007812,       -1.3413085938,       -1.1479492188,        9.0484619141,        2.8076171875,      125.5187988281
1494294692.7742769718,       -1.9458007812,       -1.3413085938,       -1.1479492188,       93.5058593750,       -2.1820068359,       85.2508544922
1494294692.7769699097,       -2.5283203125,       -3.5302734375,       -1.0146484375,       93.5058593750,       -2.1820068359,       85.2508544922
1494294692.7796640396,       -2.5283203125,       -3.5302734375,       -1.0146484375,      109.1003417969,       -8.8348388672,      103.7750244141
1494294692.7822890282,       -2.5283203125,       -3.5302734375,       -1.0146484375,      109.1003417969,       -8.8348388672,      103.7750244141
1494294692.7848479748,       -2.5283203125,       -3.5302734375,       -1.0146484375,       62.6373291016,      -37.8875732422,      176.3305664062
1494294692.7874000072,       -2.0283203125,       -0.6606445312,        0.3725585938,       62.6373291016,      -37.8875732422,      176.3305664062
1494294692.7899630070,       -2.0283203125,       -0.6606445312,        0.3725585938,       -0.1831054688,      -74.5086669922,      329.3304443359
1494294692.7925310135,       -2.0283203125,       -0.6606445312,        0.3725585938,       -0.1831054688,      -74.5086669922,      329.3304443359
1494294692.7950870991,       -2.0283203125,       -0.6606445312,        0.3725585938,     -150.2227783203,      -76.7364501953,      425.9643554688
1494294692.7976450920,       -1.4428710938,        3.8681640625,        1.1450195312,     -150.2227783203,      -76.7364501953,      425.9643554688
1494294692.8002030849,       -1.4428710938,        3.8681640625,        1.1450195312,     -290.8477783203,      -53.4515380859,      360.1989746094
1494294692.8028600216,       -1.4428710938,        3.8681640625,        1.1450195312,     -292.6025390625,      -53.4515380859,      360.1989746094
1494294692.8054220676,       -1.4428710938,        3.8681640625,        1.1450195312,     -292.6025390625,      -33.9202880859,      251.6326904297
1494294692.8079810143,       -1.3662109375,        1.9692382812,       -0.3686523438,     -190.1245117188,      -32.9895019531,      251.6326904297
1494294692.8105430603,       -1.3662109375,        1.9692382812,       -0.3686523438,     -190.1245117188,      -32.9895019531,      203.9337158203
1494294692.8134009838,       -1.3662109375,        1.9692382812,       -0.3686523438,      -46.4019775391,      -57.6934814453,      203.9337158203
1494294692.8161020279,       -1.3662109375,        1.9692382812,        0.2563476562,      -46.4019775391,      -57.6934814453,      189.0716552734
1494294692.8188068867,       -0.4208984375,        0.2084960938,        0.2929687500,      -29.0679931641,      -89.3859863281,      189.0716552734
1494294692.8215560913,       -0.4208984375,        0.2084960938,        0.2929687500,      -29.0679931641,      -89.3859863281,      185.0433349609
1494294692.8242549896,       -0.4208984375,        0.2084960938,        0.2929687500,      -49.2401123047,      -92.5598144531,      185.0433349609
1494294692.8269619942,       -0.4208984375,        0.3974609375,        0.9794921875,      -49.2401123047,      -92.5598144531,      185.8825683594
1494294692.8296620846,       -0.7163085938,        0.3974609375,        0.9794921875,      -86.5173339844,      -83.1451416016,      185.8825683594
1494294692.8323769569,       -0.7163085938,        0.3974609375,        0.9794921875,      -86.5173339844,      -83.1451416016,      179.9316406250
1494294692.8350870609,       -0.7163085938,        0.3974609375,        0.9794921875,     -104.0039062500,      -66.3909912109,      179.9316406250
1494294692.8377840519,       -1.0527343750,        1.1464843750,        0.3139648438,     -104.0039062500,      -66.3909912109,      167.4957275391
1494294692.8404879570,       -1.0527343750,        1.1464843750,        0.3139648438,      -69.0460205078,      -46.5393066406,      167.4957275391
1494294692.8431720734,       -1.0527343750,        1.1464843750,        0.3139648438,      -69.0460205078,      -46.5393066406,      144.0582275391
1494294692.8457329273,       -1.0527343750,        1.1464843750,        0.3139648438,       -7.7514648438,      -46.7224121094,      142.6849365234
1494294692.8482940197,       -0.6503906250,        1.4130859375,       -0.2519531250,       -7.7514648438,      -46.7224121094,      142.6849365234
1494294692.8509368896,       -0.6503906250,        1.4130859375,       -0.2519531250,       34.6221923828,      -55.5114746094,      107.6354980469
1494294692.8536369801,       -0.6503906250,        1.4130859375,       -0.2519531250,       34.6221923828,      -55.5114746094,      107.6354980469
1494294692.8563370705,       -0.6503906250,        1.4130859375,       -0.2519531250,       43.1976318359,      -58.6853027344,       73.1658935547
1494294692.8590269089,       -0.7841796875,        0.6435546875,        0.0473632812,       43.1976318359,      -58.6853027344,       73.1658935547
1494294692.8617699146,       -0.7841796875,        0.6435546875,        0.0473632812,       41.3360595703,      -61.9354248047,       49.8657226562
1494294692.8644690514,       -0.7841796875,        0.6435546875,        0.0473632812,       41.3360595703,      -61.9354248047,       49.8657226562
1494294692.8672139645,       -0.7841796875,        0.0913085938,        0.1689453125,       50.6439208984,      -61.6149902344,       39.5965576172
1494294692.8699109554,       -0.7851562500,        0.0913085938,        0.1689453125,       50.6439208984,      -61.6149902344,       39.5965576172
1494294692.8727478981,       -0.7851562500,        0.0913085938,        0.1689453125,       69.5800781250,      -58.8378906250,       35.5224609375
1494294692.8772621155,       -0.7851562500,        0.1420898438,        0.0605468750,       85.2966308594,      -56.7016601562,       30.8837890625
1494294692.8807721138,       -0.7451171875,        0.1420898438,        0.0605468750,       85.2966308594,      -56.7016601562,       23.0712890625
1494294692.8844740391,       -0.7451171875,        0.1420898438,        0.0605468750,       89.1265869141,      -53.8330078125,       16.9067382812
1494294692.8899350166,       -0.7583007812,        0.1533203125,        0.0400390625,       85.0372314453,      -51.7578125000,       16.9067382812
1494294692.8935739994,       -0.7583007812,        0.1533203125,        0.0400390625,       80.9478759766,      -50.9338378906,       14.0838623047
1494294692.8968069553,       -0.7583007812,        0.1533203125,        0.0400390625,       80.9478759766,      -50.9338378906,       14.0838623047
1494294692.8994319439,       -0.7958984375,       -0.0195312500,        0.0654296875,       78.8269042969,      -50.1556396484,       16.1590576172
1494294692.9021029472,       -0.7958984375,       -0.0195312500,        0.0654296875,       78.8269042969,      -50.1556396484,       16.1590576172
1494294692.9046568871,       -0.7958984375,       -0.0195312500,        0.0654296875,       74.3255615234,      -47.5006103516,       20.3857421875
1494294692.9072160721,       -0.7958984375,       -0.0195312500,        0.1445312500,       74.3255615234,      -47.5006103516,       20.3857421875
1494294692.9097709656,       -0.7729492188,        0.0053710938,        0.1445312500,       65.1855468750,      -44.6472167969,       25.4669189453
1494294692.9123649597,       -0.7729492188,        0.0053710938,        0.1445312500,       65.1855468750,      -44.6472167969,       25.4669189453
1494294692.9149229527,       -0.7729492188,        0.0053710938,        0.1445312500,       53.4057617188,      -41.1224365234,       29.6173095703
1494294692.9174849987,       -0.7729492188,        0.0053710938,        0.1977539062,       53.4057617188,      -41.1224365234,       29.6173095703
1494294692.9200379848,       -0.7460937500,        0.0498046875,        0.1977539062,       42.8771972656,      -37.0635986328,       33.1573486328
1494294692.9227979183,       -0.7460937500,        0.0498046875,        0.1977539062,       42.8771972656,      -37.0635986328,       33.1573486328
1494294692.9254949093,       -0.7460937500,        0.0498046875,        0.1977539062,       35.0646972656,      -32.5622558594,       36.0717773438
1494294692.9280519485,       -0.7460937500,       -0.0971679688,        0.1938476562,       34.2102050781,      -32.5622558594,       36.0717773438
1494294692.9306058884,       -0.7382812500,       -0.0971679688,        0.1938476562,       34.2102050781,      -28.6560058594,       39.4897460938
1494294692.9332540035,       -0.7382812500,       -0.0971679688,        0.1938476562,       24.9938964844,      -28.4118652344,       39.4897460938
1494294692.9358110428,       -0.7382812500,       -0.0971679688,        0.1938476562,       24.9938964844,      -28.4118652344,       42.8619384766
1494294692.9383630753,       -0.7192382812,       -0.2167968750,        0.2124023438,       12.6342773438,      -26.2603759766,       42.8619384766
1494294692.9409921169,       -0.7192382812,       -0.2167968750,        0.2124023438,       12.6342773438,      -26.2603759766,       46.7681884766
1494294692.9436910152,       -0.7192382812,       -0.2167968750,        0.2124023438,        3.7078857422,      -24.8260498047,       46.2951660156
1494294692.9463810921,       -0.7192382812,       -0.2167968750,        0.2124023438,        3.7078857422,      -24.8260498047,       50.2014160156
1494294692.9490780830,       -0.7309570312,       -0.1093750000,        0.3066406250,        4.2572021484,      -21.7742919922,       50.0030517578
1494294692.9517850876,       -0.7309570312,       -0.1093750000,        0.3066406250,        4.2572021484,      -21.7742919922,       50.0030517578
1494294692.9544808865,       -0.7309570312,       -0.1093750000,        0.3066406250,       11.3067626953,      -18.5852050781,       49.9877929688
1494294692.9571819305,       -0.7309570312,       -0.1093750000,        0.3066406250,       11.3067626953,      -18.5852050781,       49.9877929688
1494294692.9598801136,       -0.6953125000,        0.0463867188,        0.4179687500,       19.8516845703,      -15.5487060547,       46.9055175781
1494294692.9625918865,       -0.6953125000,        0.0463867188,        0.4179687500,       19.8516845703,      -15.5487060547,       46.9055175781
1494294692.9652869701,       -0.6953125000,        0.0463867188,        0.4179687500,       27.7099609375,      -13.9007568359,       42.7551269531
1494294692.9679830074,       -0.6953125000,       -0.0585937500,        0.4423828125,       27.7099609375,      -13.9007568359,       42.7551269531
1494294692.9706900120,       -0.6430664062,       -0.0585937500,        0.4423828125,       34.8968505859,      -13.4429931641,       40.7714843750
1494294692.9733929634,       -0.6430664062,       -0.0585937500,        0.4423828125,       34.8968505859,      -13.4429931641,       40.7714843750
1494294692.9760921001,       -0.6430664062,       -0.0585937500,        0.4423828125,       40.1306152344,      -12.5579833984,       40.8630371094
1494294692.9787909985,       -0.6826171875,       -0.0517578125,        0.3403320312,       40.1306152344,      -12.5579833984,       40.8630371094
1494294692.9814739227,       -0.6826171875,       -0.0517578125,        0.3403320312,       44.2810058594,      -11.6577148438,       42.6177978516
1494294692.9840331078,       -0.6826171875,       -0.0517578125,        0.3403320312,       44.2810058594,      -11.6577148438,       42.6177978516
1494294692.9865911007,       -0.6826171875,       -0.0517578125,        0.3403320312,       47.2869873047,      -11.6271972656,       45.4864501953
1494294692.9894139767,       -0.6645507812,       -0.0751953125,        0.1948242188,       47.2869873047,      -11.6271972656,       45.4864501953
1494294692.9922339916,       -0.6645507812,       -0.0751953125,        0.1948242188,       45.5474853516,      -12.5885009766,       49.6215820312
1494294692.9949378967,       -0.6645507812,       -0.0751953125,        0.1948242188,       45.5474853516,      -12.5885009766,       49.6215820312
1494294692.9976370335,       -0.6645507812,       -0.0751953125,        0.0698242188,       40.6188964844,      -13.4582519531,       55.3283691406
1494294693.0004510880,       -0.6982421875,       -0.0781250000,        0.0952148438,       40.6188964844,      -13.4582519531,       55.3283691406
1494294693.0031659603,       -0.6982421875,       -0.0781250000,        0.0952148438,       35.1562500000,      -13.4277343750,       62.0880126953
1494294693.0058660507,       -0.6982421875,       -0.0781250000,        0.0952148438,       35.1562500000,      -13.4277343750,       62.0880126953
1494294693.0085630417,       -0.6982421875,       -0.0297851562,        0.0048828125,       30.7617187500,      -14.4500732422,       69.3969726562
1494294693.0112559795,       -0.7309570312,       -0.0297851562,        0.0048828125,       30.7617187500,      -14.4500732422,       69.3969726562
1494294693.0138111115,       -0.7309570312,       -0.0297851562,        0.0048828125,       28.3966064453,      -14.9993896484,       75.6225585938
1494294693.0163679123,       -0.7309570312,       -0.0297851562,        0.0048828125,       28.3966064453,      -14.9993896484,       75.6225585938
1494294693.0189259052,       -0.7705078125,        0.0415039062,        0.0156250000,       29.2816162109,      -16.2200927734,       79.8034667969
1494294693.0215399265,       -0.7705078125,        0.0415039062,        0.0156250000,       29.2816162109,      -16.2200927734,       79.8034667969
1494294693.0241010189,       -0.7705078125,        0.0415039062,        0.0156250000,       34.3780517578,      -16.7846679688,       82.2296142578
1494294693.0266630650,       -0.7705078125,        0.0415039062,        0.0156250000,       34.3780517578,      -16.7846679688,       82.2296142578
1494294693.0292210579,       -0.7934570312,        0.1884765625,        0.1459960938,       38.2690429688,      -17.3339843750,       84.1827392578
1494294693.0317840576,       -0.7934570312,        0.1884765625,        0.1459960938,       38.2690429688,      -17.3339843750,       84.1827392578
1494294693.0343449116,       -0.7934570312,        0.1884765625,        0.1459960938,       46.0815429688,      -18.6309814453,       83.4960937500
1494294693.0369019508,       -0.7934570312,        0.1884765625,        0.1459960938,       43.7927246094,      -18.6309814453,       83.4960937500
1494294693.0394558907,       -0.8515625000,        0.1826171875,        0.1572265625,       43.7927246094,      -22.5372314453,       82.0465087891
1494294693.0420660973,       -0.8515625000,        0.1826171875,        0.1572265625,       53.0395507812,      -19.9279785156,       82.0465087891
1494294693.0446240902,       -0.8515625000,        0.1826171875,        0.1572265625,       53.0395507812,      -19.9279785156,       80.9631347656
1494294693.0471820831,       -0.8515625000,        0.1826171875,        0.1572265625,       61.1419677734,      -22.6440429688,       80.9631347656
1494294693.0497360229,       -0.8691406250,        0.1513671875,        0.1450195312,       61.1419677734,      -22.6440429688,       80.9631347656
1494294693.0525069237,       -0.8691406250,        0.1513671875,        0.1450195312,       66.5130615234,      -26.8707275391,       79.1625976562
1494294693.0552060604,       -0.8691406250,        0.1513671875,        0.1450195312,       66.5130615234,      -26.8707275391,       79.1625976562
1494294693.0579009056,       -0.8691406250,        0.1513671875,        0.1450195312,       75.5920410156,      -29.0832519531,       79.3304443359
1494294693.0606009960,       -0.9458007812,        0.1010742188,        0.1474609375,       75.5920410156,      -29.0832519531,       79.3304443359
1494294693.0632979870,       -0.9458007812,        0.1010742188,        0.1474609375,       85.8459472656,      -29.0985107422,       80.0170898438
1494294693.0659921169,       -0.9458007812,        0.1010742188,        0.1474609375,       85.8459472656,      -29.0985107422,       80.0170898438
1494294693.0686879158,       -0.9458007812,        0.1010742188,        0.1582031250,       93.8110351562,      -30.6091308594,       82.0159912109
1494294693.0715079308,       -1.0258789062,        0.0224609375,        0.1582031250,       93.8110351562,      -30.6091308594,       89.8284912109
1494294693.0742089748,       -1.0258789062,        0.0224609375,        0.1582031250,       95.8709716797,      -31.3720703125,       86.1816406250
1494294693.0769090652,       -1.0258789062,        0.0224609375,        0.1582031250,       95.8709716797,      -31.3720703125,       86.1816406250
1494294693.0796070099,       -1.0571289062,       -0.0917968750,        0.0263671875,       94.2230224609,      -30.9906005859,       93.9178466797
1494294693.0822710991,       -1.0571289062,       -0.0917968750,        0.0263671875,       94.2230224609,      -30.9906005859,       93.9178466797
1494294693.0848309994,       -1.0571289062,       -0.0917968750,        0.0263671875,       93.5668945312,      -31.8298339844,      105.9417724609
1494294693.0873858929,       -1.0571289062,       -0.0917968750,        0.0263671875,       93.5668945312,      -31.8298339844,      105.9417724609
1494294693.0899419785,       -1.0732421875,       -0.0449218750,       -0.0644531250,       92.0562744141,      -32.3486328125,      117.2637939453
1494294693.0926349163,       -1.0732421875,       -0.0449218750,       -0.0644531250,       92.0562744141,      -32.3486328125,      117.2637939453
1494294693.0953190327,       -1.0732421875,       -0.0449218750,       -0.0644531250,       90.5609130859,      -30.7769775391,      126.7395019531
1494294693.0980029106,       -1.0732421875,       -0.0449218750,       -0.0644531250,       90.5609130859,      -30.7769775391,      126.7395019531
1494294693.1006989479,       -1.1689453125,       -0.0043945312,       -0.0961914062,       85.9985351562,      -27.4810791016,      137.0239257812
1494294693.1033599377,       -1.1689453125,       -0.0043945312,       -0.0961914062,       85.9985351562,      -27.4810791016,      137.0239257812
1494294693.1060121059,       -1.1689453125,       -0.0043945312,       -0.0961914062,       80.4138183594,      -25.8483886719,      147.9644775391
1494294693.1088290215,       -1.1689453125,       -0.0043945312,       -0.1928710938,       80.4138183594,      -25.8483886719,      147.9644775391
1494294693.1120080948,       -1.2070312500,       -0.0029296875,       -0.1928710938,       76.3549804688,      -24.3835449219,      157.7758789062
1494294693.1147110462,       -1.2070312500,       -0.0029296875,       -0.1928710938,       76.3549804688,      -24.3835449219,      157.7758789062
1494294693.1174130440,       -1.2070312500,       -0.0029296875,       -0.1928710938,       74.2492675781,      -23.4527587891,      166.2292480469
1494294693.1201128960,       -1.2856445312,       -0.0507812500,       -0.1840820312,       74.2492675781,      -23.4527587891,      166.2292480469
1494294693.1228210926,       -1.2856445312,       -0.0507812500,       -0.1840820312,       73.2116699219,      -22.7661132812,      175.3997802734
1494294693.1255159378,       -1.2856445312,       -0.0507812500,       -0.1840820312,       73.2116699219,      -22.7661132812,      175.3997802734
1494294693.1282169819,       -1.2856445312,       -0.0507812500,       -0.1840820312,       71.0296630859,      -23.0102539062,      182.1594238281
1494294693.1309540272,       -1.3837890625,       -0.0854492188,       -0.1503906250,       71.0296630859,      -23.0102539062,      182.1594238281
1494294693.1335170269,       -1.3837890625,       -0.0854492188,       -0.1503906250,       70.3887939453,      -24.6124267578,      187.8662109375
1494294693.1360778809,       -1.3837890625,       -0.0854492188,       -0.1503906250,       70.3887939453,      -24.6124267578,      187.8662109375
1494294693.1386339664,       -1.3837890625,       -0.0854492188,       -0.1503906250,       73.9593505859,      -26.4892578125,      194.8547363281
1494294693.1412019730,       -1.4467773438,       -0.2241210938,       -0.1074218750,       73.9593505859,      -26.4892578125,      194.8547363281
1494294693.1437640190,       -1.4467773438,       -0.2241210938,       -0.1074218750,       78.7048339844,      -28.3813476562,      198.6999511719
1494294693.1464309692,       -1.4467773438,       -0.2241210938,       -0.1074218750,       78.7048339844,      -28.3813476562,      198.6999511719
1494294693.1489980221,       -1.4467773438,       -0.2241210938,       -0.1074218750,       83.6029052734,      -30.2581787109,      204.2083740234
1494294693.1515669823,       -1.5224609375,       -0.3481445312,       -0.1196289062,       83.6029052734,      -30.2581787109,      204.2083740234
1494294693.1541259289,       -1.5224609375,       -0.3481445312,       -0.1196289062,       91.4154052734,      -31.3873291016,      207.7941894531
1494294693.1566851139,       -1.5224609375,       -0.3481445312,       -0.1196289062,       93.4448242188,      -31.3873291016,      207.7941894531
1494294693.1592450142,       -1.5224609375,       -0.3481445312,       -0.1044921875,       93.4448242188,      -31.3873291016,      209.4421386719
1494294693.1619350910,       -1.5449218750,       -0.5332031250,       -0.1044921875,      110.1837158203,      -33.9508056641,      209.4421386719
1494294693.1644940376,       -1.5449218750,       -0.5332031250,       -0.1044921875,      110.1837158203,      -33.9508056641,      210.8001708984
1494294693.1670539379,       -1.5449218750,       -0.5332031250,       -0.1044921875,      132.2937011719,      -36.9415283203,      210.8001708984
1494294693.1696081161,       -1.5449218750,       -0.7832031250,       -0.0913085938,      132.2937011719,      -36.9415283203,      214.7064208984
1494294693.1723349094,       -1.5576171875,       -0.7724609375,       -0.0913085938,      156.3720703125,      -43.9605712891,      211.3342285156
1494294693.1750359535,       -1.5576171875,       -0.7724609375,       -0.0913085938,      156.3720703125,      -43.9605712891,      211.3342285156
1494294693.1777369976,       -1.5576171875,       -0.7724609375,       -0.0913085938,      172.6379394531,      -54.4281005859,      211.7919921875
1494294693.1804358959,       -1.6010742188,       -1.1215820312,        0.0073242188,      172.6379394531,      -54.4281005859,      211.7919921875
1494294693.1830470562,       -1.6010742188,       -1.1215820312,        0.0073242188,      196.4111328125,      -57.4951171875,      211.9903564453
1494294693.1856019497,       -1.6010742188,       -1.1215820312,        0.0073242188,      196.4111328125,      -57.4951171875,      211.9903564453
1494294693.1881580353,       -1.6010742188,       -1.1215820312,        0.0073242188,      215.2709960938,      -55.3131103516,      218.1243896484
1494294693.1907019615,       -1.7602539062,       -1.0971679688,       -0.0107421875,      215.2709960938,      -55.3131103516,      218.1243896484
1494294693.1933848858,       -1.7602539062,       -1.0971679688,       -0.0107421875,      216.3391113281,      -50.8422851562,      222.8851318359
1494294693.1960699558,       -1.7602539062,       -1.0971679688,       -0.0107421875,      216.3391113281,      -50.8422851562,      222.8851318359
1494294693.1987531185,       -1.7602539062,       -1.0971679688,       -0.0107421875,      216.2475585938,      -48.7060546875,      224.0600585938
1494294693.2014229298,       -2.0966796875,       -0.9897460938,        0.0576171875,      216.2475585938,      -48.7060546875,      224.0600585938
1494294693.2039799690,       -2.0966796875,       -0.9897460938,        0.0576171875,      219.6655273438,      -33.6761474609,      235.8245849609
1494294693.2065420151,       -2.0966796875,       -0.9897460938,        0.0576171875,      219.6655273438,      -33.6761474609,      235.8245849609
1494294693.2091031075,       -2.0966796875,       -0.9897460938,        0.0576171875,      235.2294921875,      -13.0462646484,      256.0424804688
1494294693.2118239403,       -2.3271484375,       -0.1420898438,        0.0307617188,      235.2294921875,      -13.0462646484,      256.0424804688
1494294693.2145180702,       -2.3271484375,       -0.1420898438,        0.0307617188,      238.5253906250,       -7.4157714844,      251.0070800781
1494294693.2172069550,       -2.3271484375,       -0.1420898438,        0.0307617188,      238.5253906250,       -7.4157714844,      251.0070800781
1494294693.2200078964,       -2.3271484375,       -0.0170898438,        0.7294921875,      194.8242187500,      -21.0723876953,      225.7232666016
1494294693.2226529121,       -2.1284179688,       -0.0390625000,        0.7294921875,      194.8242187500,      -21.0723876953,      225.7232666016
1494294693.2252049446,       -2.1284179688,       -0.0390625000,        0.7294921875,      108.1542968750,      -37.3535156250,      211.5936279297
1494294693.2278749943,       -2.1284179688,       -0.0390625000,        0.7294921875,      108.1542968750,      -37.3535156250,      211.5936279297
1494294693.2304339409,       -2.0034179688,       -0.3056640625,        1.3369140625,       29.3121337891,      -31.0058593750,      213.7756347656
1494294693.2335629463,       -2.0078125000,       -0.3056640625,        1.3369140625,       29.3121337891,      -31.0058593750,      213.7756347656
1494294693.2362599373,       -2.0078125000,       -0.3056640625,        1.3369140625,       -9.8571777344,       -8.3923339844,      212.4328613281
1494294693.2389490604,       -2.0078125000,       -0.3056640625,        1.3369140625,       -9.8571777344,       -8.3923339844,      212.4328613281
1494294693.2416510582,       -1.8725585938,       -0.4721679688,        1.2075195312,      -25.0549316406,        3.2806396484,      202.4536132812
1494294693.2443420887,       -1.8725585938,       -0.4721679688,        1.2075195312,      -25.0549316406,        3.2806396484,      202.4536132812
1494294693.2470340729,       -1.8725585938,       -0.4721679688,        1.2075195312,      -24.9023437500,       16.1437988281,      196.1212158203
1494294693.2497320175,       -1.8725585938,       -0.4721679688,        0.4575195312,      -24.9023437500,       16.1437988281,      196.1212158203
1494294693.2524359226,       -1.6577148438,       -0.2773437500,        0.4990234375,       10.1928710938,       32.9589843750,      182.8002929688
1494294693.2551310062,       -1.6577148438,       -0.2773437500,        0.4990234375,       10.1928710938,       32.9589843750,      182.8002929688
1494294693.2578279972,       -1.6577148438,       -0.2773437500,        0.4990234375,       23.9257812500,       22.0031738281,      149.2156982422
1494294693.2605249882,       -1.6577148438,        0.0180664062,        0.5434570312,       23.9257812500,       22.0031738281,      149.2156982422
1494294693.2631039619,       -0.5258789062,        0.0180664062,        0.5434570312,      -15.1367187500,        9.5977783203,      120.3765869141
1494294693.2656569481,       -0.5258789062,        0.0180664062,        0.5434570312,      -15.5181884766,        9.5977783203,      120.3765869141
1494294693.2682120800,       -0.5258789062,        0.0180664062,        0.5434570312,      -15.5181884766,        1.7852783203,       89.3707275391
1494294693.2707619667,       -0.5258789062,       -0.4814453125,        0.3203125000,      -78.0944824219,        1.5563964844,       89.3707275391
1494294693.2733230591,       -1.5649414062,       -0.4814453125,        0.3203125000,      -78.0944824219,        1.5563964844,       26.4587402344
1494294693.2758750916,       -1.5649414062,       -0.4814453125,        0.3203125000,     -125.4882812500,       27.1759033203,       26.4587402344
1494294693.2784309387,       -1.5649414062,       -0.4814453125,        0.3203125000,     -125.4882812500,       27.1759033203,       26.4587402344
1494294693.2810940742,       -1.3149414062,       -1.4521484375,        0.0639648438,     -113.4796142578,       37.5061035156,      -35.3088378906
1494294693.2836620808,       -1.2832031250,       -1.4521484375,        0.0639648438,     -113.4796142578,       37.5061035156,      -35.3088378906
1494294693.2862169743,       -1.2832031250,       -1.4521484375,        0.0639648438,      -80.3375244141,       29.2053222656,      -50.8728027344
1494294693.2887740135,       -1.2832031250,       -1.4521484375,        0.0639648438,      -80.3375244141,       29.2053222656,      -50.8728027344
1494294693.2916049957,       -0.4497070312,       -1.4013671875,        0.1044921875,      -87.7685546875,       28.7628173828,      -42.3126220703
1494294693.2943089008,       -0.4497070312,       -1.4013671875,        0.1044921875,      -87.7685546875,       28.7628173828,      -42.3126220703
1494294693.2970089912,       -0.4497070312,       -1.4013671875,        0.1044921875,     -115.6005859375,       29.7088623047,      -37.6281738281
1494294693.2997059822,       -0.4497070312,       -1.4013671875,        0.1044921875,     -115.6005859375,       29.7088623047,      -37.6281738281
1494294693.3023331165,       -0.2465820312,       -0.6928710938,        0.1279296875,     -139.8315429688,       33.2336425781,      -46.2493896484
1494294693.3048911095,       -0.2465820312,       -0.6928710938,        0.1279296875,     -139.8315429688,       33.2336425781,      -46.2493896484
1494294693.3074519634,       -0.2465820312,       -0.6928710938,        0.1279296875,     -155.2734375000,       41.8701171875,      -66.8334960938
1494294693.3100159168,       -0.2465820312,       -0.6928710938,        0.1279296875,     -155.2734375000,       41.8701171875,      -66.8334960938
1494294693.3126919270,       -0.1777343750,       -0.2304687500,        0.1313476562,     -162.8265380859,       50.4608154297,      -97.5952148438
1494294693.3153920174,       -0.1777343750,       -0.2304687500,        0.1313476562,     -162.8265380859,       50.4608154297,      -97.5952148438
1494294693.3180921078,       -0.1777343750,       -0.2304687500,        0.1313476562,     -160.5987548828,       59.8754882812,     -133.9569091797
1494294693.3207950592,       -0.1777343750,       -0.2304687500,        0.0756835938,     -160.5987548828,       59.8754882812,     -133.9569091797
1494294693.3233540058,       -0.2495117188,       -0.1997070312,        0.0756835938,     -145.9808349609,       68.8323974609,     -169.3878173828
1494294693.3259150982,       -0.2495117188,       -0.1997070312,        0.0756835938,     -145.9808349609,       68.8323974609,     -169.3878173828
1494294693.3284740448,       -0.2495117188,       -0.1997070312,        0.0756835938,     -125.4577636719,       74.6307373047,     -199.2034912109
1494294693.3311340809,       -0.2495117188,       -0.2778320312,        0.0468750000,     -125.4577636719,       74.6307373047,     -199.2034912109
1494294693.3337059021,       -0.3110351562,       -0.2778320312,        0.0468750000,     -109.8327636719,       82.1075439453,     -221.0235595703
1494294693.3362650871,       -0.3110351562,       -0.2778320312,        0.0468750000,     -111.4654541016,       82.1075439453,     -221.0235595703
1494294693.3388259411,       -0.3110351562,       -0.2778320312,        0.0468750000,     -111.4654541016,       86.0137939453,     -237.7777099609
1494294693.3416268826,       -0.3110351562,       -0.3134765625,        0.0278320312,     -103.5766601562,       87.5549316406,     -237.7777099609
1494294693.3442890644,       -0.2822265625,       -0.3134765625,        0.0278320312,     -103.5766601562,       91.4611816406,     -253.7384033203
1494294693.3471848965,       -0.2822265625,       -0.3134765625,        0.0278320312,      -97.2442626953,       90.1947021484,     -253.7384033203
1494294693.3498790264,       -0.2822265625,       -0.3134765625,        0.0278320312,      -91.7053222656,       91.5679931641,     -268.5394287109
1494294693.3529100418,       -0.2915039062,       -0.2670898438,        0.0258789062,      -91.7053222656,       91.5679931641,     -268.5394287109
1494294693.3554720879,       -0.2915039062,       -0.2670898438,        0.0258789062,      -87.7990722656,       91.9036865234,     -280.7312011719
1494294693.3580319881,       -0.2915039062,       -0.2670898438,        0.0258789062,      -88.8214111328,       91.9036865234,     -280.7312011719
1494294693.3605840206,       -0.2915039062,       -0.2670898438,        0.0258789062,      -88.8214111328,       91.9036865234,     -288.4674072266
1494294693.3632938862,       -0.3911132812,       -0.1508789062,        0.0532226562,      -86.9445800781,       93.4295654297,     -288.4674072266
1494294693.3661038876,       -0.3911132812,       -0.1508789062,        0.0532226562,      -86.9445800781,       97.3358154297,     -294.5098876953
1494294693.3688058853,       -0.3911132812,       -0.1508789062,        0.0532226562,      -83.4808349609,       96.0693359375,     -294.5098876953
1494294693.3715519905,       -0.3911132812,       -0.0429687500,        0.0581054688,      -83.4808349609,       99.9755859375,     -301.8493652344
1494294693.3742520809,       -0.5327148438,       -0.0429687500,        0.0581054688,      -80.1849365234,       99.0753173828,     -301.8493652344
1494294693.3769481182,       -0.5327148438,       -0.0429687500,        0.0581054688,      -80.1849365234,      102.9815673828,     -313.3392333984
1494294693.3796479702,       -0.5327148438,       -0.0429687500,        0.0581054688,      -80.4138183594,      102.1118164062,     -313.3392333984
1494294693.3822700977,       -0.6640625000,       -0.0434570312,        0.0703125000,      -80.4138183594,      102.1118164062,     -325.1495361328
1494294693.3848249912,       -0.6640625000,       -0.0434570312,        0.0703125000,      -79.2236328125,      105.8044433594,     -325.1495361328
1494294693.3873810768,       -0.6640625000,       -0.0434570312,        0.0703125000,      -79.2236328125,      105.8044433594,     -332.9620361328
1494294693.3899350166,       -0.6640625000,       -0.0434570312,        0.0703125000,      -77.7282714844,      109.7259521484,     -334.2590332031
1494294693.3925149441,       -0.7236328125,       -0.0522460938,        0.0776367188,      -77.7282714844,      109.7259521484,     -334.2590332031
1494294693.3950729370,       -0.7236328125,       -0.0522460938,        0.0776367188,      -78.3538818359,      111.0382080078,     -341.9494628906
1494294693.3976318836,       -0.7236328125,       -0.0522460938,        0.0776367188,      -78.3538818359,      111.0382080078,     -341.9494628906
1494294693.4001901150,       -0.7236328125,       -0.0522460938,        0.0776367188,      -78.4149169922,      110.9008789062,     -348.7243652344
1494294693.4029040337,       -0.8789062500,        0.0126953125,        0.1132812500,      -78.4149169922,      110.9008789062,     -348.7243652344
1494294693.4054660797,       -0.8789062500,        0.0126953125,        0.1132812500,      -77.0874023438,      111.8621826172,     -355.9417724609
1494294693.4080259800,       -0.8789062500,        0.0126953125,        0.1132812500,      -77.0874023438,      111.8621826172,     -355.9417724609
1494294693.4105839729,       -0.8789062500,        0.0126953125,        0.1132812500,      -75.2258300781,      112.7319335938,     -362.7319335938
1494294693.4133780003,       -1.0239257812,        0.0937500000,        0.1372070312,      -75.2258300781,      112.7319335938,     -362.7319335938
1494294693.4160790443,       -1.0239257812,        0.0937500000,        0.1372070312,      -75.6378173828,      111.1755371094,     -369.4763183594
1494294693.4187800884,       -1.0239257812,        0.0937500000,        0.1372070312,      -75.6378173828,      111.1755371094,     -369.4763183594
1494294693.4214808941,       -1.0239257812,        0.0937500000,        0.1401367188,      -74.5544433594,      107.5286865234,     -374.6185302734
1494294693.4241819382,       -1.0859375000,        0.1708984375,        0.1401367188,      -74.5544433594,      107.5286865234,     -374.6185302734
1494294693.4268760681,       -1.0859375000,        0.1708984375,        0.1401367188,      -70.2667236328,      103.3172607422,     -379.5013427734
1494294693.4295740128,       -1.0859375000,        0.1708984375,        0.1401367188,      -70.2667236328,      103.3172607422,     -379.5013427734
1494294693.4322741032,       -1.2109375000,        0.2646484375,        0.1298828125,      -63.4307861328,       98.7091064453,     -384.2468261719
1494294693.4350059032,       -1.1860351562,        0.2646484375,        0.1298828125,      -63.4307861328,       98.7091064453,     -384.2468261719
1494294693.4377191067,       -1.1860351562,        0.2646484375,        0.1298828125,      -54.3670654297,       93.6889648438,     -389.7552490234
1494294693.4405369759,       -1.1860351562,        0.2646484375,        0.1298828125,      -54.3670654297,       93.6889648438,     -389.7552490234
1494294693.4431149960,       -1.3291015625,        0.3315429688,        0.1591796875,      -44.5556640625,       87.0513916016,     -396.3928222656
1494294693.4456760883,       -1.3291015625,        0.3315429688,        0.1591796875,      -44.5556640625,       87.0513916016,     -396.3928222656
1494294693.4482278824,       -1.3291015625,        0.3315429688,        0.1591796875,      -36.8499755859,       80.1544189453,     -402.4658203125
1494294693.4508969784,       -1.3291015625,        0.3315429688,        0.1591796875,      -36.8499755859,       80.1544189453,     -402.4658203125
1494294693.4534709454,       -1.4921875000,        0.3618164062,        0.2504882812,      -29.0374755859,       73.2421875000,     -407.2723388672
1494294693.4560298920,       -1.4921875000,        0.3618164062,        0.2504882812,      -31.0974121094,       73.2421875000,     -407.2723388672
1494294693.4585831165,       -1.4921875000,        0.3618164062,        0.2504882812,      -31.0974121094,       65.4296875000,     -410.5072021484
1494294693.4612181187,       -1.4921875000,        0.3618164062,        0.2504882812,      -28.5339355469,       64.2700195312,     -410.5072021484
1494294693.4639201164,       -1.6440429688,        0.3793945312,        0.3881835938,      -28.5339355469,       56.4575195312,     -412.3077392578
1494294693.4666628838,       -1.6440429688,        0.3793945312,        0.3881835938,      -30.4718017578,       55.7556152344,     -412.3077392578
1494294693.4695041180,       -1.6440429688,        0.3793945312,        0.3881835938,      -30.4718017578,       47.4548339844,     -411.8347167969
1494294693.4726200104,       -1.7690429688,        0.5166015625,        0.6210937500,      -37.6739501953,       47.4548339844,     -411.8347167969
1494294693.4753129482,       -1.7656250000,        0.5166015625,        0.6210937500,      -37.6739501953,       34.8663330078,     -406.4636230469
1494294693.4780170918,       -1.7656250000,        0.5166015625,        0.6210937500,      -37.7960205078,       34.8663330078,     -406.4636230469
1494294693.4807229042,       -1.7656250000,        0.5166015625,        0.6210937500,      -14.3585205078,       43.4875488281,     -397.6898193359
1494294693.4834229946,       -1.9365234375,        1.1464843750,        0.3784179688,      -13.5345458984,       43.4875488281,     -397.6898193359
1494294693.4861199856,       -1.9365234375,        1.1464843750,        0.3784179688,        2.0904541016,       45.6390380859,     -391.9982910156
1494294693.4888141155,       -1.9365234375,        1.1464843750,        0.3784179688,        0.2899169922,       45.6390380859,     -391.9982910156
1494294693.4915568829,       -1.9365234375,        1.1464843750,        0.3784179688,        4.1961669922,       34.2712402344,     -387.4206542969
1494294693.4942469597,       -1.7910156250,        1.2402343750,        0.2255859375,        5.2642822266,       34.2712402344,     -387.4206542969
1494294693.4969360828,       -1.7910156250,        1.2402343750,        0.2255859375,        5.2642822266,       30.7769775391,     -369.7509765625
1494294693.4996318817,       -1.7910156250,        1.2402343750,        0.2255859375,        4.5623779297,       30.7769775391,     -369.7509765625
1494294693.5022859573,       -1.7910156250,        1.2402343750,        0.2270507812,        4.5623779297,       30.4870605469,     -345.4284667969
1494294693.5048429966,       -1.8994140625,        1.1040039062,        0.2270507812,       -7.5378417969,       30.4870605469,     -345.4284667969
1494294693.5074000359,       -1.8994140625,        1.1040039062,        0.2270507812,       -7.5378417969,       30.4870605469,     -317.1997070312
1494294693.5099549294,       -1.8994140625,        1.1040039062,        0.2270507812,      -26.3366699219,       34.1491699219,     -317.1997070312
1494294693.5126240253,       -1.8994140625,        1.2290039062,        0.4184570312,      -26.3366699219,       34.1491699219,     -285.9497070312
1494294693.5151851177,       -1.9531250000,        1.2421875000,        0.4184570312,      -50.1251220703,       38.3148193359,     -286.2396240234
1494294693.5177431107,       -1.9531250000,        1.2421875000,        0.4184570312,      -50.1251220703,       38.3148193359,     -286.2396240234
1494294693.5203030109,       -1.9531250000,        1.2421875000,        0.4184570312,      -76.3397216797,       39.5812988281,     -254.1351318359
1494294693.5230031013,       -1.9531250000,        1.8647460938,        0.9506835938,      -76.3397216797,       39.5812988281,     -254.1351318359
1494294693.5255589485,       -1.6445312500,        1.8647460938,        0.9506835938,      -95.3826904297,       38.7420654297,     -223.0224609375
1494294693.5281150341,       -1.6445312500,        1.8647460938,        0.9506835938,      -95.3826904297,       38.7420654297,     -223.0224609375
1494294693.5307900906,       -1.6445312500,        1.8647460938,        0.9506835938,     -100.1434326172,       38.9404296875,     -190.0939941406
1494294693.5334930420,       -0.8447265625,        2.6689453125,        1.0878906250,     -100.1434326172,       38.9404296875,     -190.0939941406
1494294693.5361928940,       -0.8447265625,        2.6689453125,        1.0878906250,      -89.2333984375,       22.9492187500,     -154.0069580078
1494294693.5388898849,       -0.8447265625,        2.6689453125,        1.0878906250,      -89.2333984375,       22.9492187500,     -154.0069580078
1494294693.5415949821,       -0.8447265625,        2.6689453125,        1.0878906250,      -68.9086914062,        4.2266845703,     -116.3787841797
1494294693.5442819595,       -0.4208984375,        3.3730468750,        0.8823242188,      -68.9086914062,        4.2266845703,     -116.3787841797
1494294693.5469739437,       -0.4208984375,        3.3730468750,        0.8823242188,      -36.4990234375,      -13.1225585938,      -75.8666992188
1494294693.5496730804,       -0.4208984375,        3.3730468750,        0.8823242188,      -36.4990234375,      -13.1225585938,      -75.8666992188
1494294693.5522949696,       -0.4208984375,        3.3730468750,        0.8823242188,       -6.6375732422,      -27.0385742188,      -32.8216552734
1494294693.5548470020,       -0.5224609375,        3.3217773438,        0.6962890625,       -6.6375732422,      -27.0385742188,      -32.8216552734
1494294693.5573980808,       -0.5224609375,        3.3217773438,        0.6962890625,        7.0495605469,      -35.4919433594,       14.2211914062
1494294693.5599510670,       -0.5224609375,        3.3217773438,        0.6962890625,        7.0495605469,      -35.4919433594,       14.2211914062
1494294693.5626299381,       -0.5224609375,        3.3217773438,        0.7988281250,       13.7939453125,      -38.7725830078,       52.9632568359
1494294693.5653250217,       -0.7207031250,        3.0166015625,        0.7988281250,       13.7939453125,      -38.7725830078,       52.9632568359
1494294693.5680210590,       -0.7207031250,        3.0166015625,        0.7988281250,        7.3547363281,      -33.2794189453,       77.7435302734
1494294693.5707230568,       -0.7207031250,        3.0166015625,        0.7988281250,        7.3547363281,      -33.2794189453,       77.7435302734
1494294693.5734219551,       -0.7207031250,        2.6289062500,        0.7670898438,        0.3967285156,      -25.4364013672,      101.6998291016
1494294693.5761170387,       -0.8671875000,        2.6289062500,        0.7670898438,        0.3967285156,      -25.4364013672,      101.6998291016
1494294693.5788099766,       -0.8671875000,        2.6289062500,        0.7670898438,       -6.6680908203,      -26.5808105469,      127.1667480469
1494294693.5815560818,       -0.8671875000,        2.6289062500,        0.7670898438,       -6.6680908203,      -26.5808105469,      127.1667480469
1494294693.5842549801,       -1.1093750000,        1.8408203125,        0.7382812500,        7.1868896484,      -51.8035888672,      145.5383300781
1494294693.5873079300,       -1.1093750000,        1.8408203125,        0.7382812500,        7.1868896484,      -51.8035888672,      145.5383300781
1494294693.5899870396,       -1.1093750000,        1.8408203125,        0.7382812500,       14.8315429688,      -53.7872314453,      173.0194091797
1494294693.5928909779,       -1.1093750000,        1.8408203125,        0.2880859375,       14.8315429688,      -53.7872314453,      173.0194091797
1494294693.5955920219,       -1.2553710938,        1.0947265625,        0.2880859375,      -19.4244384766,      -36.2854003906,      186.3708496094
1494294693.5982921124,       -1.2553710938,        1.0947265625,        0.2880859375,      -19.4244384766,      -36.2854003906,      186.3708496094
1494294693.6009950638,       -1.2553710938,        1.0947265625,        0.2880859375,      -66.9250488281,      -22.2473144531,      157.5775146484
1494294693.6035559177,       -1.2553710938,       -2.1484375000,       -1.5585937500,      -66.9250488281,      -22.2473144531,      157.5775146484
1494294693.6061151028,       -1.9941406250,       -2.1484375000,       -1.5585937500,      -42.2058105469,       -1.0223388672,      111.1755371094
1494294693.6086640358,       -1.9941406250,       -2.1484375000,       -1.5585937500,      -42.2058105469,       -1.0223388672,      111.1755371094
1494294693.6112530231,       -1.9941406250,       -2.1484375000,       -1.5585937500,       63.2629394531,       -1.4953613281,       85.8459472656
1494294693.6139490604,       -2.3691406250,       -3.3789062500,       -0.8686523438,       65.1245117188,       -1.4953613281,       85.8459472656
1494294693.6166410446,       -2.3715820312,       -3.3789062500,       -0.8686523438,       65.1245117188,        1.3732910156,      122.9248046875
1494294693.6193380356,       -2.3715820312,       -3.3789062500,       -0.8686523438,       64.4836425781,        1.3732910156,      122.9248046875
1494294693.6219849586,       -2.3715820312,       -3.3789062500,       -0.8686523438,       64.4836425781,      -41.5954589844,      227.3406982422
1494294693.6245410442,       -1.7822265625,       -0.0708007812,        0.2871093750,       -1.9073486328,      -40.5273437500,      227.3406982422
1494294693.6270980835,       -1.7822265625,       -0.0708007812,        0.2871093750,       -1.9073486328,      -40.5273437500,      364.8223876953
1494294693.6296501160,       -1.7822265625,       -0.0708007812,        0.2871093750,      -70.0683593750,      -70.8770751953,      364.8223876953
1494294693.6322090626,       -1.7822265625,       -0.0708007812,        0.2871093750,      -70.0683593750,      -70.8770751953,      364.8223876953
1494294693.6347730160,       -1.3037109375,        3.8125000000,        0.8530273438,     -215.0115966797,      -66.1468505859,      397.0642089844
1494294693.6373291016,       -1.3037109375,        3.8125000000,        0.8530273438,     -215.0115966797,      -66.1468505859,      397.0642089844
1494294693.6398830414,       -1.3037109375,        3.8125000000,        0.8530273438,     -283.2183837891,      -50.4455566406,      303.8635253906
1494294693.6425960064,       -1.3037109375,        3.8125000000,        0.8530273438,     -283.2183837891,      -50.4455566406,      303.8635253906
1494294693.6451520920,       -1.3793945312,        1.7016601562,       -0.3247070312,     -143.5241699219,      -44.0368652344,      230.3771972656
1494294693.6477069855,       -1.3793945312,        1.7016601562,       -0.3247070312,     -143.5241699219,      -44.0368652344,      230.3771972656
1494294693.6502599716,       -1.3793945312,        1.7016601562,       -0.3247070312,      -56.0913085938,      -70.4040527344,      200.3173828125
1494294693.6529600620,       -1.3793945312,        1.7016601562,       -0.3247070312,      -56.0913085938,      -70.4040527344,      200.3173828125
1494294693.6555209160,       -0.6464843750,        0.0000000000,        0.1811523438,      -55.3894042969,      -90.2709960938,      191.3299560547
1494294693.6580801010,       -0.6464843750,        0.0000000000,        0.1811523438,      -55.3894042969,      -90.2709960938,      191.3299560547
1494294693.6607549191,       -0.6464843750,        0.0000000000,        0.1811523438,      -66.0705566406,      -93.0328369141,      202.4993896484
1494294693.6634559631,       -0.6464843750,        0.0000000000,        0.9311523438,      -66.0705566406,      -93.0328369141,      202.4993896484
1494294693.6661570072,       -0.5400390625,        0.3486328125,        0.9736328125,      -83.9691162109,      -86.9903564453,      204.4982910156
1494294693.6688570976,       -0.5400390625,        0.3486328125,        0.9736328125,      -83.9691162109,      -86.9903564453,      204.4982910156
1494294693.6715679169,       -0.5400390625,        0.3486328125,        0.9736328125,      -99.4873046875,      -69.7479248047,      189.9566650391
1494294693.6742639542,       -0.5400390625,        1.2490234375,        0.7749023438,      -99.4873046875,      -69.7479248047,      189.9566650391
1494294693.6769599915,       -1.0039062500,        1.2490234375,        0.7749023438,      -74.9359130859,      -46.0815429688,      167.5415039062
1494294693.6796588898,       -1.0039062500,        1.2490234375,        0.7749023438,      -74.9359130859,      -46.0815429688,      167.5415039062
1494294693.6823689938,       -1.0039062500,        1.2490234375,        0.7749023438,      -18.5394287109,      -34.0270996094,      140.6250000000
1494294693.6850640774,       -0.6616210938,        1.1606445312,       -0.1416015625,      -18.5394287109,      -34.0270996094,      140.6250000000
1494294693.6877551079,       -0.6616210938,        1.1606445312,       -0.1416015625,       22.3083496094,      -39.9475097656,      110.7330322266
1494294693.6904549599,       -0.6616210938,        1.1606445312,       -0.1416015625,       22.3083496094,      -39.9475097656,      110.7330322266
1494294693.6930379868,       -0.6616210938,        1.1606445312,       -0.1416015625,       34.0270996094,      -46.8139648438,       82.7026367188
1494294693.6955950260,       -0.6557617188,        0.6591796875,       -0.0512695312,       33.7982177734,      -46.8139648438,       82.7026367188
1494294693.6981570721,       -0.6557617188,        0.6591796875,       -0.0512695312,       33.7982177734,      -50.7202148438,       64.6514892578
1494294693.7006909847,       -0.6557617188,        0.6591796875,       -0.0512695312,       34.0576171875,      -49.0875244141,       64.6514892578
1494294693.7032530308,       -0.6557617188,        0.6591796875,       -0.0512695312,       34.0576171875,      -49.0875244141,       54.1992187500
1494294693.7058069706,       -0.8735351562,        0.3081054688,        0.1997070312,       39.3371582031,      -49.4842529297,       54.1992187500
1494294693.7085559368,       -0.8735351562,        0.3081054688,        0.1997070312,       39.3371582031,      -49.4842529297,       46.3867187500
1494294693.7115719318,       -0.8735351562,        0.3081054688,        0.1997070312,       55.1300048828,      -46.9512939453,       44.7082519531
1494294693.7142710686,       -0.8735351562,        0.1831054688,        0.1611328125,       55.1300048828,      -46.9512939453,       34.6069335938
1494294693.7169690132,       -0.7656250000,        0.1772460938,        0.1611328125,       70.9533691406,      -46.0968017578,       34.6069335938
1494294693.7196691036,       -0.7656250000,        0.1772460938,        0.1611328125,       70.9533691406,      -46.0968017578,       25.1617431641
1494294693.7223780155,       -0.7656250000,        0.1772460938,        0.1611328125,       77.2399902344,      -46.6613769531,       25.1617431641
1494294693.7250730991,       -0.7792968750,        0.0263671875,        0.0947265625,       77.2399902344,      -46.6613769531,       19.7143554688
1494294693.7277750969,       -0.7792968750,        0.0263671875,        0.0947265625,       76.1413574219,      -45.8374023438,       19.7143554688
1494294693.7304720879,       -0.7792968750,        0.0263671875,        0.0947265625,       76.1413574219,      -45.8374023438,       19.4091796875
1494294693.7332880497,       -0.7792968750,        0.0263671875,        0.0947265625,       72.3876953125,      -43.9300537109,       19.4091796875
1494294693.7359840870,       -0.8012695312,       -0.0708007812,        0.0332031250,       72.3876953125,      -43.9300537109,       22.9492187500
1494294693.7386839390,       -0.8012695312,       -0.0708007812,        0.0332031250,       63.2781982422,      -41.4428710938,       22.9492187500
1494294693.7413690090,       -0.8012695312,       -0.0708007812,        0.0332031250,       63.2781982422,      -41.4428710938,       28.3660888672
1494294693.7439239025,       -0.8012695312,       -0.0708007812,        0.0332031250,       51.3763427734,      -41.1224365234,       28.3660888672
1494294693.7464869022,       -0.7812500000,        0.0234375000,        0.0161132812,       51.3763427734,      -41.1224365234,       28.3660888672
1494294693.7490398884,       -0.7812500000,        0.0234375000,        0.0161132812,       39.9475097656,      -40.5731201172,       32.8826904297
1494294693.7516050339,       -0.7812500000,        0.0234375000,        0.0161132812,       39.9475097656,      -40.5731201172,       32.8826904297
