time_stamp before, Acceleration x, Acceleration y, Acceleration z, Gyro x, Gyro y, Gyro z
1494295545.9993228912,       -0.6977539062,       -0.0898437500,       -0.0239257812,       17.7459716797,       13.0310058594,      -83.6334228516
1494295546.0047869682,       -0.6977539062,       -0.0898437500,       -0.0585937500,       17.7459716797,       13.0310058594,      -79.7271728516
1494295546.0080909729,       -0.5961914062,        0.0029296875,       -0.0585937500,        3.3111572266,       11.7492675781,      -80.7037353516
1494295546.0107979774,       -0.5961914062,        0.0029296875,       -0.0585937500,        3.3111572266,       11.7492675781,      -80.7037353516
1494295546.0133531094,       -0.5961914062,        0.0029296875,       -0.0585937500,       -4.3029785156,       10.1776123047,      -77.6367187500
1494295546.0159010887,       -0.5961914062,        0.1171875000,       -0.0761718750,       -4.3029785156,       10.1776123047,      -77.6367187500
1494295546.0184540749,       -0.5244140625,        0.1171875000,       -0.0761718750,       -6.5002441406,        8.5449218750,      -73.9593505859
1494295546.0210340023,       -0.5244140625,        0.1171875000,       -0.0761718750,       -6.5002441406,        8.5449218750,      -73.9593505859
1494295546.0237200260,       -0.5244140625,        0.1171875000,       -0.0761718750,       -3.7841796875,        6.2561035156,      -70.7550048828
1494295546.0264050961,       -0.5092773438,        0.1752929688,       -0.0864257812,       -3.7841796875,        6.2561035156,      -70.7550048828
1494295546.0290930271,       -0.5092773438,        0.1752929688,       -0.0864257812,        2.5482177734,        4.4555664062,      -67.4133300781
1494295546.0317380428,       -0.5092773438,        0.1752929688,       -0.0864257812,        2.5482177734,        4.4555664062,      -67.4133300781
1494295546.0342829227,       -0.5092773438,        0.1752929688,       -0.0864257812,       10.6353759766,        2.5329589844,      -63.2781982422
1494295546.0368299484,       -0.5385742188,        0.1440429688,       -0.1108398438,       10.6353759766,        2.5329589844,      -63.2781982422
1494295546.0393769741,       -0.5385742188,        0.1440429688,       -0.1108398438,       17.7154541016,        2.1209716797,      -58.5327148438
1494295546.0420770645,       -0.5385742188,        0.1440429688,       -0.1108398438,       17.7154541016,        2.1209716797,      -58.5327148438
1494295546.0446259975,       -0.5385742188,        0.1440429688,       -0.1108398438,       21.7437744141,        1.9226074219,      -53.4057617188
1494295546.0471799374,       -0.5771484375,        0.0327148438,       -0.1152343750,       21.7437744141,        1.9226074219,      -53.4057617188
1494295546.0497279167,       -0.5771484375,        0.0327148438,       -0.1152343750,       21.7437744141,        1.4495849609,      -48.0194091797
1494295546.0525290966,       -0.5771484375,        0.0327148438,       -0.1152343750,       20.3094482422,        1.4495849609,      -48.0194091797
1494295546.0552229881,       -0.5771484375,        0.0327148438,       -0.1152343750,       20.3094482422,        1.2207031250,      -41.8243408203
1494295546.0579130650,       -0.6137695312,       -0.1181640625,       -0.0551757812,       13.3361816406,        1.2207031250,      -41.8243408203
1494295546.0606091022,       -0.6137695312,       -0.1181640625,       -0.0551757812,       13.3361816406,        0.9613037109,      -34.9578857422
1494295546.0633060932,       -0.6137695312,       -0.1181640625,       -0.0551757812,        2.4261474609,        0.9613037109,      -34.9578857422
1494295546.0659980774,       -0.6137695312,       -0.2431640625,       -0.0131835938,        2.4261474609,        0.4272460938,      -28.5644531250
1494295546.0686929226,       -0.7001953125,       -0.2216796875,       -0.0131835938,      -10.1928710938,        0.4272460938,      -28.5644531250
1494295546.0713961124,       -0.7001953125,       -0.2216796875,       -0.0131835938,      -10.1928710938,       -3.4790039062,      -22.6135253906
1494295546.0740931034,       -0.7001953125,       -0.2216796875,       -0.0131835938,      -23.8647460938,       -0.2593994141,      -22.6135253906
1494295546.0769550800,       -0.8115234375,       -0.1977539062,        0.0283203125,      -23.8647460938,       -0.5645751953,      -16.4642333984
1494295546.0796511173,       -0.8115234375,       -0.1977539062,        0.0283203125,      -36.2396240234,       -0.5645751953,      -16.4642333984
1494295546.0823490620,       -0.8115234375,       -0.1977539062,        0.0283203125,      -36.2396240234,       -1.4953613281,      -11.1846923828
1494295546.0850439072,       -0.8115234375,       -0.1977539062,        0.0283203125,      -43.8385009766,       -1.4953613281,      -11.1846923828
1494295546.0877380371,       -0.9243164062,       -0.0551757812,       -0.0146484375,      -43.8385009766,       -2.2735595703,       -7.4615478516
1494295546.0904319286,       -0.9243164062,       -0.0551757812,       -0.0146484375,      -45.3491210938,       -2.2735595703,       -7.4615478516
1494295546.0931239128,       -0.9243164062,       -0.0551757812,       -0.0146484375,      -45.3491210938,       -2.2735595703,       -4.3945312500
1494295546.0956840515,       -0.9243164062,       -0.0551757812,       -0.0146484375,      -42.0989990234,       -3.0364990234,       -4.3945312500
1494295546.0982339382,       -0.9360351562,        0.1064453125,       -0.0903320312,      -42.0989990234,       -3.0364990234,       -2.5329589844
1494295546.1007940769,       -0.9360351562,        0.1064453125,       -0.0903320312,      -35.5224609375,       -3.9978027344,       -2.5329589844
1494295546.1034479141,       -0.9360351562,        0.1064453125,       -0.0903320312,      -35.5224609375,       -3.9978027344,       -2.5329589844
1494295546.1060929298,       -0.9360351562,        0.1064453125,       -0.1069335938,      -25.4821777344,       -4.2419433594,       -1.5869140625
1494295546.1089301109,       -0.8378906250,        0.1865234375,       -0.1069335938,      -25.4821777344,       -4.2419433594,       -1.5869140625
1494295546.1116020679,       -0.8378906250,        0.1865234375,       -0.1069335938,      -14.9078369141,       -3.8452148438,       -1.6784667969
1494295546.1143009663,       -0.8378906250,        0.1865234375,       -0.1069335938,      -14.9078369141,       -3.8452148438,       -1.6784667969
1494295546.1169939041,       -0.7504882812,        0.2153320312,       -0.0468750000,       -6.5155029297,       -4.6997070312,       -1.4801025391
1494295546.1196799278,       -0.7504882812,        0.2153320312,       -0.0468750000,       -6.5155029297,       -4.6997070312,       -1.4801025391
1494295546.1223840714,       -0.7504882812,        0.2153320312,       -0.0468750000,       -1.0528564453,       -5.0201416016,       -1.5106201172
1494295546.1250689030,       -0.7504882812,        0.2153320312,       -0.0468750000,       -1.0528564453,       -5.0201416016,       -1.5106201172
1494295546.1277639866,       -0.7490234375,        0.1606445312,       -0.0380859375,        2.4719238281,       -5.4168701172,       -1.3580322266
1494295546.1304569244,       -0.7490234375,        0.1606445312,       -0.0380859375,        2.4719238281,       -5.4168701172,       -1.3580322266
1494295546.1330258846,       -0.7490234375,        0.1606445312,       -0.0380859375,        4.4860839844,       -5.6915283203,       -1.6174316406
1494295546.1355779171,       -0.7490234375,        0.1606445312,       -0.0380859375,        4.4860839844,       -5.6915283203,       -1.6174316406
1494295546.1381199360,       -0.7470703125,        0.0957031250,       -0.0029296875,        3.7384033203,       -5.4321289062,       -0.7934570312
1494295546.1406970024,       -0.7470703125,        0.0957031250,       -0.0029296875,        3.7384033203,       -5.4321289062,       -0.7934570312
1494295546.1432459354,       -0.7470703125,        0.0957031250,       -0.0029296875,        2.6855468750,       -5.1879882812,       -0.0305175781
1494295546.1457951069,       -0.7470703125,        0.0957031250,       -0.0029296875,        2.6855468750,       -5.1879882812,       -0.0305175781
1494295546.1484580040,       -0.7348632812,        0.0649414062,        0.0336914062,        1.5258789062,       -4.5318603516,        1.0375976562
1494295546.1511449814,       -0.7348632812,        0.0649414062,        0.0336914062,        1.5258789062,       -4.5318603516,        1.0375976562
1494295546.1537048817,       -0.7348632812,        0.0649414062,        0.0336914062,        0.1373291016,       -3.6926269531,        2.0904541016
1494295546.1562609673,       -0.7348632812,        0.0649414062,        0.0336914062,        0.1373291016,       -3.6926269531,        2.0904541016
1494295546.1589050293,       -0.7338867188,        0.0703125000,        0.0483398438,       -0.3814697266,       -2.3956298828,        4.0283203125
1494295546.1617119312,       -0.7338867188,        0.0703125000,        0.0483398438,       -0.3814697266,       -2.3956298828,        4.0283203125
1494295546.1642649174,       -0.7338867188,        0.0703125000,        0.0483398438,       -0.3814697266,       -2.3040771484,        5.1574707031
1494295546.1668150425,       -0.7338867188,        0.0703125000,        0.0415039062,       -0.7019042969,       -2.3040771484,        5.1574707031
1494295546.1693611145,       -0.7324218750,        0.1079101562,        0.0415039062,       -0.7019042969,       -1.9378662109,        5.7373046875
1494295546.1720669270,       -0.7324218750,        0.1079101562,        0.0415039062,        0.0305175781,       -1.9378662109,        5.7373046875
1494295546.1746180058,       -0.7324218750,        0.1079101562,        0.0415039062,        0.0305175781,       -1.9378662109,        6.5460205078
1494295546.1772639751,       -0.7324218750,        0.1215820312,        0.0190429688,        2.1820068359,       -1.1291503906,        6.5460205078
1494295546.1805999279,       -0.7177734375,        0.1215820312,        0.0190429688,        6.0882568359,       -1.0375976562,        7.1868896484
1494295546.1832950115,       -0.7177734375,        0.1215820312,        0.0190429688,        4.3029785156,       -1.0375976562,        7.1868896484
1494295546.1859900951,       -0.7177734375,        0.1215820312,        0.0190429688,        4.3029785156,       -1.0528564453,        8.0718994141
1494295546.1886770725,       -0.6977539062,        0.1069335938,        0.0004882812,        6.1035156250,       -1.0528564453,        8.0718994141
1494295546.1913759708,       -0.6977539062,        0.1069335938,        0.0004882812,        6.1035156250,       -0.9918212891,        8.8195800781
1494295546.1940600872,       -0.6977539062,        0.1069335938,        0.0004882812,        6.1035156250,       -0.9918212891,        8.8195800781
1494295546.1967511177,       -0.6977539062,        0.1069335938,       -0.0141601562,        6.1035156250,       -0.9155273438,        9.0332031250
1494295546.1994380951,       -0.7270507812,        0.1025390625,       -0.0141601562,        4.9285888672,       -0.9155273438,        9.0332031250
1494295546.2021629810,       -0.7270507812,        0.1025390625,       -0.0141601562,        4.9285888672,       -1.2359619141,        8.8348388672
1494295546.2048499584,       -0.7270507812,        0.1025390625,       -0.0141601562,        2.8839111328,       -1.2359619141,        8.8348388672
1494295546.2075340748,       -0.7270507812,        0.1166992188,       -0.0244140625,        2.8839111328,       -1.5258789062,        9.1552734375
1494295546.2102169991,       -0.7387695312,        0.1166992188,       -0.0244140625,        0.3204345703,       -1.5258789062,        9.1552734375
1494295546.2128350735,       -0.7387695312,        0.1166992188,       -0.0244140625,        0.3204345703,       -1.5258789062,        9.1857910156
1494295546.2153770924,       -0.7387695312,        0.1166992188,       -0.0244140625,       -1.4953613281,       -1.5258789062,        9.1857910156
1494295546.2179191113,       -0.7392578125,        0.1401367188,       -0.0336914062,       -1.4953613281,       -1.5258789062,        9.1857910156
1494295546.2204670906,       -0.7392578125,        0.1401367188,       -0.0336914062,       -3.2348632812,       -2.1514892578,        8.4838867188
1494295546.2232780457,       -0.7392578125,        0.1401367188,       -0.0336914062,       -3.2348632812,       -2.1514892578,        4.5776367188
1494295546.2258229256,       -0.7392578125,        0.1401367188,       -0.0336914062,       -4.6386718750,       -2.5177001953,        7.5988769531
1494295546.2283680439,       -0.7333984375,        0.1508789062,       -0.0434570312,       -4.6386718750,       -2.5177001953,        7.5988769531
1494295546.2310531139,       -0.7333984375,        0.1508789062,       -0.0434570312,       -4.1961669922,       -2.7160644531,        6.8817138672
1494295546.2337400913,       -0.7333984375,        0.1508789062,       -0.0434570312,       -4.1961669922,       -2.7160644531,        6.8817138672
1494295546.2364249229,       -0.7333984375,        0.1508789062,       -0.0434570312,       -4.7149658203,       -3.3416748047,        6.1798095703
1494295546.2391068935,       -0.7294921875,        0.1533203125,       -0.0205078125,       -4.7149658203,       -3.3416748047,        6.1798095703
1494295546.2418000698,       -0.7294921875,        0.1533203125,       -0.0205078125,       -4.9438476562,       -3.4027099609,        5.3100585938
1494295546.2444839478,       -0.7294921875,        0.1533203125,       -0.0205078125,       -4.9438476562,       -3.4027099609,        5.3100585938
1494295546.2471671104,       -0.7294921875,        0.1533203125,       -0.0244140625,       -4.6386718750,       -3.2043457031,        4.4250488281
1494295546.2498440742,       -0.7226562500,        0.1552734375,       -0.0244140625,       -4.6386718750,       -3.2043457031,        4.4250488281
1494295546.2525401115,       -0.7226562500,        0.1552734375,       -0.0244140625,       -5.3100585938,       -2.8991699219,        3.5095214844
1494295546.2552249432,       -0.7226562500,        0.1552734375,       -0.0244140625,       -5.3100585938,       -2.8991699219,        3.5095214844
1494295546.2578980923,       -0.7226562500,        0.1557617188,       -0.0214843750,       -4.9285888672,       -3.3569335938,        3.0975341797
1494295546.2605800629,       -0.7299804688,        0.1557617188,       -0.0214843750,       -4.9285888672,       -3.3569335938,        3.0975341797
1494295546.2632648945,       -0.7299804688,        0.1557617188,       -0.0214843750,       -4.0283203125,       -2.9602050781,        2.5482177734
1494295546.2659480572,       -0.7299804688,        0.1557617188,       -0.0214843750,       -4.0283203125,       -2.9602050781,        2.5482177734
1494295546.2686319351,       -0.7416992188,        0.1557617188,       -0.0131835938,       -4.2419433594,       -2.8076171875,        2.1209716797
1494295546.2713379860,       -0.7416992188,        0.1557617188,       -0.0131835938,       -4.2419433594,       -2.8076171875,        2.1209716797
1494295546.2738809586,       -0.7416992188,        0.1557617188,       -0.0131835938,       -4.8065185547,       -2.9907226562,        1.6174316406
1494295546.2764229774,       -0.7416992188,        0.1557617188,       -0.0131835938,       -4.8065185547,       -2.9907226562,        1.6174316406
1494295546.2789690495,       -0.7314453125,        0.1464843750,        0.0029296875,       -4.6844482422,       -2.6397705078,        1.4495849609
1494295546.2815940380,       -0.7314453125,        0.1464843750,        0.0029296875,       -4.6844482422,       -2.6397705078,        1.4495849609
1494295546.2842800617,       -0.7314453125,        0.1464843750,        0.0029296875,       -5.1269531250,       -2.6397705078,        0.7629394531
1494295546.2870879173,       -0.7314453125,        0.1464843750,        0.0029296875,       -5.1269531250,       -2.6397705078,        0.7629394531
1494295546.2897810936,       -0.7333984375,        0.1357421875,        0.0048828125,       -4.5166015625,       -1.9531250000,        0.7476806641
1494295546.2924680710,       -0.7333984375,        0.1357421875,        0.0048828125,       -4.5166015625,       -1.9531250000,        0.7476806641
1494295546.2951529026,       -0.7333984375,        0.1357421875,        0.0048828125,       -4.0893554688,       -1.9836425781,        0.7781982422
1494295546.2979440689,       -0.7333984375,        0.1318359375,        0.0092773438,       -4.0893554688,       -1.9836425781,        0.7781982422
1494295546.3006770611,       -0.7387695312,        0.1318359375,        0.0092773438,       -4.4250488281,       -1.5563964844,        0.7171630859
1494295546.3033740520,       -0.7387695312,        0.1318359375,        0.0092773438,       -4.4250488281,       -1.5563964844,        0.7171630859
1494295546.3060619831,       -0.7387695312,        0.1318359375,        0.0092773438,       -4.5318603516,       -1.5106201172,        0.5645751953
1494295546.3087449074,       -0.7368164062,        0.1313476562,        0.0185546875,       -4.5318603516,       -1.5106201172,        0.5645751953
1494295546.3114490509,       -0.7368164062,        0.1313476562,        0.0185546875,       -4.4250488281,       -1.3275146484,        0.5798339844
1494295546.3141329288,       -0.7368164062,        0.1313476562,        0.0185546875,       -4.4250488281,       -1.3275146484,        0.5798339844
1494295546.3168148994,       -0.7368164062,        0.1313476562,        0.0185546875,       -4.1656494141,       -0.9613037109,        0.8087158203
1494295546.3195080757,       -0.7329101562,        0.1318359375,        0.0117187500,       -4.1656494141,       -0.9613037109,        0.8087158203
1494295546.3221340179,       -0.7329101562,        0.1318359375,        0.0117187500,       -4.1656494141,       -0.9307861328,        0.9307861328
1494295546.3246829510,       -0.7329101562,        0.1318359375,        0.0117187500,       -4.1656494141,       -0.9307861328,        0.9307861328
1494295546.3272318840,       -0.7329101562,        0.1318359375,        0.0117187500,       -4.1656494141,       -0.9307861328,        1.0833740234
1494295546.3297801018,       -0.7373046875,        0.1274414062,        0.0043945312,       -3.3721923828,       -0.4272460938,        1.0833740234
1494295546.3324759007,       -0.7373046875,        0.1274414062,        0.0043945312,       -3.3721923828,       -0.4272460938,        0.9765625000
1494295546.3350241184,       -0.7373046875,        0.1274414062,        0.0043945312,       -3.0059814453,       -0.0610351562,        0.9765625000
1494295546.3375730515,       -0.7373046875,        0.1274414062,        0.0043945312,       -3.0059814453,       -0.0610351562,        0.9765625000
1494295546.3401269913,       -0.7431640625,        0.1308593750,        0.0078125000,       -2.1209716797,       -0.0762939453,        1.2359619141
1494295546.3428950310,       -0.7431640625,        0.1308593750,        0.0078125000,       -2.1209716797,       -0.0762939453,        1.2359619141
1494295546.3455901146,       -0.7431640625,        0.1308593750,        0.0078125000,       -1.9531250000,        0.4272460938,        1.5716552734
1494295546.3482799530,       -0.7431640625,        0.1308593750,       -0.0039062500,       -1.9531250000,        0.4272460938,        1.5716552734
1494295546.3509769440,       -0.7309570312,        0.1391601562,       -0.0039062500,       -1.3885498047,        0.2899169922,        1.7242431641
1494295546.3536689281,       -0.7309570312,        0.1391601562,       -0.0039062500,       -1.3885498047,        0.2899169922,        1.7242431641
1494295546.3563559055,       -0.7309570312,        0.1391601562,       -0.0039062500,       -0.3967285156,       -0.3509521484,        1.9531250000
1494295546.3590400219,       -0.7314453125,        0.1479492188,       -0.0122070312,       -0.3967285156,       -0.3509521484,        1.9531250000
1494295546.3617429733,       -0.7314453125,        0.1479492188,       -0.0122070312,        0.5187988281,       -0.7019042969,        1.7852783203
1494295546.3645470142,       -0.7314453125,        0.1479492188,       -0.0122070312,        0.5187988281,       -0.7019042969,        1.7852783203
1494295546.3671069145,       -0.7314453125,        0.1479492188,       -0.0122070312,        1.0833740234,       -0.4882812500,        1.9378662109
1494295546.3697690964,       -0.7280273438,        0.1552734375,       -0.0214843750,        1.0833740234,       -0.4882812500,        1.9378662109
1494295546.3724730015,       -0.7280273438,        0.1552734375,       -0.0214843750,        1.5716552734,       -0.7781982422,        1.5563964844
1494295546.3751258850,       -0.7280273438,        0.1552734375,       -0.0214843750,        1.5716552734,       -0.7781982422,        1.5563964844
1494295546.3777740002,       -0.7280273438,        0.1552734375,       -0.0214843750,        1.6326904297,       -1.2359619141,        0.8697509766
1494295546.3808429241,       -0.7241210938,        0.1586914062,       -0.0219726562,        1.6326904297,       -1.2359619141,        0.8697509766
1494295546.3835389614,       -0.7241210938,        0.1586914062,       -0.0219726562,        2.0904541016,       -1.2664794922,        0.9002685547
1494295546.3862230778,       -0.7241210938,        0.1586914062,       -0.0219726562,        2.0904541016,       -1.2664794922,        0.9002685547
1494295546.3889091015,       -0.7241210938,        0.1406250000,       -0.0209960938,        2.1972656250,       -1.2817382812,        0.9307861328
1494295546.3916029930,       -0.7226562500,        0.1406250000,       -0.0209960938,        2.1972656250,       -1.2817382812,        0.9307861328
1494295546.3942770958,       -0.7226562500,        0.1406250000,       -0.0209960938,        1.3580322266,       -1.5106201172,        0.8239746094
1494295546.3969619274,       -0.7226562500,        0.1406250000,       -0.0209960938,        1.3580322266,       -1.5106201172,        0.8239746094
1494295546.3996450901,       -0.7265625000,        0.1191406250,       -0.0136718750,       -0.0610351562,       -1.6632080078,        0.7171630859
1494295546.4023430347,       -0.7265625000,        0.1191406250,       -0.0136718750,       -0.0610351562,       -1.6632080078,        0.7171630859
1494295546.4050319195,       -0.7265625000,        0.1191406250,       -0.0136718750,       -1.2512207031,       -1.4343261719,        0.9613037109
1494295546.4077229500,       -0.7265625000,        0.1191406250,       -0.0136718750,       -1.2512207031,       -1.4343261719,        0.9613037109
1494295546.4104099274,       -0.7294921875,        0.1250000000,       -0.0019531250,       -2.0599365234,       -1.6937255859,        1.2969970703
1494295546.4130129814,       -0.7294921875,        0.1250000000,       -0.0019531250,       -2.0599365234,       -1.6937255859,        1.2969970703
1494295546.4155600071,       -0.7294921875,        0.1250000000,       -0.0019531250,       -3.1738281250,       -1.9073486328,        1.0986328125
1494295546.4181048870,       -0.7294921875,        0.1250000000,       -0.0019531250,       -3.1738281250,       -1.9073486328,        1.0986328125
1494295546.4206840992,       -0.7255859375,        0.1406250000,       -0.0029296875,       -4.0435791016,       -1.7089843750,        1.1138916016
1494295546.4232370853,       -0.7255859375,        0.1406250000,       -0.0029296875,       -4.0435791016,       -1.7089843750,        1.1138916016
1494295546.4257910252,       -0.7255859375,        0.1406250000,       -0.0029296875,       -4.1198730469,       -1.5869140625,        1.0375976562
1494295546.4283380508,       -0.7255859375,        0.1406250000,       -0.0029296875,       -4.1198730469,       -1.5869140625,        1.0375976562
1494295546.4310510159,       -0.7280273438,        0.1503906250,       -0.0024414062,       -3.9672851562,       -1.8005371094,        0.4730224609
1494295546.4335949421,       -0.7280273438,        0.1503906250,       -0.0024414062,       -3.9672851562,       -1.8005371094,        0.4730224609
1494295546.4361450672,       -0.7280273438,        0.1503906250,       -0.0024414062,       -3.9672851562,       -1.8005371094,        0.0762939453
1494295546.4386930466,       -0.7280273438,        0.1503906250,       -0.0068359375,       -3.6621093750,       -1.9683837891,        0.0762939453
1494295546.4413719177,       -0.7368164062,        0.1538085938,       -0.0068359375,       -3.6621093750,       -1.9683837891,       -0.3814697266
1494295546.4441709518,       -0.7368164062,        0.1538085938,       -0.0068359375,       -3.1280517578,       -1.8920898438,       -0.3814697266
1494295546.4468660355,       -0.7368164062,        0.1538085938,       -0.0068359375,       -3.1280517578,       -1.8920898438,       -0.8087158203
1494295546.4495530128,       -0.7368164062,        0.1640625000,       -0.0102539062,       -3.0059814453,       -1.5411376953,       -0.8087158203
1494295546.4522500038,       -0.7416992188,        0.1640625000,       -0.0102539062,       -3.0059814453,       -1.5411376953,       -1.3122558594
1494295546.4549329281,       -0.7416992188,        0.1640625000,       -0.0102539062,       -2.1514892578,       -1.8768310547,       -1.3122558594
1494295546.4576129913,       -0.7416992188,        0.1640625000,       -0.0102539062,       -2.1514892578,       -1.8768310547,       -1.7700195312
1494295546.4602990150,       -0.7333984375,        0.1582031250,        0.0014648438,       -1.2817382812,       -1.6632080078,       -1.7700195312
1494295546.4628820419,       -0.7333984375,        0.1582031250,        0.0014648438,       -1.2817382812,       -1.6632080078,       -1.7700195312
1494295546.4654281139,       -0.7333984375,        0.1582031250,        0.0014648438,       -1.0070800781,       -1.4190673828,       -1.8157958984
1494295546.4679749012,       -0.7333984375,        0.1582031250,        0.0014648438,       -1.0070800781,       -1.4190673828,       -1.8157958984
1494295546.4705200195,       -0.7373046875,        0.1416015625,       -0.0019531250,       -0.7476806641,       -1.2512207031,       -2.0904541016
1494295546.4732201099,       -0.7373046875,        0.1416015625,       -0.0019531250,       -0.7476806641,       -1.2512207031,       -2.0904541016
1494295546.4759099483,       -0.7373046875,        0.1416015625,       -0.0019531250,       -0.5187988281,       -1.3732910156,       -2.1209716797
1494295546.4786009789,       -0.7373046875,        0.1416015625,       -0.0019531250,       -0.5187988281,       -1.3732910156,       -2.1209716797
1494295546.4813420773,       -0.7329101562,        0.1401367188,        0.0024414062,       -0.1525878906,       -1.1444091797,       -2.0599365234
1494295546.4840259552,       -0.7329101562,        0.1401367188,        0.0024414062,       -0.1525878906,       -1.1444091797,       -2.0599365234
1494295546.4867091179,       -0.7329101562,        0.1401367188,        0.0024414062,        0.0000000000,       -1.2969970703,       -2.5482177734
1494295546.4893960953,       -0.7329101562,        0.1401367188,        0.0073242188,        0.0000000000,       -1.2969970703,       -2.5482177734
1494295546.4920320511,       -0.7294921875,        0.1445312500,        0.0073242188,        0.2136230469,       -0.6103515625,       -2.5634765625
1494295546.4945750237,       -0.7294921875,        0.1445312500,        0.0073242188,        0.2136230469,       -0.6103515625,       -2.5634765625
1494295546.4972109795,       -0.7294921875,        0.1445312500,        0.0073242188,        0.3814697266,       -0.3204345703,       -2.8076171875
1494295546.4997680187,       -0.7294921875,        0.1420898438,        0.0058593750,        0.3814697266,       -0.3204345703,       -2.8076171875
1494295546.5026350021,       -0.7358398438,        0.1420898438,        0.0058593750,        0.9307861328,       -0.6561279297,       -2.7923583984
1494295546.5053210258,       -0.7358398438,        0.1420898438,        0.0058593750,        0.9307861328,       -0.6561279297,       -2.7923583984
1494295546.5080049038,       -0.7358398438,        0.1420898438,        0.0058593750,        1.3732910156,       -1.1749267578,       -2.6397705078
1494295546.5106990337,       -0.7246093750,        0.1455078125,       -0.0009765625,        1.3732910156,       -1.1749267578,       -2.6397705078
1494295546.5132460594,       -0.7246093750,        0.1455078125,       -0.0009765625,        1.3122558594,       -0.8850097656,       -2.7923583984
1494295546.5157968998,       -0.7246093750,        0.1455078125,       -0.0009765625,        1.3122558594,       -0.8850097656,       -2.7923583984
1494295546.5184559822,       -0.7246093750,        0.1455078125,       -0.0009765625,        1.3122558594,       -0.6103515625,       -3.1280517578
1494295546.5210249424,       -0.7377929688,        0.1396484375,       -0.0014648438,        1.3122558594,       -0.6103515625,       -3.1280517578
1494295546.5237219334,       -0.7377929688,        0.1396484375,       -0.0014648438,        2.0294189453,       -1.1444091797,       -3.1890869141
1494295546.5264089108,       -0.7377929688,        0.1396484375,       -0.0014648438,        2.0294189453,       -1.1444091797,       -3.1890869141
1494295546.5290989876,       -0.7377929688,        0.1396484375,       -0.0014648438,        2.3193359375,       -0.7629394531,       -2.7313232422
1494295546.5317530632,       -0.7324218750,        0.1381835938,       -0.0063476562,        2.3193359375,       -0.7629394531,       -2.7313232422
1494295546.5343019962,       -0.7324218750,        0.1381835938,       -0.0063476562,        2.3193359375,       -1.0986328125,       -2.7160644531
1494295546.5368549824,       -0.7324218750,        0.1381835938,       -0.0063476562,        2.2888183594,       -1.0986328125,       -2.7160644531
1494295546.5394029617,       -0.7324218750,        0.1381835938,       -0.0063476562,        2.2888183594,       -1.0986328125,       -2.6855468750
1494295546.5419530869,       -0.7387695312,        0.1342773438,       -0.0112304688,        2.2430419922,       -1.2817382812,       -2.6855468750
1494295546.5444979668,       -0.7387695312,        0.1342773438,       -0.0112304688,        2.2430419922,       -1.2817382812,       -2.6855468750
1494295546.5470430851,       -0.7387695312,        0.1342773438,       -0.0112304688,        1.9683837891,       -0.9307861328,       -2.6245117188
1494295546.5495929718,       -0.7387695312,        0.1342773438,       -0.0170898438,        1.9683837891,       -0.9307861328,       -2.6245117188
1494295546.5522539616,       -0.7275390625,        0.1328125000,       -0.0170898438,        1.4953613281,       -0.6408691406,       -2.7465820312
1494295546.5547978878,       -0.7275390625,        0.1328125000,       -0.0170898438,        1.4953613281,       -0.6408691406,       -2.7465820312
1494295546.5573439598,       -0.7275390625,        0.1328125000,       -0.0170898438,        1.2512207031,       -1.0375976562,       -2.1209716797
1494295546.5598950386,       -0.7275390625,        0.1328125000,       -0.0107421875,        1.2512207031,       -1.0375976562,       -2.1209716797
1494295546.5625851154,       -0.7363281250,        0.1323242188,       -0.0107421875,        0.7171630859,       -1.2969970703,       -2.4261474609
1494295546.5651340485,       -0.7363281250,        0.1323242188,       -0.0107421875,        0.7171630859,       -1.2969970703,       -2.4261474609
1494295546.5676798820,       -0.7363281250,        0.1323242188,       -0.0107421875,        0.6561279297,       -1.4648437500,       -2.4871826172
1494295546.5702309608,       -0.7363281250,        0.1420898438,       -0.0048828125,        0.6561279297,       -1.4648437500,       -2.4871826172
1494295546.5729470253,       -0.7343750000,        0.1420898438,       -0.0048828125,        1.1444091797,       -1.1444091797,       -1.6632080078
1494295546.5756340027,       -0.7343750000,        0.1420898438,       -0.0048828125,        1.1444091797,       -1.1444091797,       -1.6632080078
1494295546.5783200264,       -0.7343750000,        0.1420898438,       -0.0048828125,        1.1444091797,       -1.4953613281,       -2.0141601562
1494295546.5810189247,       -0.7343750000,        0.1396484375,        0.0029296875,        1.1444091797,       -1.4953613281,       -2.0141601562
1494295546.5837090015,       -0.7343750000,        0.1396484375,        0.0029296875,        0.9307861328,       -1.4648437500,       -2.5177001953
1494295546.5864009857,       -0.7343750000,        0.1396484375,        0.0029296875,        0.9307861328,       -1.4648437500,       -2.5177001953
1494295546.5891990662,       -0.7343750000,        0.1396484375,        0.0029296875,        1.0223388672,       -1.7852783203,       -2.3193359375
1494295546.5918710232,       -0.7285156250,        0.1406250000,       -0.0053710938,        1.0223388672,       -1.7852783203,       -2.3193359375
1494295546.5944180489,       -0.7285156250,        0.1406250000,       -0.0053710938,        1.9531250000,       -1.9989013672,       -2.4108886719
1494295546.5969660282,       -0.7285156250,        0.1406250000,       -0.0053710938,        1.9531250000,       -1.9989013672,       -2.4108886719
1494295546.5995149612,       -0.7285156250,        0.1406250000,       -0.0053710938,        1.9531250000,       -1.5563964844,       -2.5787353516
1494295546.6021990776,       -0.7392578125,        0.1450195312,       -0.0029296875,        1.8005371094,       -1.5563964844,       -2.5787353516
1494295546.6048879623,       -0.7392578125,        0.1450195312,       -0.0029296875,        1.8005371094,       -1.1901855469,       -2.4261474609
1494295546.6075730324,       -0.7392578125,        0.1450195312,       -0.0029296875,        1.9989013672,       -1.1901855469,       -2.4261474609
1494295546.6102619171,       -0.7392578125,        0.1450195312,       -0.0053710938,        1.9989013672,       -1.1901855469,       -2.7008056641
1494295546.6128420830,       -0.7324218750,        0.1435546875,       -0.0053710938,        2.4261474609,       -1.2054443359,       -2.7008056641
1494295546.6153960228,       -0.7324218750,        0.1435546875,       -0.0053710938,        2.4261474609,       -1.2054443359,       -2.8076171875
1494295546.6181859970,       -0.7324218750,        0.1435546875,       -0.0053710938,        2.2277832031,       -0.8544921875,       -2.8076171875
1494295546.6211230755,       -0.7304687500,        0.1308593750,        0.0078125000,        2.2277832031,       -0.8544921875,       -2.9907226562
1494295546.6244370937,       -0.7304687500,        0.1308593750,        0.0078125000,        1.6174316406,       -0.9765625000,       -2.9907226562
1494295546.6269869804,       -0.7304687500,        0.1308593750,        0.0078125000,        1.6174316406,       -0.5798339844,       -2.8381347656
1494295546.6295258999,       -0.7304687500,        0.1308593750,        0.0078125000,        1.1749267578,       -0.5798339844,       -2.8381347656
1494295546.6321508884,       -0.7304687500,        0.1416015625,        0.0117187500,        1.1749267578,       -0.5187988281,       -2.9754638672
1494295546.6346979141,       -0.7304687500,        0.1416015625,        0.0117187500,        0.8392333984,       -0.5187988281,       -2.9754638672
1494295546.6372420788,       -0.7304687500,        0.1416015625,        0.0117187500,        0.8392333984,       -0.5187988281,       -3.3569335938
1494295546.6397900581,       -0.7304687500,        0.1416015625,        0.0117187500,        0.7934570312,       -0.5798339844,       -3.3569335938
1494295546.6423420906,       -0.7270507812,        0.1455078125,        0.0078125000,        0.7934570312,       -0.5798339844,       -3.3569335938
1494295546.6448841095,       -0.7270507812,        0.1455078125,        0.0078125000,        0.5035400391,       -0.2288818359,       -3.7231445312
1494295546.6474308968,       -0.7270507812,        0.1455078125,        0.0078125000,        0.5035400391,       -0.2288818359,       -3.7231445312
1494295546.6499750614,       -0.7270507812,        0.1455078125,        0.0078125000,        0.9613037109,        0.2288818359,       -4.0435791016
1494295546.6526269913,       -0.7358398438,        0.1464843750,        0.0039062500,        0.9613037109,        0.2288818359,       -4.0435791016
1494295546.6551730633,       -0.7358398438,        0.1464843750,        0.0039062500,        1.2664794922,        0.2899169922,       -3.8604736328
1494295546.6577160358,       -0.7358398438,        0.1464843750,        0.0039062500,        1.2664794922,        0.2899169922,       -3.8604736328
1494295546.6602680683,       -0.7358398438,        0.1464843750,        0.0039062500,        1.0833740234,        0.0915527344,       -3.9978027344
1494295546.6629850864,       -0.7207031250,        0.1459960938,        0.0009765625,        1.0833740234,        0.0915527344,       -3.9978027344
1494295546.6655399799,       -0.7207031250,        0.1459960938,        0.0009765625,        1.2512207031,        0.1983642578,       -4.4555664062
1494295546.6680929661,       -0.7207031250,        0.1459960938,        0.0009765625,        1.2512207031,        0.1983642578,       -4.4555664062
1494295546.6708049774,       -0.7207031250,        0.1459960938,       -0.0004882812,        1.6021728516,        0.4577636719,       -4.6081542969
1494295546.6733620167,       -0.7211914062,        0.1450195312,       -0.0004882812,        1.6021728516,        0.4577636719,       -4.6081542969
1494295546.6759190559,       -0.7211914062,        0.1450195312,       -0.0004882812,        1.6021728516,        0.2441406250,       -5.1116943359
1494295546.6784660816,       -0.7211914062,        0.1450195312,       -0.0004882812,        1.7242431641,        0.2441406250,       -5.1116943359
1494295546.6811549664,       -0.7211914062,        0.1391601562,       -0.0102539062,        1.7242431641,        0.1373291016,       -5.6152343750
1494295546.6838610172,       -0.7177734375,        0.1391601562,       -0.0102539062,        1.6632080078,        0.1373291016,       -5.6152343750
1494295546.6865460873,       -0.7177734375,        0.1391601562,       -0.0102539062,        1.6632080078,        0.2593994141,       -4.9591064453
1494295546.6892330647,       -0.7177734375,        0.1391601562,       -0.0102539062,        1.9836425781,        0.2593994141,       -4.9591064453
1494295546.6919560432,       -0.7094726562,        0.1411132812,       -0.0004882812,        1.9836425781,       -0.0305175781,       -4.9896240234
1494295546.6946361065,       -0.7094726562,        0.1411132812,       -0.0004882812,        2.8839111328,       -0.0305175781,       -4.9896240234
1494295546.6973209381,       -0.7094726562,        0.1411132812,       -0.0004882812,        2.8839111328,        3.8757324219,       -4.2877197266
1494295546.7000041008,       -0.7094726562,        0.1411132812,       -0.0004882812,        2.6245117188,        0.4272460938,       -4.2877197266
1494295546.7025940418,       -0.7216796875,        0.1298828125,        0.0068359375,        2.6245117188,        0.4272460938,       -4.1046142578
1494295546.7051460743,       -0.7216796875,        0.1298828125,        0.0068359375,        2.7008056641,        0.5035400391,       -4.1046142578
1494295546.7076880932,       -0.7216796875,        0.1298828125,        0.0068359375,        2.7008056641,        0.5035400391,       -0.1983642578
1494295546.7102410793,       -0.7216796875,        0.1298828125,        0.0068359375,        2.6702880859,        0.8087158203,       -3.4942626953
1494295546.7129600048,       -0.7314453125,        0.1127929688,        0.0004882812,        2.6702880859,        0.8087158203,       -3.4942626953
1494295546.7156479359,       -0.7314453125,        0.1127929688,        0.0004882812,        2.6397705078,        0.6561279297,       -2.7465820312
1494295546.7183461189,       -0.7314453125,        0.1127929688,        0.0004882812,        2.6397705078,        0.6561279297,       -2.7465820312
1494295546.7210481167,       -0.7314453125,        0.1127929688,        0.0034179688,        1.9073486328,        0.5798339844,       -1.4495849609
1494295546.7237389088,       -0.7353515625,        0.1010742188,        0.0034179688,        1.9073486328,        0.5798339844,       -1.4495849609
1494295546.7264308929,       -0.7353515625,        0.1010742188,        0.0034179688,        0.8239746094,        0.4730224609,       -0.6103515625
1494295546.7291169167,       -0.7353515625,        0.1010742188,        0.0034179688,        0.8239746094,        0.4730224609,       -0.6103515625
1494295546.7318239212,       -0.7353515625,        0.1103515625,        0.0019531250,        0.7171630859,        0.1831054688,        0.1525878906
1494295546.7345180511,       -0.7353515625,        0.1103515625,        0.0019531250,        0.7171630859,        0.1831054688,        0.1525878906
1494295546.7374639511,       -0.7353515625,        0.1103515625,        0.0019531250,        1.4343261719,       -0.3356933594,        1.4495849609
1494295546.7401380539,       -0.7353515625,        0.1103515625,        0.0019531250,        1.4343261719,       -0.3356933594,        1.4495849609
1494295546.7430069447,       -0.7368164062,        0.1157226562,       -0.0151367188,        2.2735595703,       -0.0152587891,        2.6855468750
1494295546.7455649376,       -0.7368164062,        0.1157226562,       -0.0151367188,        2.2735595703,       -0.0152587891,        2.6855468750
1494295546.7481150627,       -0.7368164062,        0.1157226562,       -0.0151367188,        2.4566650391,        0.5645751953,        4.1503906250
1494295546.7506980896,       -0.7368164062,        0.1157226562,       -0.0151367188,        2.4566650391,        0.5645751953,        4.1503906250
1494295546.7533929348,       -0.7280273438,        0.1030273438,       -0.0029296875,        2.7465820312,        0.4730224609,        5.7525634766
1494295546.7560839653,       -0.7280273438,        0.1030273438,       -0.0029296875,        2.7465820312,        0.4730224609,        5.7525634766
1494295546.7587740421,       -0.7280273438,        0.1030273438,       -0.0029296875,        2.8991699219,        0.5645751953,        8.0261230469
1494295546.7614719868,       -0.7280273438,        0.1030273438,       -0.0117187500,        2.8991699219,        0.5645751953,        8.0261230469
1494295546.7641561031,       -0.7133789062,        0.0947265625,       -0.0117187500,        3.0364990234,        0.3509521484,       10.2844238281
1494295546.7668509483,       -0.7133789062,        0.0947265625,       -0.0117187500,        3.0364990234,        0.3509521484,       10.2844238281
1494295546.7695469856,       -0.7133789062,        0.0947265625,       -0.0117187500,        2.5787353516,        0.1678466797,       13.4887695312
1494295546.7721838951,       -0.7133789062,        0.0659179688,       -0.0092773438,        2.5787353516,        0.1678466797,       13.4887695312
1494295546.7747368813,       -0.7153320312,        0.0659179688,       -0.0092773438,        2.2277832031,       -0.3204345703,       17.2729492188
1494295546.7772920132,       -0.7153320312,        0.0659179688,       -0.0092773438,        2.2277832031,       -0.3204345703,       17.2729492188
1494295546.7798490524,       -0.7153320312,        0.0659179688,       -0.0092773438,        1.4801025391,       -0.7019042969,       21.1486816406
1494295546.7824559212,       -0.7255859375,        0.0419921875,       -0.0126953125,        1.4801025391,       -0.7019042969,       21.1486816406
1494295546.7850110531,       -0.7255859375,        0.0419921875,       -0.0126953125,        0.6866455078,       -1.6326904297,       25.0091552734
1494295546.7875709534,       -0.7255859375,        0.0419921875,       -0.0126953125,        0.6866455078,       -1.6326904297,       25.0091552734
1494295546.7901248932,       -0.7255859375,        0.0419921875,       -0.0126953125,       -3.2196044922,       -2.7313232422,       29.4036865234
1494295546.7928121090,       -0.7294921875,        0.0117187500,       -0.0302734375,       -0.8392333984,       -2.7313232422,       29.4036865234
1494295546.7953610420,       -0.7294921875,        0.0117187500,       -0.0302734375,       -0.8392333984,       -2.7313232422,       34.0423583984
1494295546.7979130745,       -0.7294921875,        0.0117187500,       -0.0302734375,       -2.1667480469,       -3.4942626953,       34.0423583984
1494295546.8004670143,       -0.7294921875,        0.0117187500,       -0.0302734375,       -2.1667480469,       -7.4005126953,       38.8946533203
1494295546.8032870293,       -0.7343750000,        0.0102539062,       -0.0356445312,       -3.6315917969,       -5.3253173828,       38.8946533203
1494295546.8059799671,       -0.7343750000,        0.0102539062,       -0.0356445312,       -3.6315917969,       -5.3253173828,       43.9453125000
1494295546.8087880611,       -0.7343750000,        0.0102539062,       -0.0356445312,       -5.1116943359,       -5.8135986328,       43.9453125000
1494295546.8114860058,       -0.7343750000,        0.0102539062,       -0.0356445312,       -5.1116943359,       -5.8135986328,       49.3469238281
1494295546.8141820431,       -0.7373046875,        0.0175781250,       -0.0454101562,       -6.6223144531,       -7.0037841797,       49.3469238281
1494295546.8168768883,       -0.7373046875,        0.0175781250,       -0.0454101562,       -6.6223144531,      -10.9100341797,       54.7790527344
1494295546.8195741177,       -0.7373046875,        0.0175781250,       -0.0454101562,       -8.1787109375,       -9.0026855469,       54.7790527344
1494295546.8222749233,       -0.7373046875,        0.0083007812,       -0.0659179688,       -8.1787109375,       -9.0026855469,       60.1959228516
1494295546.8249731064,       -0.7373046875,        0.0083007812,       -0.0659179688,      -10.3149414062,      -10.2539062500,       60.1959228516
1494295546.8276710510,       -0.7373046875,        0.0083007812,       -0.0659179688,      -10.3149414062,      -10.2539062500,       65.7653808594
1494295546.8303749561,       -0.7373046875,        0.0083007812,       -0.0659179688,      -12.5274658203,      -12.1002197266,       65.7653808594
1494295546.8329639435,       -0.7231445312,        0.0244140625,       -0.0610351562,      -12.5274658203,      -12.1002197266,       73.5778808594
1494295546.8355219364,       -0.7231445312,        0.0244140625,       -0.0610351562,      -15.3503417969,      -14.0686035156,       70.9075927734
1494295546.8380808830,       -0.7231445312,        0.0244140625,       -0.0610351562,      -15.3503417969,      -14.0686035156,       70.9075927734
1494295546.8406820297,       -0.7231445312,        0.0244140625,       -0.0610351562,      -17.9901123047,      -15.8386230469,       75.4394531250
1494295546.8433890343,       -0.7377929688,        0.0429687500,       -0.0756835938,      -17.9901123047,      -15.8386230469,       75.4394531250
1494295546.8460888863,       -0.7377929688,        0.0429687500,       -0.0756835938,      -21.8048095703,      -17.5323486328,       78.9794921875
1494295546.8487830162,       -0.7377929688,        0.0429687500,       -0.0756835938,      -21.8048095703,      -17.5323486328,       78.9794921875
1494295546.8514969349,       -0.7377929688,        0.0429687500,       -0.0756835938,      -25.6652832031,      -19.4702148438,       82.9467773438
1494295546.8541929722,       -0.7324218750,        0.0400390625,       -0.0600585938,      -25.6652832031,      -19.4702148438,       82.9467773438
1494295546.8571429253,       -0.7324218750,        0.0400390625,       -0.0600585938,      -27.6641845703,      -19.8364257812,       86.2884521484
1494295546.8598349094,       -0.7324218750,        0.0400390625,       -0.0600585938,      -27.6641845703,      -19.8364257812,       87.4633789062
1494295546.8629720211,       -0.7182617188,        0.1650390625,       -0.0126953125,      -29.1595458984,      -20.0958251953,       87.4633789062
1494295546.8656809330,       -0.7182617188,        0.1650390625,       -0.0126953125,      -29.1595458984,      -20.0958251953,       87.6312255859
1494295546.8683829308,       -0.7182617188,        0.1650390625,       -0.0126953125,      -32.8826904297,      -21.5759277344,       87.6312255859
1494295546.8710739613,       -0.7182617188,        0.1650390625,       -0.0126953125,      -32.8826904297,      -21.5759277344,       87.6312255859
1494295546.8736319542,       -0.7231445312,        0.2573242188,       -0.0112304688,      -35.2478027344,      -22.9949951172,       87.7990722656
1494295546.8761909008,       -0.7231445312,        0.2573242188,       -0.0112304688,      -35.2478027344,      -22.9949951172,       87.7990722656
1494295546.8787519932,       -0.7231445312,        0.2573242188,       -0.0112304688,      -35.0952148438,      -23.1323242188,       87.6922607422
1494295546.8813850880,       -0.7231445312,        0.2573242188,       -0.0112304688,      -35.0952148438,      -23.1323242188,       87.6922607422
1494295546.8841938972,       -0.7099609375,        0.2646484375,        0.0087890625,      -32.8216552734,      -22.9034423828,       87.5701904297
1494295546.8869030476,       -0.7099609375,        0.2646484375,        0.0087890625,      -32.8216552734,      -22.9034423828,       87.5701904297
1494295546.8896000385,       -0.7099609375,        0.2646484375,        0.0087890625,      -30.5938720703,      -22.0794677734,       87.2344970703
1494295546.8922269344,       -0.7099609375,        0.2646484375,        0.0087890625,      -30.5938720703,      -22.0794677734,       87.2344970703
1494295546.8947870731,       -0.6767578125,        0.2592773438,        0.0166015625,      -28.5034179688,      -21.3775634766,       86.4868164062
1494295546.8973429203,       -0.6767578125,        0.2592773438,        0.0166015625,      -28.5034179688,      -21.3775634766,       86.4868164062
1494295546.8999071121,       -0.6767578125,        0.2592773438,        0.0166015625,      -28.0151367188,      -20.1416015625,       85.3118896484
1494295546.9025099277,       -0.6767578125,        0.2592773438,        0.0336914062,      -28.0151367188,      -20.1416015625,       85.3118896484
1494295546.9050700665,       -0.5839843750,        0.2309570312,        0.0336914062,      -28.9764404297,      -19.1802978516,       84.6862792969
1494295546.9076359272,       -0.5839843750,        0.2309570312,        0.0336914062,      -28.9764404297,      -19.1802978516,       84.6862792969
1494295546.9101960659,       -0.5839843750,        0.2309570312,        0.0336914062,      -30.5023193359,      -18.1579589844,       84.0148925781
1494295546.9129009247,       -0.5839843750,        0.2739257812,        0.1123046875,      -30.5023193359,      -18.1579589844,       84.0148925781
1494295546.9154601097,       -0.4897460938,        0.2739257812,        0.1123046875,      -33.8439941406,      -18.1274414062,       83.3892822266
1494295546.9180240631,       -0.4897460938,        0.2739257812,        0.1123046875,      -33.8439941406,      -18.1274414062,       83.3892822266
1494295546.9205920696,       -0.4897460938,        0.2739257812,        0.1123046875,      -33.8439941406,      -19.4244384766,       83.2366943359
1494295546.9232459068,       -0.4897460938,        0.3344726562,        0.1850585938,      -38.7268066406,      -19.4244384766,       83.2366943359
1494295546.9258079529,       -0.4624023438,        0.3344726562,        0.1850585938,      -38.7268066406,      -19.4244384766,       83.3129882812
1494295546.9283730984,       -0.4624023438,        0.3344726562,        0.1850585938,      -39.2303466797,      -19.3786621094,       83.3129882812
1494295546.9309809208,       -0.4624023438,        0.3344726562,        0.1850585938,      -39.2303466797,      -19.3786621094,       82.7484130859
1494295546.9336829185,       -0.5678710938,        0.3833007812,        0.2387695312,      -34.2407226562,      -17.5628662109,       82.7484130859
1494295546.9363820553,       -0.5678710938,        0.3833007812,        0.2387695312,      -34.2407226562,      -17.5628662109,       80.5511474609
1494295546.9390819073,       -0.5678710938,        0.3833007812,        0.2387695312,      -28.7933349609,      -17.2576904297,       80.5511474609
1494295546.9417960644,       -0.5678710938,        0.3833007812,        0.2387695312,      -28.7933349609,      -17.2576904297,       79.4372558594
1494295546.9444880486,       -0.6987304688,        0.3369140625,        0.1230468750,      -21.5301513672,      -17.8222656250,       79.4372558594
1494295546.9471900463,       -0.6987304688,        0.3369140625,        0.1230468750,      -21.5301513672,      -17.8222656250,       80.5053710938
1494295546.9498929977,       -0.6987304688,        0.3369140625,        0.1230468750,      -14.1601562500,      -17.1051025391,       80.5053710938
1494295546.9525029659,       -0.6987304688,        0.3369140625,        0.1230468750,      -14.1601562500,      -17.1051025391,       80.5053710938
1494295546.9550650120,       -0.8144531250,        0.2690429688,        0.0649414062,       -7.9345703125,      -15.3808593750,       81.8786621094
1494295546.9577350616,       -0.8144531250,        0.2690429688,        0.0649414062,       -7.9345703125,      -15.3808593750,       81.8786621094
1494295546.9602949619,       -0.8144531250,        0.2690429688,        0.0649414062,       -4.7302246094,      -14.0075683594,       82.6568603516
1494295546.9630310535,       -0.8144531250,        0.2690429688,       -0.0556640625,       -4.7302246094,      -14.0075683594,       82.6568603516
1494295546.9657309055,       -0.8632812500,        0.2143554688,       -0.0556640625,       -4.5166015625,      -13.2751464844,       83.9996337891
1494295546.9684240818,       -0.8632812500,        0.2143554688,       -0.0556640625,       -4.5166015625,      -13.2751464844,       83.9996337891
1494295546.9711439610,       -0.8632812500,        0.2143554688,       -0.0556640625,       -6.3629150391,      -11.5051269531,       86.2731933594
1494295546.9736979008,       -0.8632812500,        0.1884765625,       -0.0283203125,       -6.3629150391,      -11.5051269531,       86.2731933594
1494295546.9762549400,       -0.7802734375,        0.1884765625,       -0.0283203125,      -10.7269287109,      -10.3607177734,       88.4857177734
1494295546.9789719582,       -0.7802734375,        0.1884765625,       -0.0283203125,      -10.7269287109,      -10.3607177734,       88.4857177734
1494295546.9818360806,       -0.7802734375,        0.1884765625,       -0.0283203125,      -18.8446044922,      -10.7116699219,       89.4927978516
1494295546.9845430851,       -0.6411132812,        0.2387695312,        0.0151367188,      -18.8446044922,      -10.7116699219,       89.4927978516
1494295546.9872488976,       -0.6411132812,        0.2387695312,        0.0151367188,      -25.7568359375,      -11.4898681641,       89.7216796875
1494295546.9899470806,       -0.6411132812,        0.2387695312,        0.0151367188,      -25.7568359375,      -11.4898681641,       89.7216796875
1494295546.9926559925,       -0.6411132812,        0.2387695312,        0.0151367188,      -31.4941406250,      -11.5203857422,       89.3859863281
1494295546.9953570366,       -0.5463867188,        0.3261718750,        0.0449218750,      -31.4941406250,      -11.5203857422,       89.3859863281
1494295546.9980630875,       -0.5463867188,        0.3261718750,        0.0449218750,      -35.6445312500,      -10.6048583984,       88.8519287109
1494295547.0007700920,       -0.5463867188,        0.3261718750,        0.0449218750,      -35.6445312500,      -10.6048583984,       88.8519287109
1494295547.0034708977,       -0.5463867188,        0.4511718750,        0.0683593750,      -37.3840332031,      -10.9252929688,       86.8530273438
1494295547.0061769485,       -0.5161132812,        0.4433593750,        0.0683593750,      -37.3840332031,      -10.9252929688,       86.8530273438
1494295547.0088770390,       -0.5161132812,        0.4433593750,        0.0683593750,      -36.1633300781,      -11.5051269531,       84.3658447266
1494295547.0115520954,       -0.5161132812,        0.4433593750,        0.0683593750,      -36.1633300781,      -11.5051269531,       84.3658447266
1494295547.0141088963,       -0.6411132812,        0.4667968750,        0.0791015625,      -32.3486328125,      -10.4980468750,       81.6650390625
1494295547.0166649818,       -0.6279296875,        0.4667968750,        0.0791015625,      -32.3486328125,      -10.4980468750,       81.6650390625
1494295547.0192329884,       -0.6279296875,        0.4667968750,        0.0791015625,      -26.7486572266,      -10.2386474609,       79.3457031250
1494295547.0217969418,       -0.6279296875,        0.4667968750,        0.0791015625,      -26.7486572266,      -10.2386474609,       79.3457031250
1494295547.0243530273,       -0.6791992188,        0.4404296875,        0.0776367188,      -22.2167968750,      -10.4370117188,       77.8350830078
1494295547.0269150734,       -0.6791992188,        0.4404296875,        0.0776367188,      -22.2167968750,      -10.4370117188,       77.8350830078
1494295547.0295910835,       -0.6791992188,        0.4404296875,        0.0776367188,      -18.3105468750,      -10.5590820312,       75.3631591797
1494295547.0322830677,       -0.6791992188,        0.4404296875,        0.0776367188,      -18.0206298828,      -10.5590820312,       75.3631591797
1494295547.0348498821,       -0.6777343750,        0.4467773438,        0.0830078125,      -18.0206298828,      -10.5590820312,       71.3958740234
1494295547.0374119282,       -0.6777343750,        0.4467773438,        0.0830078125,      -15.3503417969,       -9.2926025391,       71.3958740234
1494295547.0399780273,       -0.6777343750,        0.4467773438,        0.0830078125,      -15.3503417969,       -9.2926025391,       66.9708251953
1494295547.0428049564,       -0.6777343750,        0.4467773438,        0.0830078125,      -14.9993896484,       -8.6975097656,       66.9708251953
1494295547.0455050468,       -0.6547851562,        0.4936523438,        0.0219726562,      -14.9993896484,       -8.6975097656,       61.6912841797
1494295547.0482039452,       -0.6547851562,        0.4936523438,        0.0219726562,      -15.5181884766,       -8.1787109375,       61.6912841797
1494295547.0509450436,       -0.6547851562,        0.4936523438,        0.0219726562,      -15.5181884766,       -8.1787109375,       56.4727783203
1494295547.0536460876,       -0.6547851562,        0.4936523438,        0.0410156250,      -15.8538818359,       -8.0108642578,       56.4727783203
1494295547.0563440323,       -0.5947265625,        0.5043945312,        0.0410156250,      -15.8538818359,       -8.0108642578,       51.8341064453
1494295547.0590379238,       -0.5947265625,        0.5043945312,        0.0410156250,      -18.3105468750,       -7.6751708984,       51.8341064453
1494295547.0617520809,       -0.5947265625,        0.5043945312,        0.0410156250,      -18.3105468750,       -7.6751708984,       46.6918945312
1494295547.0644490719,       -0.5947265625,        0.4960937500,        0.0913085938,      -21.4233398438,       -6.9732666016,       46.6918945312
1494295547.0671460629,       -0.5732421875,        0.4960937500,        0.0913085938,      -21.4233398438,       -6.9732666016,       41.2292480469
1494295547.0698499680,       -0.5732421875,        0.4960937500,        0.0913085938,      -22.3236083984,       -5.5847167969,       41.2292480469
1494295547.0724689960,       -0.5732421875,        0.4960937500,        0.0913085938,      -22.3236083984,       -5.5847167969,       37.3229980469
1494295547.0750319958,       -0.5493164062,        0.5576171875,        0.1503906250,      -22.5067138672,       -4.9591064453,       35.7360839844
1494295547.0775868893,       -0.5493164062,        0.5576171875,        0.1503906250,      -22.5067138672,       -4.9591064453,       35.7360839844
1494295547.0801389217,       -0.5493164062,        0.5576171875,        0.1503906250,      -20.9808349609,       -5.5541992188,       29.3426513672
1494295547.0827989578,       -0.5493164062,        0.5576171875,        0.1503906250,      -20.9808349609,       -5.5541992188,       29.3426513672
1494295547.0853569508,       -0.5966796875,        0.6381835938,        0.1625976562,      -16.4337158203,       -6.0424804688,       22.2473144531
1494295547.0879120827,       -0.5966796875,        0.6381835938,        0.1625976562,      -16.4337158203,       -6.0424804688,       22.2473144531
1494295547.0904688835,       -0.5966796875,        0.6381835938,        0.1625976562,      -10.4522705078,       -6.1187744141,       15.0299072266
1494295547.0932009220,       -0.5966796875,        0.6381835938,        0.1625976562,      -10.4522705078,       -6.1187744141,       15.0299072266
1494295547.0958900452,       -0.6733398438,        0.6157226562,        0.1005859375,       -4.5623779297,       -6.2866210938,        7.6141357422
1494295547.0987200737,       -0.6733398438,        0.6157226562,        0.1005859375,       -4.5623779297,       -6.2866210938,        7.6141357422
1494295547.1017971039,       -0.6733398438,        0.6157226562,        0.1005859375,       -1.7089843750,       -6.1798095703,        0.5035400391
1494295547.1045579910,       -0.6733398438,        0.6005859375,        0.0781250000,       -1.7089843750,       -6.1798095703,        0.5035400391
1494295547.1072089672,       -0.6723632812,        0.6005859375,        0.0781250000,       -1.2207031250,       -4.4860839844,       -6.6528320312
1494295547.1098530293,       -0.6723632812,        0.6005859375,        0.0781250000,       -1.2207031250,       -4.4860839844,       -6.6528320312
1494295547.1126151085,       -0.6723632812,        0.6005859375,        0.0781250000,       -0.7629394531,       -2.4719238281,      -14.7399902344
1494295547.1153099537,       -0.6689453125,        0.6372070312,        0.1215820312,       -0.7629394531,       -2.4719238281,      -14.7399902344
1494295547.1180028915,       -0.6689453125,        0.6372070312,        0.1215820312,        1.2664794922,       -0.7324218750,      -23.2849121094
1494295547.1207048893,       -0.6689453125,        0.6372070312,        0.1215820312,        1.2664794922,       -0.7324218750,      -23.2849121094
1494295547.1232550144,       -0.6689453125,        0.6372070312,        0.1215820312,        5.4473876953,        0.7476806641,      -32.7453613281
1494295547.1258089542,       -0.6743164062,        0.6528320312,        0.1933593750,        5.4473876953,        0.7476806641,      -32.7453613281
1494295547.1283600330,       -0.6743164062,        0.6528320312,        0.1933593750,       10.8032226562,        2.9449462891,      -42.6940917969
1494295547.1309580803,       -0.6743164062,        0.6528320312,        0.1933593750,       10.8032226562,        2.9449462891,      -42.6940917969
1494295547.1335120201,       -0.6743164062,        0.6528320312,        0.1933593750,       16.0980224609,        5.8288574219,      -53.5736083984
1494295547.1360650063,       -0.7290039062,        0.6840820312,        0.1884765625,       16.0980224609,        5.8288574219,      -53.5736083984
1494295547.1386210918,       -0.7290039062,        0.6840820312,        0.1884765625,       20.5993652344,        8.7432861328,      -64.8040771484
1494295547.1411828995,       -0.7290039062,        0.6840820312,        0.1884765625,       20.5993652344,        8.7432861328,      -64.8040771484
1494295547.1437389851,       -0.7290039062,        0.6840820312,        0.1884765625,       20.5993652344,       12.5122070312,      -76.0955810547
1494295547.1463060379,       -0.7871093750,        0.6777343750,        0.1503906250,       23.6511230469,       12.5122070312,      -76.0955810547
1494295547.1488640308,       -0.7871093750,        0.6777343750,        0.1503906250,       23.6511230469,       12.5122070312,      -86.8988037109
1494295547.1515491009,       -0.7871093750,        0.6777343750,        0.1503906250,       26.7028808594,       17.1051025391,      -86.8988037109
1494295547.1541099548,       -0.7871093750,        0.6777343750,        0.1503906250,       26.7028808594,       17.1051025391,      -98.6175537109
1494295547.1566679478,       -0.8032226562,        0.6870117188,        0.1064453125,       27.9388427734,       22.5677490234,      -97.8393554688
1494295547.1592359543,       -0.8032226562,        0.6870117188,        0.1064453125,       27.9388427734,       22.5677490234,     -105.6518554688
1494295547.1619729996,       -0.8032226562,        0.6870117188,        0.1064453125,       26.3214111328,       28.8696289062,     -108.6578369141
1494295547.1646699905,       -0.8032226562,        0.6870117188,        0.1191406250,       26.3214111328,       28.8696289062,     -108.6578369141
1494295547.1673779488,       -0.9028320312,        0.7949218750,        0.1191406250,       24.3835449219,       34.3780517578,     -120.0561523438
1494295547.1700770855,       -0.9028320312,        0.7949218750,        0.1191406250,       24.3835449219,       34.3780517578,     -120.0561523438
1494295547.1726861000,       -0.9028320312,        0.7949218750,        0.1191406250,       26.9470214844,       38.7420654297,     -130.9051513672
1494295547.1752500534,       -0.9028320312,        0.8735351562,        0.1186523438,       26.9470214844,       38.7420654297,     -130.9051513672
1494295547.1779179573,       -1.1293945312,        0.8735351562,        0.1186523438,       36.2396240234,       42.4346923828,     -140.3350830078
1494295547.1804850101,       -1.1293945312,        0.8735351562,        0.1186523438,       36.2396240234,       42.4346923828,     -140.3350830078
1494295547.1832139492,       -1.1293945312,        0.8735351562,        0.1186523438,       44.5098876953,       46.2646484375,     -147.4151611328
1494295547.1859180927,       -1.5625000000,        0.9169921875,        0.0512695312,       44.5098876953,       46.2646484375,     -147.4151611328
1494295547.1886260509,       -1.5625000000,        0.9169921875,        0.0512695312,       53.4362792969,       46.3714599609,     -154.0832519531
1494295547.1913421154,       -1.5625000000,        0.9169921875,        0.0512695312,       53.4362792969,       46.3714599609,     -154.0832519531
1494295547.1939060688,       -1.5625000000,        0.9169921875,        0.0512695312,       71.6705322266,       44.4183349609,     -159.1186523438
1494295547.1964700222,       -2.0434570312,        0.6538085938,        0.0634765625,       71.6705322266,       44.4183349609,     -159.1186523438
1494295547.1990320683,       -2.0434570312,        0.6538085938,        0.0634765625,       89.0960693359,       43.8690185547,     -162.1551513672
1494295547.2018029690,       -2.0434570312,        0.6538085938,        0.0634765625,       89.0960693359,       43.8690185547,     -162.1551513672
1494295547.2043640614,       -2.0434570312,        0.6538085938,        0.0634765625,      104.7821044922,       40.4815673828,     -162.8875732422
1494295547.2069211006,       -2.1718750000,        0.3491210938,        0.0209960938,      104.7821044922,       40.4815673828,     -162.8875732422
1494295547.2094869614,       -2.1718750000,        0.3491210938,        0.0209960938,      119.3847656250,       35.5529785156,     -162.0483398438
1494295547.2121829987,       -2.1718750000,        0.3491210938,        0.0209960938,      119.3847656250,       35.5529785156,     -162.0483398438
1494295547.2148859501,       -2.1718750000,        0.3491210938,        0.0029296875,      130.9356689453,       28.4118652344,     -162.5976562500
1494295547.2176759243,       -1.9643554688,       -0.0654296875,        0.0029296875,      130.9356689453,       28.4118652344,     -162.5976562500
1494295547.2208030224,       -1.9643554688,       -0.0654296875,        0.0029296875,      141.7541503906,       18.0358886719,     -168.0755615234
1494295547.2233679295,       -1.9643554688,       -0.0654296875,        0.0029296875,      141.7541503906,       18.0358886719,     -168.0755615234
1494295547.2259280682,       -1.6474609375,       -0.4633789062,       -0.0253906250,      152.4963378906,        7.9040527344,     -176.8798828125
1494295547.2284920216,       -1.6474609375,       -0.4633789062,       -0.0253906250,      152.4963378906,        7.9040527344,     -176.8798828125
1494295547.2310659885,       -1.6474609375,       -0.4633789062,       -0.0253906250,      160.3088378906,        3.1127929688,     -184.4787597656
1494295547.2337589264,       -1.6474609375,       -0.4633789062,       -0.0253906250,      162.3535156250,        3.1127929688,     -184.4787597656
1494295547.2364580631,       -1.2148437500,       -0.4770507812,       -0.0395507812,      166.2597656250,        2.6092529297,     -190.3076171875
1494295547.2391560078,       -1.2148437500,       -0.4770507812,       -0.0395507812,      166.3055419922,        2.6092529297,     -190.3076171875
1494295547.2418639660,       -1.2148437500,       -0.4770507812,       -0.0395507812,      166.3055419922,        2.1972656250,     -195.6024169922
1494295547.2445569038,       -1.2148437500,       -0.4770507812,       -0.0395507812,      166.7633056641,        2.1972656250,     -195.6024169922
1494295547.2472538948,       -0.7792968750,       -0.3808593750,       -0.1269531250,      166.7633056641,        4.4708251953,     -200.6835937500
1494295547.2500560284,       -0.7792968750,       -0.3808593750,       -0.1269531250,      164.7949218750,        4.4708251953,     -200.6835937500
1494295547.2526619434,       -0.7792968750,       -0.3808593750,       -0.1269531250,      164.7949218750,        8.8653564453,     -201.8127441406
1494295547.2552149296,       -0.7792968750,       -0.3808593750,       -0.2246093750,      152.5421142578,        8.8653564453,     -201.8127441406
1494295547.2577741146,       -0.4985351562,       -0.0708007812,       -0.2246093750,      152.5421142578,        8.8653564453,     -195.7092285156
1494295547.2603271008,       -0.4985351562,       -0.0708007812,       -0.2246093750,      128.9367675781,       15.3656005859,     -195.7092285156
1494295547.2629029751,       -0.4985351562,       -0.0708007812,       -0.2246093750,      128.9367675781,       15.3656005859,     -176.1779785156
1494295547.2654659748,       -0.4985351562,       -0.0708007812,       -0.2094726562,       98.8464355469,       25.2838134766,     -179.1229248047
1494295547.2680180073,       -0.4394531250,        0.0463867188,       -0.2094726562,       98.8464355469,       25.2838134766,     -179.1229248047
1494295547.2705729008,       -0.4394531250,        0.0463867188,       -0.2094726562,       62.2711181641,       35.3698730469,     -156.4178466797
1494295547.2732300758,       -0.4394531250,        0.0463867188,       -0.2094726562,       62.2711181641,       35.3698730469,     -156.4178466797
1494295547.2757880688,       -0.4394531250,       -0.0786132812,       -0.0810546875,       20.8740234375,       42.7703857422,     -135.8489990234
1494295547.2783510685,       -0.4804687500,       -0.0205078125,       -0.0810546875,       20.8740234375,       42.7703857422,     -135.8489990234
1494295547.2810831070,       -0.4804687500,       -0.0205078125,       -0.0810546875,      -18.2952880859,       48.3551025391,     -119.9645996094
1494295547.2837951183,       -0.4804687500,       -0.0205078125,       -0.0810546875,      -18.2952880859,       48.3551025391,     -119.9645996094
1494295547.2864990234,       -0.4472656250,        0.1782226562,        0.1015625000,      -58.3343505859,       50.9796142578,     -103.7597656250
1494295547.2892000675,       -0.4472656250,        0.1782226562,        0.1015625000,      -58.3343505859,       50.9796142578,     -103.7597656250
1494295547.2919518948,       -0.4472656250,        0.1782226562,        0.1015625000,      -96.7254638672,       49.0112304688,      -86.7004394531
1494295547.2946450710,       -0.4472656250,        0.1782226562,        0.1015625000,      -96.7254638672,       49.0112304688,      -86.7004394531
1494295547.2973439693,       -0.3100585938,        0.3964843750,        0.2734375000,     -126.1138916016,       42.9229736328,      -69.7174072266
1494295547.3000500202,       -0.3100585938,        0.3964843750,        0.2734375000,     -126.1138916016,       42.9229736328,      -69.7174072266
1494295547.3027660847,       -0.3100585938,        0.3964843750,        0.2734375000,     -142.2729492188,       35.8581542969,      -54.1381835938
1494295547.3054740429,       -0.3100585938,        0.3964843750,        0.1484375000,     -142.2729492188,       35.8581542969,      -54.1381835938
1494295547.3081688881,       -0.0927734375,        0.5639648438,        0.2309570312,     -146.3317871094,       26.8096923828,      -40.5120849609
1494295547.3109240532,       -0.0927734375,        0.5639648438,        0.2309570312,     -146.3317871094,       26.8096923828,      -40.5120849609
1494295547.3134930134,       -0.0927734375,        0.5639648438,        0.2309570312,     -141.0827636719,       17.8527832031,      -26.8249511719
1494295547.3160541058,       -0.0927734375,        0.9389648438,        0.1894531250,     -141.0827636719,       17.8527832031,      -26.8249511719
1494295547.3186149597,       -0.0727539062,        0.9238281250,        0.1894531250,     -131.3629150391,       10.7116699219,      -11.1694335938
1494295547.3212931156,       -0.0727539062,        0.9238281250,        0.1894531250,     -131.3629150391,       10.7116699219,      -11.1694335938
1494295547.3239669800,       -0.0727539062,        0.9238281250,        0.1894531250,     -117.5689697266,        5.0811767578,        2.4261474609
1494295547.3265230656,       -0.0727539062,        0.7958984375,        0.1572265625,     -117.5689697266,        5.0811767578,        2.4261474609
1494295547.3290760517,       -0.0693359375,        0.7958984375,        0.1572265625,     -101.9439697266,        0.5187988281,       12.6037597656
1494295547.3316860199,       -0.0693359375,        0.7958984375,        0.1572265625,     -102.2796630859,        0.5187988281,       12.6037597656
1494295547.3343760967,       -0.0693359375,        0.7958984375,        0.1572265625,      -90.5609130859,       -4.3792724609,       17.8375244141
1494295547.3371610641,       -0.1547851562,        0.4121093750,        0.0229492188,      -90.6219482422,       -4.3792724609,       17.8375244141
1494295547.3398621082,       -0.1547851562,        0.4121093750,        0.0229492188,      -78.9031982422,       -9.3231201172,       21.4843750000
1494295547.3428070545,       -0.1547851562,        0.4121093750,        0.0229492188,      -81.8328857422,       -9.3231201172,       21.4843750000
1494295547.3455040455,       -0.1547851562,        0.4121093750,        0.0229492188,      -71.9451904297,      -12.3596191406,       24.8870849609
1494295547.3482120037,       -0.1953125000,        0.1772460938,       -0.0278320312,      -71.9451904297,      -12.3596191406,       24.8870849609
1494295547.3509509563,       -0.1953125000,        0.1772460938,       -0.0278320312,      -60.2874755859,      -13.7786865234,       26.6876220703
1494295547.3536500931,       -0.1953125000,        0.1772460938,       -0.0278320312,      -60.2874755859,      -13.7786865234,       26.6876220703
1494295547.3563599586,       -0.1953125000,        0.0522460938,       -0.1020507812,      -46.9360351562,      -13.8854980469,       26.9012451172
1494295547.3590629101,       -0.1777343750,        0.0820312500,       -0.1020507812,      -46.9360351562,      -13.8854980469,       26.9012451172
1494295547.3617830276,       -0.1777343750,        0.0820312500,       -0.1020507812,      -33.0810546875,      -13.0462646484,       25.6805419922
1494295547.3644840717,       -0.1777343750,        0.0820312500,       -0.1020507812,      -33.0810546875,      -13.0462646484,       25.6805419922
1494295547.3671870232,       -0.1123046875,        0.0122070312,       -0.1235351562,      -19.1802978516,      -11.1846923828,       24.1241455078
1494295547.3698990345,       -0.1123046875,        0.0122070312,       -0.1235351562,      -19.1802978516,      -11.1846923828,       24.1241455078
1494295547.3725230694,       -0.1123046875,        0.0122070312,       -0.1235351562,       -7.4615478516,       -9.6130371094,       21.7132568359
1494295547.3750770092,       -0.1123046875,        0.0122070312,       -0.1235351562,       -5.9967041016,       -9.6130371094,       21.7132568359
1494295547.3776330948,       -0.0507812500,       -0.1118164062,       -0.1093750000,       -5.9967041016,       -9.6130371094,       18.0816650391
1494295547.3801848888,       -0.0507812500,       -0.1118164062,       -0.1093750000,        5.2185058594,       -8.0566406250,       18.0816650391
1494295547.3827478886,       -0.0507812500,       -0.1118164062,       -0.1093750000,        5.2185058594,       -8.0566406250,       13.7939453125
1494295547.3854079247,       -0.0507812500,       -0.1118164062,       -0.1093750000,       13.7176513672,       -6.7749023438,       13.7939453125
1494295547.3879630566,       -0.0449218750,       -0.2290039062,       -0.1142578125,       13.7176513672,       -6.7749023438,       13.7939453125
1494295547.3905220032,       -0.0449218750,       -0.2290039062,       -0.1142578125,       18.8751220703,       -5.9051513672,        9.2773437500
1494295547.3932080269,       -0.0449218750,       -0.2290039062,       -0.1142578125,       18.8751220703,       -5.9051513672,        9.2773437500
1494295547.3957669735,       -0.0449218750,       -0.2290039062,       -0.1142578125,       21.4385986328,       -6.0119628906,        3.9672851562
1494295547.3984360695,       -0.0458984375,       -0.2934570312,       -0.1254882812,       21.4385986328,       -6.0119628906,        3.9672851562
1494295547.4011299610,       -0.0458984375,       -0.2934570312,       -0.1254882812,       22.6745605469,       -5.2795410156,       -1.3122558594
1494295547.4038450718,       -0.0458984375,       -0.2934570312,       -0.1254882812,       22.6745605469,       -5.2795410156,       -1.3122558594
1494295547.4065380096,       -0.0458984375,       -0.2934570312,       -0.1528320312,       23.4222412109,       -4.3792724609,       -7.9498291016
1494295547.4092309475,       -0.0297851562,       -0.2817382812,       -0.1528320312,       23.4222412109,       -4.3792724609,       -7.9498291016
1494295547.4119141102,       -0.0297851562,       -0.2817382812,       -0.1528320312,       22.7661132812,       -3.6621093750,      -14.6789550781
1494295547.4144749641,       -0.0297851562,       -0.2817382812,       -0.1528320312,       22.7661132812,       -3.6621093750,      -14.6789550781
1494295547.4170279503,       -0.0297851562,       -0.2041015625,       -0.1801757812,       21.7895507812,       -2.2430419922,      -20.7214355469
1494295547.4195849895,       -0.0136718750,       -0.2041015625,       -0.1801757812,       21.7895507812,       -2.2430419922,      -20.7214355469
1494295547.4222431183,       -0.0136718750,       -0.2041015625,       -0.1801757812,       21.2554931641,       -0.3051757812,      -26.3671875000
1494295547.4249489307,       -0.0136718750,       -0.2041015625,       -0.1801757812,       21.2554931641,       -0.3051757812,      -26.3671875000
1494295547.4276471138,       -0.0009765625,       -0.1196289062,       -0.1767578125,       20.5535888672,        1.3885498047,      -30.6854248047
1494295547.4303491116,       -0.0009765625,       -0.1196289062,       -0.1767578125,       20.5535888672,        1.3885498047,      -30.6854248047
1494295547.4329459667,       -0.0009765625,       -0.1196289062,       -0.1767578125,       20.2484130859,        3.6773681641,      -34.2559814453
1494295547.4354989529,       -0.0009765625,       -0.1196289062,       -0.1767578125,       20.2484130859,        3.6773681641,      -34.2559814453
1494295547.4380569458,       -0.0112304688,       -0.0268554688,       -0.1450195312,       19.6838378906,        5.5084228516,      -36.7736816406
1494295547.4406220913,       -0.0112304688,       -0.0268554688,       -0.1450195312,       19.6838378906,        5.5084228516,      -36.7736816406
1494295547.4433848858,       -0.0112304688,       -0.0268554688,       -0.1450195312,       19.0582275391,        7.1868896484,      -38.1774902344
1494295547.4460821152,       -0.0112304688,       -0.0268554688,       -0.1450195312,       19.0582275391,        7.1868896484,      -38.1774902344
1494295547.4487791061,       -0.0302734375,        0.0654296875,       -0.1010742188,       19.3634033203,        8.4228515625,      -39.0930175781
1494295547.4514820576,       -0.0302734375,        0.0654296875,       -0.1010742188,       19.3634033203,        8.4228515625,      -39.0930175781
1494295547.4541881084,       -0.0302734375,        0.0654296875,       -0.1010742188,       23.2696533203,       10.2691650391,      -39.1693115234
1494295547.4569900036,       -0.0302734375,        0.0654296875,       -0.0444335938,       20.6909179688,       10.2691650391,      -39.1693115234
1494295547.4597051144,       -0.0380859375,        0.1503906250,       -0.0444335938,       22.3236083984,       11.4288330078,      -38.7725830078
1494295547.4625229836,       -0.0380859375,        0.1503906250,       -0.0444335938,       22.3236083984,       11.4288330078,      -38.7725830078
1494295547.4650800228,       -0.0380859375,        0.1503906250,       -0.0444335938,       22.3236083984,       10.8947753906,      -36.9415283203
1494295547.4676489830,       -0.0380859375,        0.2358398438,        0.0400390625,       22.8729248047,       10.8947753906,      -36.9415283203
1494295547.4703071117,       -0.0322265625,        0.2358398438,        0.0400390625,       22.8729248047,        8.8043212891,      -34.3017578125
1494295547.4730110168,       -0.0322265625,        0.2358398438,        0.0400390625,       23.0560302734,        8.8043212891,      -34.3017578125
1494295547.4757130146,       -0.0322265625,        0.2358398438,        0.0400390625,       23.0560302734,        7.3089599609,      -30.5786132812
1494295547.4784080982,       -0.0625000000,        0.2963867188,        0.0522460938,       25.3601074219,        7.3089599609,      -30.5786132812
1494295547.4811689854,       -0.0625000000,        0.2963867188,        0.0522460938,       25.3601074219,        5.9967041016,      -25.8026123047
1494295547.4838619232,       -0.0625000000,        0.2963867188,        0.0522460938,       27.6794433594,        5.9967041016,      -25.8026123047
1494295547.4865550995,       -0.0625000000,        0.2963867188,        0.0522460938,       27.6794433594,        4.3182373047,      -20.6146240234
1494295547.4892530441,       -0.0541992188,        0.3393554688,        0.0517578125,       28.9916992188,        4.3182373047,      -20.6146240234
1494295547.4918990135,       -0.0541992188,        0.3393554688,        0.0517578125,       28.9916992188,        0.4119873047,      -14.6942138672
1494295547.4944550991,       -0.0541992188,        0.3393554688,        0.0517578125,       31.1889648438,        3.3721923828,      -14.6942138672
1494295547.4970180988,       -0.0541992188,        0.3393554688,        0.0517578125,       31.1889648438,        3.3721923828,       -8.6212158203
1494295547.4995729923,       -0.0356445312,        0.3110351562,        0.0268554688,       34.4238281250,        2.7618408203,       -8.6212158203
1494295547.5021378994,       -0.0356445312,        0.3110351562,        0.0268554688,       34.4238281250,        2.7618408203,       -8.6212158203
1494295547.5046908855,       -0.0356445312,        0.3110351562,        0.0268554688,       36.5753173828,        3.4484863281,       -2.8228759766
1494295547.5072441101,       -0.0356445312,        0.3110351562,       -0.0981445312,       36.5753173828,        3.4484863281,       -2.8228759766
1494295547.5098030567,       -0.0375976562,        0.2138671875,       -0.0615234375,       40.6036376953,        5.3100585938,        1.9989013672
1494295547.5124609470,       -0.0375976562,        0.2138671875,       -0.0615234375,       40.6036376953,        5.3100585938,        1.9989013672
1494295547.5150139332,       -0.0375976562,        0.2138671875,       -0.0615234375,       46.8444824219,        7.7667236328,        6.2103271484
1494295547.5175669193,       -0.0375976562,        0.2138671875,       -0.3295898438,       46.8444824219,        7.7667236328,        6.2103271484
1494295547.5201220512,       -0.1499023438,        0.3549804688,       -0.3295898438,       52.3376464844,       13.4277343750,       11.3067626953
1494295547.5229110718,       -0.1499023438,        0.3549804688,       -0.3295898438,       52.3376464844,       13.4277343750,       11.3067626953
1494295547.5256090164,       -0.1499023438,        0.3549804688,       -0.3295898438,       37.1246337891,       20.5841064453,       31.7535400391
1494295547.5283079147,       -0.0249023438,        1.5981445312,       -0.1137695312,       37.1246337891,       20.5841064453,       31.7535400391
1494295547.5310230255,       -0.1025390625,        1.5981445312,       -0.1137695312,      -15.7928466797,       18.1274414062,       65.5975341797
1494295547.5337250233,       -0.1025390625,        1.5981445312,       -0.1137695312,      -15.7928466797,       18.1274414062,       65.5975341797
1494295547.5364210606,       -0.1025390625,        1.5981445312,       -0.1137695312,      -44.0521240234,       39.3524169922,      111.8774414062
1494295547.5391271114,       -0.5634765625,        7.2260742188,        1.9868164062,      -44.0521240234,       39.3524169922,      111.8774414062
1494295547.5418369770,       -0.5634765625,        7.2260742188,        1.9868164062,     -136.8408203125,       -0.5340576172,      234.2834472656
1494295547.5446529388,       -0.5634765625,        7.2260742188,        1.9868164062,     -136.8408203125,       -0.5340576172,      234.2834472656
1494295547.5473520756,       -0.5634765625,        7.2260742188,        1.9868164062,     -215.1336669922,      -40.1306152344,      293.1060791016
1494295547.5500459671,       -1.4946289062,       -1.0644531250,        0.1118164062,     -215.1336669922,      -40.1306152344,      293.1060791016
1494295547.5526831150,       -1.4946289062,       -1.0644531250,        0.1118164062,       66.0400390625,      -43.1518554688,      195.2514648438
1494295547.5552449226,       -1.4946289062,       -1.0644531250,        0.1118164062,       66.0400390625,      -43.1518554688,      195.2514648438
1494295547.5578000546,       -1.4946289062,       -1.0644531250,       -0.1601562500,       42.1600341797,      -76.2329101562,      127.4871826172
1494295547.5603599548,       -2.4121093750,       -3.2065429688,       -0.1601562500,       42.1600341797,      -76.2329101562,      127.4871826172
1494295547.5630199909,       -2.4121093750,       -3.2065429688,       -0.1601562500,      -51.5899658203,      -60.4400634766,      104.5684814453
1494295547.5655789375,       -2.4121093750,       -3.2065429688,       -0.1601562500,      -51.2542724609,      -60.4400634766,      104.5684814453
1494295547.5681400299,       -2.4121093750,       -2.4565429688,       -0.3984375000,      -51.2542724609,      -33.0963134766,      103.7292480469
1494295547.5707199574,       -1.3159179688,       -2.4692382812,       -0.3984375000,      -57.0373535156,      -31.9976806641,      103.7292480469
1494295547.5734179020,       -1.3159179688,       -2.4692382812,       -0.3984375000,      -57.0373535156,      -31.9976806641,      101.8676757812
1494295547.5761139393,       -1.3159179688,       -2.4692382812,       -0.3984375000,     -100.7690429688,      -24.5971679688,      101.8676757812
1494295547.5789110661,       -1.0659179688,        0.5507812500,        1.0869140625,     -100.7690429688,      -32.4096679688,      100.2349853516
1494295547.5816779137,       -1.0659179688,        0.5507812500,        1.0869140625,     -121.4294433594,      -33.4472656250,      100.2349853516
1494295547.5843839645,       -1.0659179688,        0.5507812500,        1.0869140625,     -121.4294433594,      -41.2597656250,       93.7957763672
1494295547.5870850086,       -1.0659179688,        0.5507812500,        1.0869140625,     -115.4785156250,      -40.6494140625,       93.7957763672
1494295547.5897789001,       -1.3300781250,        0.4252929688,       -0.3979492188,     -115.4785156250,      -44.5556640625,       77.7435302734
1494295547.5924770832,       -1.3300781250,        0.4252929688,       -0.3979492188,     -115.5395507812,      -46.1578369141,       77.7435302734
1494295547.5951750278,       -1.3300781250,        0.4252929688,       -0.3979492188,     -115.5395507812,      -46.1578369141,       74.8901367188
1494295547.5978751183,       -1.3300781250,        0.4252929688,       -0.5229492188,     -108.0780029297,      -42.2821044922,       74.8901367188
1494295547.6005790234,       -1.6235351562,        0.2846679688,       -0.5576171875,     -108.0780029297,      -42.2821044922,       76.2023925781
1494295547.6031410694,       -1.6235351562,        0.2846679688,       -0.5576171875,     -102.9357910156,      -17.3950195312,       76.2023925781
1494295547.6057000160,       -1.6235351562,        0.2846679688,       -0.5576171875,     -102.9357910156,      -17.3950195312,       80.1086425781
1494295547.6082589626,       -1.6235351562,        0.2846679688,        0.0815429688,     -103.5766601562,        5.7830810547,       81.0089111328
1494295547.6108119488,       -2.0107421875,        1.1591796875,        0.0815429688,     -103.5766601562,        5.7830810547,       81.0089111328
1494295547.6133670807,       -2.0107421875,        1.1591796875,        0.0815429688,     -113.7237548828,      -11.5203857422,      101.0131835938
1494295547.6159238815,       -2.0107421875,        1.1591796875,        0.0815429688,     -113.7237548828,      -11.5203857422,      101.0131835938
1494295547.6185920238,       -2.0107421875,       -1.7158203125,       -1.3505859375,     -163.3453369141,      -47.6531982422,      108.0474853516
1494295547.6211791039,       -5.9897460938,       -1.6948242188,       -1.3505859375,     -163.3453369141,      -47.6531982422,      108.0474853516
1494295547.6237380505,       -5.9897460938,       -1.6948242188,       -1.3505859375,      -57.0983886719,      -27.0690917969,       90.4693603516
1494295547.6262938976,       -5.9897460938,       -1.6948242188,       -1.3505859375,      -57.0983886719,      -27.0690917969,       90.4693603516
1494295547.6288549900,       -5.9897460938,       -0.2192382812,       -0.4287109375,       -9.6893310547,       -8.1787109375,      104.8126220703
1494295547.6315109730,       -0.8212890625,       -0.2192382812,       -0.4287109375,       -9.6893310547,       -8.1787109375,      104.8126220703
1494295547.6340599060,       -0.8212890625,       -0.2192382812,       -0.4287109375,     -141.7083740234,      -17.8833007812,       78.6285400391
1494295547.6366240978,       -0.8212890625,       -0.2192382812,       -0.4287109375,     -141.7083740234,      -17.8833007812,       78.6285400391
1494295547.6391839981,        0.0537109375,        1.6459960938,        0.1381835938,     -169.0521240234,      -24.9786376953,       57.3730468750
1494295547.6418581009,        0.0590820312,        1.6459960938,        0.1381835938,     -168.3502197266,      -24.9786376953,       57.3730468750
1494295547.6444199085,        0.0590820312,        1.6459960938,        0.1381835938,     -168.3502197266,      -28.8848876953,       43.7469482422
1494295547.6469841003,        0.0590820312,        1.6459960938,        0.1381835938,     -106.2316894531,      -28.4423828125,       43.7469482422
1494295547.6495440006,       -0.0253906250,        1.4931640625,        0.1625976562,     -106.2316894531,      -28.4423828125,       32.4859619141
1494295547.6522068977,       -0.0253906250,        1.4931640625,        0.1625976562,      -46.9970703125,      -26.5350341797,       32.4859619141
1494295547.6549069881,       -0.0253906250,        1.4931640625,        0.1625976562,      -46.9970703125,      -26.5350341797,       26.2145996094
1494295547.6576139927,       -0.0253906250,        1.4931640625,        0.1625976562,       -3.3264160156,      -20.7977294922,       26.2145996094
1494295547.6603040695,       -0.0058593750,        0.4218750000,        0.5400390625,       -3.3264160156,      -20.7977294922,        9.1857910156
1494295547.6630120277,       -0.0058593750,        0.4218750000,        0.5400390625,        1.4648437500,      -18.7530517578,        9.1857910156
1494295547.6657071114,       -0.0058593750,        0.4218750000,        0.5400390625,        1.4648437500,      -18.7530517578,      -11.3983154297
1494295547.6684041023,       -0.0058593750,        0.4218750000,        0.7900390625,       -3.4942626953,      -14.8925781250,      -11.3983154297
1494295547.6711380482,       -0.0590820312,        0.7348632812,        0.7905273438,       -3.4942626953,      -14.8925781250,      -27.0233154297
1494295547.6736910343,       -0.0590820312,        0.7348632812,        0.7905273438,        7.8125000000,      -14.8010253906,      -27.3437500000
1494295547.6762449741,       -0.0590820312,        0.7348632812,        0.7905273438,        7.8125000000,      -14.8010253906,      -27.3437500000
1494295547.6788070202,       -0.0590820312,        0.7348632812,        0.3940429688,       35.7971191406,      -14.2364501953,      -42.5720214844
1494295547.6815838814,       -0.5166015625,        0.8198242188,        0.3940429688,       35.7971191406,      -14.2364501953,      -42.5720214844
1494295547.6841480732,       -0.5166015625,        0.8198242188,        0.3940429688,       61.8591308594,      -14.2974853516,      -54.9774169922
1494295547.6867079735,       -0.5166015625,        0.8198242188,        0.3940429688,       61.8591308594,      -14.2974853516,      -54.9774169922
1494295547.6893720627,       -0.5166015625,        0.5424804688,       -0.0039062500,       75.4241943359,      -11.5966796875,      -64.6362304688
1494295547.6920640469,       -0.8798828125,        0.5424804688,       -0.0039062500,       75.4241943359,      -11.5966796875,      -64.6362304688
1494295547.6946249008,       -0.8798828125,        0.5424804688,       -0.0039062500,       77.2399902344,       -4.1351318359,      -69.9920654297
1494295547.6973679066,       -0.8798828125,        0.5424804688,       -0.0039062500,       77.2399902344,       -4.1351318359,      -69.9920654297
1494295547.6999359131,       -1.0253906250,        0.1997070312,       -0.2333984375,       69.8394775391,        1.3122558594,      -72.6318359375
1494295547.7028310299,       -1.0253906250,        0.1997070312,       -0.2333984375,       69.8394775391,        1.3122558594,      -72.6318359375
1494295547.7055339813,       -1.0253906250,        0.1997070312,       -0.2333984375,       54.3518066406,        6.4544677734,      -74.1119384766
1494295547.7082290649,       -1.0253906250,        0.1997070312,       -0.2333984375,       54.3518066406,        6.4544677734,      -74.1119384766
1494295547.7109689713,       -1.0239257812,        0.0571289062,       -0.1430664062,       34.6679687500,       11.3372802734,      -73.3642578125
1494295547.7136690617,       -1.0239257812,        0.0571289062,       -0.1430664062,       34.6679687500,       11.3372802734,      -73.3642578125
1494295547.7163689137,       -1.0239257812,        0.0571289062,       -0.1430664062,       14.7857666016,       15.5334472656,      -70.4803466797
1494295547.7190759182,       -1.0239257812,        0.0571289062,        0.0737304688,       14.7857666016,       15.5334472656,      -70.4803466797
1494295547.7217819691,       -0.8842773438,        0.0444335938,        0.0737304688,       -2.5482177734,       18.6309814453,      -67.7032470703
1494295547.7244780064,       -0.8842773438,        0.0444335938,        0.0737304688,       -2.5482177734,       18.6309814453,      -67.7032470703
1494295547.7271780968,       -0.8842773438,        0.0444335938,        0.0737304688,      -14.4042968750,       20.3552246094,      -65.7653808594
1494295547.7298769951,       -0.6342773438,        0.1303710938,        0.1728515625,      -14.4042968750,       20.3552246094,      -65.7653808594
1494295547.7325010300,       -0.7480468750,        0.1303710938,        0.1728515625,      -19.7601318359,       21.6522216797,      -64.6514892578
1494295547.7350549698,       -0.7480468750,        0.1303710938,        0.1728515625,      -19.7601318359,       21.6522216797,      -64.6514892578
1494295547.7376129627,       -0.7480468750,        0.1303710938,        0.1728515625,      -17.3797607422,       21.9268798828,      -64.4531250000
1494295547.7401709557,       -0.6494140625,        0.2749023438,        0.1660156250,      -17.3797607422,       21.9268798828,      -64.4531250000
1494295547.7427420616,       -0.6494140625,        0.2749023438,        0.1660156250,       -9.5672607422,       21.3775634766,      -65.2618408203
1494295547.7452979088,       -0.6494140625,        0.2749023438,        0.1660156250,       -9.8724365234,       21.3775634766,      -65.2618408203
1494295547.7478580475,       -0.6494140625,        0.2749023438,        0.1660156250,       -9.8724365234,       21.3775634766,      -65.6127929688
1494295547.7504189014,       -0.6059570312,        0.3383789062,        0.1259765625,        1.8920898438,       20.6298828125,      -65.6127929688
1494295547.7531619072,       -0.6059570312,        0.3383789062,        0.1259765625,        1.8920898438,       16.7236328125,      -65.9942626953
1494295547.7557148933,       -0.6059570312,        0.3383789062,        0.1259765625,       16.0827636719,       19.2565917969,      -65.9942626953
1494295547.7582650185,       -0.6059570312,        0.3383789062,        0.1259765625,       16.0827636719,       19.2565917969,      -65.9942626953
1494295547.7609899044,       -0.5986328125,        0.2973632812,        0.0498046875,       29.6936035156,       17.2729492188,      -66.0858154297
1494295547.7637970448,       -0.5986328125,        0.2973632812,        0.0498046875,       29.6936035156,       17.2729492188,      -65.2465820312
1494295547.7664949894,       -0.5986328125,        0.2973632812,        0.0498046875,       41.2902832031,       15.7318115234,      -65.2465820312
1494295547.7691969872,       -0.5986328125,        0.2973632812,        0.0498046875,       41.2902832031,       15.7318115234,      -63.3850097656
1494295547.7718939781,       -0.6162109375,        0.1894531250,        0.0009765625,       48.4924316406,       14.2059326172,      -63.3850097656
1494295547.7745931149,       -0.6162109375,        0.1894531250,        0.0009765625,       48.4924316406,       14.2059326172,      -60.3637695312
1494295547.7772889137,       -0.6162109375,        0.1894531250,        0.0009765625,       50.3692626953,       12.8326416016,      -60.3637695312
1494295547.7799820900,       -0.6162109375,        0.0478515625,       -0.0375976562,       50.3692626953,       12.8326416016,      -56.6711425781
1494295547.7826850414,       -0.6479492188,        0.0478515625,       -0.0375976562,       48.1567382812,       11.5661621094,      -56.6711425781
1494295547.7853820324,       -0.6479492188,        0.0478515625,       -0.0375976562,       48.1567382812,       11.5661621094,      -52.7648925781
1494295547.7880740166,       -0.6479492188,        0.0478515625,       -0.0375976562,       40.4357910156,        9.5825195312,      -52.0935058594
1494295547.7907838821,       -0.6591796875,       -0.0395507812,       -0.0659179688,       40.4357910156,        9.5825195312,      -48.1872558594
1494295547.7933421135,       -0.6591796875,       -0.0395507812,       -0.0659179688,       29.0527343750,        8.1481933594,      -47.3022460938
1494295547.7959020138,       -0.6591796875,       -0.0395507812,       -0.0659179688,       29.0527343750,        8.1481933594,      -47.3022460938
1494295547.7984569073,       -0.6591796875,       -0.0395507812,       -0.0659179688,       17.3797607422,        7.0648193359,      -42.3583984375
1494295547.8010339737,       -0.6723632812,       -0.0517578125,       -0.0634765625,       17.3797607422,        7.0648193359,      -42.3583984375
1494295547.8037400246,       -0.6723632812,       -0.0517578125,       -0.0634765625,        7.2326660156,        5.5999755859,      -37.5518798828
1494295547.8064351082,       -0.6723632812,       -0.0517578125,       -0.0634765625,        7.2326660156,        5.5999755859,      -37.5518798828
1494295547.8091289997,       -0.6723632812,       -0.0517578125,       -0.0634765625,       -0.6256103516,        3.9367675781,      -32.8216552734
1494295547.8118369579,       -0.6689453125,       -0.0039062500,       -0.0478515625,       -0.6256103516,        3.9367675781,      -32.8216552734
1494295547.8145220280,       -0.6689453125,       -0.0039062500,       -0.0478515625,       -6.8664550781,        1.9073486328,      -28.1066894531
1494295547.8173100948,       -0.6689453125,       -0.0039062500,       -0.0478515625,       -6.8664550781,        1.9073486328,      -28.1066894531
1494295547.8200049400,       -0.6689453125,       -0.0039062500,       -0.0209960938,      -10.4064941406,        0.5187988281,      -24.1699218750
1494295547.8230059147,       -0.6694335938,        0.0244140625,       -0.0209960938,      -10.4064941406,        0.5187988281,      -24.1699218750
1494295547.8257100582,       -0.6694335938,        0.0244140625,       -0.0209960938,       -9.4909667969,        0.0610351562,      -20.8129882812
1494295547.8284029961,       -0.6694335938,        0.0244140625,       -0.0209960938,       -9.4909667969,        0.0610351562,      -20.8129882812
1494295547.8311450481,       -0.7031250000,        0.0874023438,       -0.0014648438,       -8.2550048828,       -0.8392333984,      -16.9525146484
1494295547.8338439465,       -0.7031250000,        0.0874023438,       -0.0014648438,       -8.2550048828,       -0.8392333984,      -16.9525146484
1494295547.8365380764,       -0.7031250000,        0.0874023438,       -0.0014648438,       -6.9274902344,       -1.5869140625,      -13.7329101562
1494295547.8393480778,       -0.7031250000,        0.0874023438,       -0.0014648438,       -6.9274902344,       -1.5869140625,      -13.7329101562
1494295547.8419950008,       -0.7343750000,        0.1274414062,       -0.0039062500,       -4.5623779297,       -2.3498535156,      -11.9018554688
1494295547.8445460796,       -0.7343750000,        0.1274414062,       -0.0039062500,       -4.5623779297,       -2.3498535156,      -11.9018554688
1494295547.8470950127,       -0.7343750000,        0.1274414062,       -0.0039062500,       -2.2735595703,       -3.0975341797,       -9.6435546875
1494295547.8496429920,       -0.7343750000,        0.1274414062,       -0.0039062500,       -2.2735595703,       -3.0975341797,       -9.6435546875
1494295547.8521969318,       -0.7568359375,        0.1274414062,       -0.0332031250,       -0.1373291016,       -3.5552978516,       -7.3699951172
1494295547.8547420502,       -0.7568359375,        0.1274414062,       -0.0332031250,       -0.1373291016,       -3.5552978516,       -7.3699951172
1494295547.8572900295,       -0.7568359375,        0.1274414062,       -0.0332031250,        2.1820068359,       -3.8146972656,       -5.0506591797
1494295547.8598411083,       -0.7568359375,        0.1274414062,       -0.0332031250,        2.1820068359,       -3.8146972656,       -5.0506591797
1494295547.8623969555,       -0.7626953125,        0.1206054688,       -0.0356445312,        2.1820068359,       -3.7994384766,       -3.0822753906
1494295547.8649449348,       -0.7626953125,        0.1206054688,       -0.0356445312,        1.7700195312,       -3.7994384766,       -3.0822753906
1494295547.8674979210,       -0.7626953125,        0.1206054688,       -0.0356445312,        1.7700195312,       -3.7994384766,       -1.0375976562
1494295547.8700420856,       -0.7626953125,        0.1206054688,       -0.0356445312,        0.3051757812,       -3.2806396484,       -1.0375976562
1494295547.8727691174,       -0.7675781250,        0.0888671875,       -0.0102539062,        0.3051757812,       -3.2806396484,        0.6103515625
1494295547.8753170967,       -0.7675781250,        0.0888671875,       -0.0102539062,       -1.2969970703,       -4.2419433594,        0.6103515625
1494295547.8778619766,       -0.7675781250,        0.0888671875,       -0.0102539062,       -1.2969970703,       -4.2419433594,        0.6103515625
1494295547.8804109097,       -0.7675781250,        0.0888671875,       -0.0024414062,       -2.8533935547,       -4.7607421875,        1.8310546875
1494295547.8831019402,       -0.7734375000,        0.1020507812,       -0.0024414062,       -2.8533935547,       -4.7607421875,        1.8310546875
1494295547.8857929707,       -0.7734375000,        0.1020507812,       -0.0024414062,       -5.2490234375,       -5.1727294922,        2.7465820312
1494295547.8884859085,       -0.7734375000,        0.1020507812,       -0.0024414062,       -5.2490234375,       -5.1727294922,        2.7465820312
1494295547.8911640644,       -0.6484375000,        0.1538085938,        0.0122070312,       -6.4086914062,       -5.2032470703,        3.8604736328
1494295547.8937120438,       -0.7485351562,        0.1538085938,        0.0122070312,       -6.4086914062,       -5.2032470703,        3.8604736328
1494295547.8962581158,       -0.7485351562,        0.1538085938,        0.0122070312,       -6.5002441406,       -4.7912597656,        4.6234130859
1494295547.8988039494,       -0.7485351562,        0.1538085938,        0.0122070312,       -6.5002441406,       -4.7912597656,        4.6234130859
1494295547.9014079571,       -0.7397460938,        0.1718750000,        0.0454101562,       -5.9814453125,       -4.1351318359,        4.7760009766
1494295547.9040939808,       -0.7397460938,        0.1718750000,        0.0454101562,       -5.9814453125,       -4.1351318359,        4.7760009766
1494295547.9067759514,       -0.7397460938,        0.1718750000,        0.0454101562,       -4.7302246094,       -2.9907226562,        4.7149658203
1494295547.9095630646,       -0.7397460938,        0.1718750000,        0.0454101562,       -4.7302246094,       -2.9907226562,        4.7149658203
1494295547.9122610092,       -0.7436523438,        0.1796875000,        0.0756835938,       -2.9144287109,       -2.8991699219,        4.8675537109
1494295547.9149549007,       -0.7436523438,        0.1796875000,        0.0756835938,       -2.9144287109,       -2.8991699219,        4.8675537109
1494295547.9176371098,       -0.7436523438,        0.1796875000,        0.0756835938,       -0.9460449219,       -2.0141601562,        4.9438476562
1494295547.9203300476,       -0.7436523438,        0.1796875000,        0.0756835938,       -0.9460449219,       -2.0141601562,        4.9438476562
1494295547.9230310917,       -0.7412109375,        0.1831054688,        0.0664062500,        0.8850097656,       -1.3885498047,        4.7607421875
1494295547.9257159233,       -0.7412109375,        0.1831054688,        0.0664062500,        0.8850097656,       -1.3885498047,        4.7607421875
1494295547.9283950329,       -0.7412109375,        0.1831054688,        0.0664062500,        3.0670166016,       -0.8850097656,        4.1809082031
1494295547.9311330318,       -0.7412109375,        0.1831054688,        0.0473632812,        3.0670166016,       -0.8850097656,        4.1809082031
1494295547.9338190556,       -0.7392578125,        0.1791992188,        0.0473632812,        4.6844482422,       -0.4425048828,        3.2653808594
1494295547.9365129471,       -0.7392578125,        0.1791992188,        0.0473632812,        4.6844482422,       -0.4425048828,        3.2653808594
1494295547.9393320084,       -0.7392578125,        0.1791992188,        0.0473632812,        5.0201416016,       -0.0305175781,        2.6245117188
1494295547.9421880245,       -0.7270507812,        0.1821289062,        0.0258789062,        5.0201416016,       -0.0305175781,        2.6245117188
1494295547.9447410107,       -0.7270507812,        0.1821289062,        0.0258789062,        4.0435791016,        0.8087158203,        1.8310546875
1494295547.9472870827,       -0.7270507812,        0.1821289062,        0.0258789062,        4.0435791016,        0.8087158203,        1.8310546875
1494295547.9498369694,       -0.7270507812,        0.1821289062,        0.0258789062,        2.2735595703,        1.9226074219,        0.8697509766
1494295547.9524950981,       -0.7128906250,        0.2036132812,        0.0302734375,        2.2735595703,        1.9226074219,        0.8697509766
1494295547.9551820755,       -0.7128906250,        0.2036132812,        0.0302734375,        0.1525878906,        2.2888183594,       -0.0610351562
1494295547.9578819275,       -0.7128906250,        0.2036132812,        0.0302734375,        0.1525878906,        2.2888183594,       -0.0610351562
1494295547.9605739117,       -0.7128906250,        0.2036132812,        0.0302734375,       -1.3275146484,        1.6937255859,       -1.3732910156
1494295547.9632689953,       -0.6923828125,        0.2246093750,        0.0239257812,       -1.3275146484,        1.6937255859,       -1.3732910156
1494295547.9659600258,       -0.6923828125,        0.2246093750,        0.0239257812,       -1.9531250000,        2.1820068359,       -3.3264160156
1494295547.9686439037,       -0.6923828125,        0.2246093750,        0.0239257812,       -1.9531250000,        2.1820068359,       -3.3264160156
1494295547.9713199139,       -0.6923828125,        0.2246093750,        0.0239257812,       -1.9531250000,        2.7923583984,       -5.0506591797
1494295547.9738659859,       -0.6938476562,        0.2353515625,        0.0239257812,       -2.5177001953,        2.7923583984,       -5.0506591797
1494295547.9764161110,       -0.6938476562,        0.2353515625,        0.0239257812,       -2.5177001953,        2.7923583984,       -6.7138671875
1494295547.9789669514,       -0.6938476562,        0.2353515625,        0.0239257812,       -2.2277832031,        3.7231445312,       -6.7138671875
1494295547.9815540314,       -0.6938476562,        0.2353515625,        0.0180664062,       -2.2277832031,        3.7231445312,       -8.8348388672
1494295547.9842090607,       -0.6992187500,        0.2343750000,        0.0180664062,       -1.0681152344,        3.5400390625,       -8.8348388672
1494295547.9867660999,       -0.6992187500,        0.2343750000,        0.0180664062,       -1.0681152344,        3.5400390625,       -8.8348388672
1494295547.9893140793,       -0.6992187500,        0.2343750000,        0.0180664062,       -0.0762939453,        3.2806396484,      -10.8642578125
1494295547.9920189381,       -0.6992187500,        0.2065429688,        0.0117187500,       -0.0762939453,        3.2806396484,      -10.8642578125
1494295547.9945659637,       -0.7128906250,        0.2065429688,        0.0117187500,        1.5106201172,        2.6245117188,      -12.0086669922
1494295547.9971148968,       -0.7128906250,        0.2065429688,        0.0117187500,        1.5106201172,        2.6245117188,      -12.0086669922
1494295547.9996690750,       -0.7128906250,        0.2065429688,        0.0117187500,        3.1738281250,        2.3040771484,      -13.1530761719
1494295548.0024580956,       -0.7358398438,        0.1845703125,       -0.0097656250,        3.1738281250,        2.3040771484,      -13.1530761719
1494295548.0051419735,       -0.7358398438,        0.1845703125,       -0.0097656250,        3.6163330078,        2.2583007812,      -13.3514404297
1494295548.0078349113,       -0.7358398438,        0.1845703125,       -0.0097656250,        3.6163330078,        2.2583007812,      -13.3514404297
1494295548.0105259418,       -0.7358398438,        0.1845703125,       -0.0097656250,        4.5318603516,        2.1057128906,      -13.2598876953
1494295548.0132329464,       -0.7465820312,        0.1582031250,       -0.0107421875,        4.5318603516,        2.1057128906,      -13.2598876953
1494295548.0159220695,       -0.7465820312,        0.1582031250,       -0.0107421875,        3.8299560547,        1.8310546875,      -13.3666992188
1494295548.0186119080,       -0.7465820312,        0.1582031250,       -0.0107421875,        3.8299560547,        1.8310546875,      -13.3666992188
1494295548.0213460922,       -0.7465820312,        0.1582031250,       -0.0107421875,        3.4637451172,        1.5563964844,      -12.8936767578
1494295548.0240321159,       -0.7514648438,        0.1240234375,       -0.0034179688,        3.4637451172,        1.5563964844,      -12.8936767578
1494295548.0267200470,       -0.7514648438,        0.1240234375,       -0.0034179688,        2.8839111328,        1.6174316406,      -12.4359130859
1494295548.0294170380,       -0.7514648438,        0.1240234375,       -0.0034179688,        2.8839111328,        1.6174316406,      -12.4359130859
1494295548.0321569443,       -0.7514648438,        0.1391601562,        0.0004882812,        1.8768310547,        1.3427734375,      -11.2457275391
1494295548.0348460674,       -0.7348632812,        0.1391601562,        0.0004882812,        1.8768310547,        1.3427734375,      -11.2457275391
1494295548.0375330448,       -0.7348632812,        0.1391601562,        0.0004882812,        0.7629394531,        1.6021728516,      -10.0097656250
1494295548.0402219296,       -0.7348632812,        0.1391601562,        0.0004882812,        0.7629394531,        1.6021728516,      -10.0097656250
1494295548.0428400040,       -0.7333984375,        0.1411132812,        0.0126953125,        0.8239746094,        1.2817382812,       -9.4909667969
1494295548.0453860760,       -0.7333984375,        0.1411132812,        0.0126953125,        0.8239746094,        1.2817382812,       -9.4909667969
1494295548.0479331017,       -0.7333984375,        0.1411132812,        0.0126953125,        1.6479492188,        1.0528564453,       -8.0718994141
1494295548.0504879951,       -0.7333984375,        0.1411132812,        0.0126953125,        1.6479492188,        1.0528564453,       -8.0718994141
1494295548.0532031059,       -0.7250976562,        0.1352539062,        0.0068359375,        2.1057128906,        1.0681152344,       -8.0413818359
1494295548.0558960438,       -0.7250976562,        0.1352539062,        0.0068359375,        2.1057128906,        1.0681152344,       -8.0413818359
1494295548.0588319302,       -0.7250976562,        0.1352539062,        0.0068359375,        2.8381347656,        1.2512207031,       -7.4615478516
1494295548.0619640350,       -0.7250976562,        0.1352539062,        0.0170898438,        2.8381347656,        1.2512207031,       -7.4615478516
1494295548.0646579266,       -0.7265625000,        0.1367187500,        0.0170898438,        3.8146972656,        1.2359619141,       -6.1645507812
1494295548.0673429966,       -0.7265625000,        0.1367187500,        0.0170898438,        3.8146972656,        1.2359619141,       -6.1645507812
1494295548.0700290203,       -0.7265625000,        0.1367187500,        0.0170898438,        3.6315917969,        1.1596679688,       -5.2032470703
1494295548.0727560520,       -0.7265625000,        0.1323242188,        0.0117187500,        3.6315917969,        1.1596679688,       -5.2032470703
1494295548.0754389763,       -0.7280273438,        0.1323242188,        0.0117187500,        3.7231445312,        1.0375976562,       -4.6844482422
1494295548.0781209469,       -0.7280273438,        0.1323242188,        0.0117187500,        3.7231445312,        1.0375976562,       -4.6844482422
1494295548.0808110237,       -0.7280273438,        0.1323242188,        0.0117187500,        2.3956298828,        1.0070800781,       -3.8299560547
1494295548.0834980011,       -0.7270507812,        0.1396484375,        0.0166015625,        2.3956298828,        1.0070800781,       -3.8299560547
1494295548.0861830711,       -0.7270507812,        0.1396484375,        0.0166015625,        1.6937255859,        1.6479492188,       -3.6773681641
1494295548.0888669491,       -0.7270507812,        0.1396484375,        0.0166015625,        1.6937255859,        1.6479492188,       -3.6773681641
1494295548.0915279388,       -0.7270507812,        0.1396484375,        0.0166015625,        1.0223388672,        1.9683837891,       -3.9672851562
1494295548.0940721035,       -0.7163085938,        0.1552734375,        0.0170898438,        1.0223388672,        1.9683837891,       -3.9672851562
1494295548.0966179371,       -0.7163085938,        0.1552734375,        0.0170898438,        0.4119873047,        1.4038085938,       -3.9520263672
1494295548.0991671085,       -0.7163085938,        0.1552734375,        0.0170898438,        0.4119873047,        1.4038085938,       -3.9520263672
1494295548.1017839909,       -0.7163085938,        0.1552734375,        0.0170898438,        0.4119873047,        1.6937255859,       -3.9825439453
1494295548.1043310165,       -0.7187500000,        0.1713867188,        0.0126953125,        0.7629394531,        1.6937255859,       -3.9825439453
1494295548.1068830490,       -0.7187500000,        0.1713867188,        0.0126953125,        0.7629394531,        1.6937255859,       -3.5858154297
1494295548.1094310284,       -0.7187500000,        0.1713867188,        0.0126953125,        1.2207031250,        1.5106201172,       -3.5858154297
1494295548.1120989323,       -0.7187500000,        0.1713867188,        0.0126953125,        1.2207031250,        1.5106201172,       -3.9825439453
1494295548.1146450043,       -0.7246093750,        0.1791992188,        0.0156250000,        2.1057128906,        1.0375976562,       -3.9825439453
1494295548.1171889305,       -0.7246093750,        0.1791992188,        0.0156250000,        2.1057128906,        1.0375976562,       -3.9825439453
1494295548.1197419167,       -0.7246093750,        0.1791992188,        0.0156250000,        3.0517578125,        0.7629394531,       -4.1198730469
1494295548.1224889755,       -0.7246093750,        0.1791992188,        0.0102539062,        3.0517578125,        0.7629394531,       -4.1198730469
1494295548.1251790524,       -0.7280273438,        0.1635742188,        0.0102539062,        3.8909912109,        0.7171630859,       -5.0201416016
1494295548.1278760433,       -0.7280273438,        0.1635742188,        0.0102539062,        3.8909912109,        0.7171630859,       -5.0201416016
1494295548.1306729317,       -0.7280273438,        0.1635742188,        0.0102539062,        3.9215087891,        0.7171630859,       -5.1727294922
1494295548.1332271099,       -0.7280273438,        0.1611328125,        0.0048828125,        3.9215087891,        0.7171630859,       -5.1727294922
1494295548.1357750893,       -0.7363281250,        0.1611328125,        0.0048828125,        3.9367675781,        0.8544921875,       -5.0048828125
1494295548.1383199692,       -0.7363281250,        0.1611328125,        0.0048828125,        3.9367675781,        0.8544921875,       -5.0048828125
1494295548.1409289837,       -0.7363281250,        0.1611328125,        0.0048828125,        3.6163330078,        0.7171630859,       -5.4626464844
1494295548.1434800625,       -0.7290039062,        0.1567382812,        0.0107421875,        3.6163330078,        0.7171630859,       -5.4626464844
1494295548.1460230350,       -0.7290039062,        0.1567382812,        0.0107421875,        3.6621093750,        0.7781982422,       -5.4779052734
1494295548.1485719681,       -0.7290039062,        0.1567382812,        0.0107421875,        3.6621093750,        0.7781982422,       -5.4779052734
