time_stamp before, Acceleration x, Acceleration y, Acceleration z, Gyro x, Gyro y, Gyro z
1494295619.7391290665,       -1.0288085938,        6.0073242188,        1.6337890625,     -224.7161865234,        1.7852783203,      398.9105224609
1494295619.7448940277,       -2.3789062500,        6.0073242188,        1.6337890625,     -317.0928955078,      -20.2941894531,      467.1630859375
1494295619.7478530407,       -2.3789062500,        6.0073242188,        1.6337890625,     -317.0928955078,      -20.2941894531,      467.1630859375
1494295619.7504038811,       -2.3789062500,        6.0073242188,        1.6337890625,     -223.3428955078,      -60.3179931641,      331.5124511719
1494295619.7531480789,       -3.2138671875,       -5.5473632812,       -0.5571289062,     -225.0976562500,      -60.3179931641,      331.5124511719
1494295619.7558019161,       -3.2138671875,       -5.5473632812,       -0.5571289062,     -170.7916259766,     -127.7465820312,      160.0341796875
1494295619.7595479488,       -3.2138671875,       -5.5473632812,       -0.5571289062,     -170.7916259766,     -127.7465820312,      165.9240722656
1494295619.7636079788,       -1.5195312500,       -3.6708984375,       -0.7041015625,     -111.6638183594,      -83.6334228516,      165.9240722656
1494295619.7668819427,       -1.5195312500,       -3.6708984375,       -0.7041015625,      -14.0075683594,      -52.6428222656,      160.6903076172
1494295619.7695798874,       -1.5195312500,       -3.6708984375,       -0.7041015625,      -13.9617919922,      -52.6428222656,      160.6903076172
1494295619.7722749710,       -1.3564453125,        1.4589843750,        1.6728515625,      -88.1805419922,      -54.1839599609,      127.7008056641
1494295619.7749609947,       -1.3564453125,        1.4589843750,        1.6728515625,      -88.5314941406,      -54.1839599609,      127.7008056641
1494295619.7776510715,       -1.3564453125,        1.4589843750,        1.6728515625,      -88.5314941406,      -78.5522460938,      113.7695312500
1494295619.7803421021,       -1.3564453125,        1.4589843750,        1.6728515625,     -155.4260253906,      -78.5522460938,      113.7695312500
1494295619.7829329967,       -1.1440429688,        0.7163085938,        0.3378906250,     -155.4260253906,     -105.8959960938,       75.7446289062
1494295619.7854890823,       -1.1440429688,        0.7163085938,        0.3378906250,     -121.9329833984,     -107.1472167969,       75.7446289062
1494295619.7880361080,       -1.1440429688,        0.7163085938,        0.3378906250,     -121.9329833984,     -107.1472167969,       68.4204101562
1494295619.7905960083,       -1.1440429688,        0.7163085938,        0.3378906250,      -77.4688720703,      -98.2971191406,       68.4204101562
1494295619.7931499481,       -1.0849609375,        0.1210937500,        2.3168945312,      -77.4688720703,      -98.2971191406,       68.4204101562
1494295619.7957119942,       -1.0849609375,        0.1210937500,        2.3168945312,       -6.5307617188,      -76.4617919922,       97.4731445312
1494295619.7982630730,       -1.0849609375,        0.1210937500,        2.3168945312,       -6.5307617188,      -76.4617919922,       97.4731445312
1494295619.8008480072,       -1.0849609375,        0.1210937500,        2.3168945312,       19.2565917969,     -100.8911132812,      192.9779052734
1494295619.8034160137,      -11.0683593750,        1.1225585938,       -3.4404296875,       19.2565917969,     -100.8911132812,      192.9779052734
1494295619.8059821129,      -11.0683593750,        1.1225585938,       -3.4404296875,      -98.0987548828,      -80.0476074219,      215.1489257812
1494295619.8085410595,      -11.0683593750,        1.1225585938,       -3.4404296875,      -98.0987548828,      -80.0476074219,      215.1489257812
1494295619.8112831116,      -11.0683593750,        1.1225585938,       -2.5654296875,      151.5960693359,       65.7043457031,      128.8146972656
1494295619.8139839172,       -1.2167968750,       -2.4584960938,       -2.5190429688,      151.5960693359,       65.7043457031,      128.8146972656
1494295619.8166830540,       -1.2167968750,       -2.4584960938,       -2.5190429688,       -1.9378662109,       54.0924072266,      130.6152343750
1494295619.8195409775,       -1.2167968750,       -2.4584960938,       -2.5190429688,       -1.9378662109,       54.0924072266,      130.6152343750
1494295619.8222479820,        1.5332031250,        1.1674804688,        1.7080078125,     -244.3542480469,       56.5795898438,      135.3149414062
1494295619.8249459267,        1.6015625000,        1.1674804688,        1.7080078125,     -244.3542480469,       56.5795898438,      135.3149414062
1494295619.8276379108,        1.6015625000,        1.1674804688,        1.7080078125,     -311.5997314453,       31.5399169922,      122.2229003906
1494295619.8303248882,        1.6015625000,        1.1674804688,        1.7080078125,     -311.5997314453,       31.5399169922,      122.2229003906
1494295619.8329210281,        2.0180664062,        2.0996093750,        1.2172851562,     -287.6892089844,       -9.8571777344,       82.0312500000
1494295619.8354740143,        2.0180664062,        2.0996093750,        1.2172851562,     -287.6892089844,       -9.8571777344,       82.0312500000
1494295619.8380229473,        2.0180664062,        2.0996093750,        1.2172851562,     -144.1192626953,       -1.8157958984,       56.1523437500
1494295619.8405799866,        2.0180664062,        2.0996093750,        1.2172851562,     -144.1192626953,       -1.8157958984,       56.1523437500
1494295619.8432741165,        0.9667968750,        1.4545898438,        1.0463867188,       25.4516601562,       16.3421630859,       53.8330078125
1494295619.8459720612,        0.9667968750,        1.4545898438,        1.0463867188,       25.4516601562,       16.3421630859,       53.8330078125
1494295619.8486709595,        0.9667968750,        1.4545898438,        1.0463867188,       96.2066650391,       -4.8522949219,       39.7186279297
1494295619.8513739109,        0.9667968750,        1.4545898438,        1.0463867188,       96.2066650391,       -4.8522949219,       39.7186279297
1494295619.8540720940,       -0.8525390625,        1.1567382812,        0.1503906250,       90.4693603516,      -24.7192382812,       16.0064697266
1494295619.8567709923,       -0.8525390625,        1.1567382812,        0.1503906250,       90.4693603516,      -24.7192382812,       16.0064697266
1494295619.8594710827,       -0.8525390625,        1.1567382812,        0.1503906250,       82.6568603516,      -14.3890380859,       -2.4414062500
1494295619.8621840477,       -0.8525390625,        0.2817382812,       -1.7031250000,       85.8612060547,      -14.3890380859,       -2.4414062500
1494295619.8648819923,       -2.6918945312,        0.2866210938,       -1.7031250000,       81.9549560547,       -6.1035156250,      -12.2833251953
1494295619.8676629066,       -2.6918945312,        0.2866210938,       -1.7031250000,       79.1778564453,       -6.1035156250,      -12.2833251953
1494295619.8703620434,       -2.6918945312,        0.2866210938,       -1.7031250000,       28.3966064453,       -5.9967041016,      -14.7857666016
1494295619.8730709553,       -1.1083984375,       -0.0332031250,       -0.1552734375,       28.6865234375,       -5.9967041016,      -14.7857666016
1494295619.8757679462,       -1.1083984375,       -0.0332031250,       -0.1552734375,      -37.7197265625,       -4.3029785156,      -12.5274658203
1494295619.8784580231,       -1.1083984375,       -0.0332031250,       -0.1552734375,      -36.3311767578,       -4.3029785156,      -12.5274658203
1494295619.8811440468,       -1.1083984375,       -0.0332031250,       -0.1552734375,      -36.3311767578,       -4.7302246094,      -12.2833251953
1494295619.8837029934,       -0.1450195312,        0.6591796875,        0.6445312500,      -61.0046386719,       -4.7302246094,      -12.2833251953
1494295619.8864250183,       -0.1450195312,        0.6591796875,        0.6445312500,      -61.0046386719,       -8.6364746094,      -19.2565917969
1494295619.8897929192,       -0.1450195312,        0.6591796875,        0.6445312500,      -49.8352050781,       -9.5977783203,      -19.2565917969
1494295619.8925700188,       -0.1450195312,        0.7373046875,        0.3618164062,      -24.3682861328,      -10.5743408203,      -30.9600830078
1494295619.8952729702,       -0.3974609375,        0.7373046875,        0.3618164062,      -24.3682861328,      -10.5743408203,      -30.9600830078
1494295619.8979730606,       -0.3974609375,        0.7373046875,        0.3618164062,       -1.8615722656,       -5.4016113281,      -38.7268066406
1494295619.9006700516,       -0.3974609375,        0.7373046875,        0.3618164062,       -1.8615722656,       -5.4016113281,      -38.7268066406
1494295619.9032320976,       -0.6899414062,        0.5307617188,        0.0053710938,        7.2937011719,       -1.6937255859,      -44.6624755859
1494295619.9057829380,       -0.6899414062,        0.5307617188,        0.0053710938,        7.2937011719,       -1.6937255859,      -44.6624755859
1494295619.9083340168,       -0.6899414062,        0.5307617188,        0.0053710938,        7.2937011719,       -0.6866455078,      -51.4831542969
1494295619.9109499454,       -0.6899414062,        0.5307617188,        0.0053710938,       12.5885009766,       -0.6866455078,      -51.4831542969
1494295619.9136490822,       -0.7812500000,        0.6225585938,       -0.0122070312,       12.5885009766,        1.6784667969,      -58.0749511719
1494295619.9163460732,       -0.7812500000,        0.6225585938,       -0.0122070312,       21.6369628906,        1.6784667969,      -58.0749511719
1494295619.9190499783,       -0.7812500000,        0.6225585938,       -0.0122070312,       21.6369628906,        5.2795410156,      -62.5305175781
1494295619.9217081070,       -0.7812500000,        0.6225585938,       -0.0122070312,       32.5469970703,        5.2795410156,      -62.5305175781
1494295619.9242720604,       -0.7519531250,        0.5273437500,        0.0883789062,       32.5469970703,        5.2795410156,      -65.0329589844
1494295619.9268300533,       -0.7519531250,        0.5273437500,        0.0883789062,       41.7022705078,        9.0484619141,      -65.0329589844
1494295619.9293830395,       -0.7519531250,        0.5273437500,        0.0883789062,       41.7022705078,        9.0484619141,      -68.9392089844
1494295619.9320490360,       -0.7519531250,        0.5273437500,        0.0883789062,       44.8608398438,       11.2152099609,      -67.4591064453
1494295619.9346120358,       -0.6948242188,        0.3608398438,        0.1098632812,       44.8608398438,       11.2152099609,      -67.4591064453
1494295619.9371740818,       -0.6948242188,        0.3608398438,        0.1098632812,       41.4123535156,       13.0767822266,      -70.4498291016
1494295619.9397349358,       -0.6948242188,        0.3608398438,        0.1098632812,       41.4123535156,       13.0767822266,      -70.4498291016
1494295619.9425311089,       -0.6948242188,        0.3608398438,        0.0585937500,       37.1704101562,       15.6707763672,      -72.0825195312
1494295619.9452390671,       -0.6933593750,        0.3081054688,        0.0585937500,       37.1704101562,       15.6707763672,      -72.0825195312
1494295619.9479389191,       -0.6933593750,        0.3081054688,        0.0585937500,       33.0047607422,       17.5170898438,      -72.9370117188
1494295619.9506819248,       -0.6933593750,        0.3081054688,        0.0585937500,       33.0047607422,       17.5170898438,      -72.9370117188
1494295619.9533948898,       -0.6933593750,        0.3266601562,        0.0766601562,       29.3731689453,       19.0277099609,      -73.7609863281
1494295619.9560999870,       -0.6850585938,        0.3266601562,        0.0766601562,       29.3731689453,       19.0277099609,      -73.7609863281
1494295619.9588038921,       -0.6850585938,        0.3266601562,        0.0766601562,       27.0080566406,       20.9197998047,      -74.4476318359
1494295619.9615499973,       -0.6850585938,        0.3266601562,        0.0766601562,       27.0080566406,       20.9197998047,      -74.4476318359
1494295619.9642488956,       -0.6723632812,        0.3422851562,        0.1274414062,       26.5197753906,       21.4996337891,      -75.4699707031
1494295619.9670639038,       -0.6723632812,        0.3422851562,        0.1274414062,       26.5197753906,       21.4996337891,      -75.4699707031
1494295619.9697680473,       -0.6723632812,        0.3422851562,        0.1274414062,       27.4200439453,       20.6909179688,      -76.2786865234
1494295619.9723899364,       -0.6723632812,        0.3422851562,        0.1274414062,       27.4200439453,       20.6909179688,      -76.2786865234
1494295619.9749488831,       -0.6801757812,        0.3203125000,        0.1142578125,       29.3273925781,       21.1486816406,      -76.3397216797
1494295619.9775099754,       -0.6801757812,        0.3203125000,        0.1142578125,       29.3273925781,       21.1486816406,      -76.3397216797
1494295619.9800689220,       -0.6801757812,        0.3203125000,        0.1142578125,       30.3497314453,       20.6909179688,      -76.1566162109
1494295619.9827001095,       -0.6801757812,        0.3203125000,        0.1142578125,       30.3497314453,       20.6909179688,      -76.1566162109
1494295619.9852550030,       -0.6967773438,        0.2861328125,        0.0532226562,       30.8837890625,       19.9737548828,      -76.0192871094
1494295619.9878180027,       -0.6967773438,        0.2861328125,        0.0532226562,       30.8837890625,       19.9737548828,      -76.0192871094
1494295619.9903779030,       -0.6967773438,        0.2861328125,        0.0532226562,       30.4870605469,       19.5312500000,      -75.8972167969
1494295619.9931199551,       -0.6967773438,        0.2861328125,        0.0175781250,       30.4870605469,       19.5312500000,      -75.8972167969
1494295619.9958209991,       -0.7050781250,        0.2758789062,        0.0175781250,       29.7241210938,       19.2871093750,      -75.1190185547
1494295619.9986259937,       -0.7050781250,        0.2758789062,        0.0175781250,       29.7241210938,       19.2871093750,      -75.1190185547
1494295620.0013670921,       -0.7050781250,        0.2758789062,        0.0175781250,       29.1595458984,       18.9056396484,      -74.6765136719
1494295620.0040640831,       -0.7060546875,        0.2739257812,        0.0205078125,       29.1595458984,       18.9056396484,      -74.6765136719
1494295620.0067660809,       -0.7060546875,        0.2739257812,        0.0205078125,       28.5034179688,       18.6462402344,      -73.7152099609
1494295620.0094659328,       -0.7060546875,        0.2739257812,        0.0205078125,       28.5034179688,       18.6462402344,      -73.7152099609
1494295620.0121710300,       -0.7060546875,        0.2739257812,        0.0205078125,       27.1911621094,       18.5546875000,      -72.4029541016
1494295620.0148689747,       -0.7114257812,        0.2490234375,       -0.0341796875,       27.1911621094,       18.5546875000,      -72.4029541016
1494295620.0175659657,       -0.7114257812,        0.2490234375,       -0.0341796875,       25.3295898438,       18.4631347656,      -70.2209472656
1494295620.0202639103,       -0.7114257812,        0.2490234375,       -0.0341796875,       25.3295898438,       18.4631347656,      -70.2209472656
1494295620.0229709148,       -0.7114257812,        0.2490234375,       -0.0341796875,       23.4375000000,       17.8375244141,      -68.1762695312
1494295620.0256679058,       -0.6855468750,        0.1752929688,       -0.0136718750,       23.4375000000,       17.8375244141,      -68.1762695312
1494295620.0283689499,       -0.6855468750,        0.1752929688,       -0.0136718750,       20.6298828125,       17.4102783203,      -66.0400390625
1494295620.0310549736,       -0.6855468750,        0.1752929688,       -0.0136718750,       20.6298828125,       17.4102783203,      -66.0400390625
1494295620.0336129665,       -0.6855468750,        0.1752929688,       -0.0234375000,       16.7236328125,       16.3726806641,      -63.8427734375
1494295620.0361719131,       -0.6430664062,        0.1547851562,       -0.0234375000,       17.3492431641,       16.3726806641,      -63.8427734375
1494295620.0387299061,       -0.6430664062,        0.1547851562,       -0.0234375000,       17.3492431641,       12.4664306641,      -61.3861083984
1494295620.0415470600,       -0.6430664062,        0.1547851562,       -0.0234375000,       12.4969482422,       14.4653320312,      -61.3861083984
1494295620.0441079140,       -0.5180664062,        0.2075195312,       -0.0039062500,       12.4969482422,       14.4653320312,      -59.8297119141
1494295620.0466649532,       -0.5786132812,        0.2075195312,       -0.0039062500,        9.8114013672,       13.0310058594,      -59.8297119141
1494295620.0492210388,       -0.5786132812,        0.2075195312,       -0.0039062500,        9.8114013672,       13.0310058594,      -59.2346191406
1494295620.0519239902,       -0.5786132812,        0.2075195312,       -0.0039062500,        9.7808837891,       11.8713378906,      -59.2346191406
1494295620.0546250343,       -0.5219726562,        0.2758789062,       -0.0092773438,        9.7808837891,       11.8713378906,      -57.3883056641
1494295620.0573260784,       -0.5219726562,        0.2758789062,       -0.0092773438,        8.6822509766,       10.5743408203,      -57.3883056641
1494295620.0600199699,       -0.5219726562,        0.2758789062,       -0.0092773438,        8.6822509766,       10.5743408203,      -55.7403564453
1494295620.0627589226,       -0.5219726562,        0.2758789062,       -0.0092773438,       10.2081298828,        9.3994140625,      -55.7403564453
1494295620.0654540062,       -0.4946289062,        0.2504882812,        0.0019531250,       10.2081298828,        9.3994140625,      -51.8341064453
1494295620.0681428909,       -0.4946289062,        0.2504882812,        0.0019531250,       12.0239257812,        8.5601806641,      -54.0008544922
1494295620.0708758831,       -0.4946289062,        0.2504882812,        0.0019531250,       12.0239257812,        8.5601806641,      -54.0008544922
1494295620.0734369755,       -0.4946289062,        0.2504882812,        0.0019531250,       11.9781494141,        8.0261230469,      -52.6428222656
1494295620.0759930611,       -0.4892578125,        0.2221679688,        0.0058593750,       11.9781494141,        8.0261230469,      -52.6428222656
1494295620.0785520077,       -0.4892578125,        0.2221679688,        0.0058593750,       12.8936767578,        7.8125000000,      -51.2542724609
1494295620.0811638832,       -0.4892578125,        0.2221679688,        0.0058593750,       12.8936767578,        7.8125000000,      -51.2542724609
1494295620.0838429928,       -0.4892578125,        0.2221679688,        0.0356445312,       13.1988525391,        7.5225830078,      -50.0946044922
1494295620.0865199566,       -0.5058593750,        0.2275390625,        0.0356445312,       13.1988525391,        7.5225830078,      -50.0946044922
1494295620.0891959667,       -0.5058593750,        0.2275390625,        0.0356445312,       12.2222900391,        7.2021484375,      -49.2553710938
1494295620.0918779373,       -0.5058593750,        0.2275390625,        0.0356445312,       12.2222900391,        7.2021484375,      -49.2553710938
1494295620.0945858955,       -0.5058593750,        0.2070312500,        0.0405273438,       10.6048583984,        6.6528320312,      -47.7905273438
1494295620.0971469879,       -0.5122070312,        0.2070312500,        0.0405273438,       10.6048583984,        6.6528320312,      -47.7905273438
1494295620.0997049809,       -0.5122070312,        0.2070312500,        0.0405273438,        9.0942382812,        6.0424804688,      -46.8597412109
1494295620.1025249958,       -0.5122070312,        0.2070312500,        0.0405273438,        9.0942382812,        6.0424804688,      -46.8597412109
1494295620.1051750183,       -0.5185546875,        0.1958007812,        0.0532226562,        7.5988769531,        5.7220458984,      -46.0510253906
1494295620.1079339981,       -0.5185546875,        0.1958007812,        0.0532226562,        7.5988769531,        5.7220458984,      -46.0510253906
1494295620.1106960773,       -0.5185546875,        0.1958007812,        0.0532226562,        5.7525634766,        5.4321289062,      -45.2117919922
1494295620.1136078835,       -0.5185546875,        0.1958007812,        0.0532226562,        5.7525634766,        5.4321289062,      -45.2117919922
1494295620.1163098812,       -0.5190429688,        0.2055664062,        0.0717773438,        4.1656494141,        4.4708251953,      -44.5709228516
1494295620.1189980507,       -0.5190429688,        0.2055664062,        0.0717773438,        4.1656494141,        4.4708251953,      -44.5709228516
1494295620.1216909885,       -0.5190429688,        0.2055664062,        0.0717773438,        2.9296875000,        2.8228759766,      -43.5485839844
1494295620.1242489815,       -0.5190429688,        0.2055664062,        0.1259765625,        2.9296875000,        2.8228759766,      -43.5485839844
1494295620.1268010139,       -0.6157226562,        0.1528320312,        0.1259765625,        1.7547607422,        1.9378662109,      -42.0684814453
1494295620.1293549538,       -0.6157226562,        0.1528320312,        0.1259765625,        1.7547607422,        1.9378662109,      -42.0684814453
1494295620.1319980621,       -0.6157226562,        0.1528320312,        0.1259765625,        0.3814697266,        2.8076171875,      -39.5202636719
1494295620.1346900463,       -0.6157226562,        0.1127929688,        0.0244140625,        0.3814697266,        2.8076171875,      -39.5202636719
1494295620.1373879910,       -0.8017578125,        0.1127929688,        0.0244140625,       -3.1127929688,        2.9144287109,      -36.5905761719
1494295620.1400809288,       -0.8017578125,        0.1127929688,        0.0244140625,       -3.1127929688,        2.9144287109,      -36.5905761719
1494295620.1426761150,       -0.8017578125,        0.1127929688,        0.0244140625,       -6.2561035156,        2.8686523438,      -33.6303710938
1494295620.1452341080,       -0.9721679688,        0.0532226562,       -0.0146484375,       -6.2561035156,        2.8686523438,      -33.6303710938
1494295620.1477839947,       -0.9721679688,        0.0532226562,       -0.0146484375,       -6.2561035156,        3.6010742188,      -30.6701660156
1494295620.1503400803,       -0.9721679688,        0.0532226562,       -0.0146484375,       -8.5906982422,        3.6010742188,      -30.6701660156
1494295620.1529068947,       -0.9721679688,        0.0532226562,       -0.0146484375,       -8.5906982422,        3.6010742188,      -27.8320312500
1494295620.1554610729,       -1.0712890625,        0.0205078125,       -0.1010742188,      -10.1928710938,        5.0201416016,      -27.8320312500
1494295620.1580240726,       -1.0712890625,        0.0205078125,       -0.1010742188,      -10.1928710938,        5.0201416016,      -23.9257812500
1494295620.1605780125,       -1.0712890625,        0.0205078125,       -0.1010742188,      -12.4816894531,        5.2337646484,      -25.1312255859
1494295620.1632421017,       -1.0712890625,        0.0205078125,       -0.1010742188,      -12.4816894531,        5.2337646484,      -25.1312255859
1494295620.1658051014,       -0.9765625000,        0.0498046875,       -0.1010742188,      -15.2282714844,        5.9967041016,      -22.5219726562
1494295620.1683609486,       -0.9765625000,        0.0498046875,       -0.1010742188,      -15.2282714844,        5.9967041016,      -22.5219726562
1494295620.1710669994,       -0.9765625000,        0.0498046875,       -0.1010742188,      -18.0511474609,        5.6457519531,      -20.2941894531
1494295620.1736290455,       -0.9765625000,        0.0498046875,       -0.1010742188,      -18.0511474609,        5.6457519531,      -20.2941894531
1494295620.1761898994,       -0.7988281250,        0.1333007812,       -0.0722656250,      -21.3012695312,        5.4016113281,      -18.7683105469
1494295620.1787540913,       -0.7988281250,        0.1333007812,       -0.0722656250,      -21.3012695312,        5.4016113281,      -18.7683105469
1494295620.1813869476,       -0.7988281250,        0.1333007812,       -0.0722656250,      -23.0255126953,        5.7220458984,      -17.3492431641
1494295620.1840820312,       -0.7988281250,        0.1333007812,       -0.0722656250,      -23.0255126953,        5.7220458984,      -17.3492431641
1494295620.1868960857,       -0.6904296875,        0.1816406250,       -0.0151367188,      -25.3753662109,        5.4626464844,      -16.4337158203
1494295620.1895940304,       -0.6904296875,        0.1816406250,       -0.0151367188,      -25.3753662109,        5.4626464844,      -16.4337158203
1494295620.1923010349,       -0.6904296875,        0.1816406250,       -0.0151367188,      -27.5268554688,        5.6457519531,      -17.4102783203
1494295620.1949999332,       -0.6904296875,        0.2460937500,        0.0722656250,      -27.5268554688,        5.6457519531,      -17.4102783203
1494295620.1976919174,       -0.6708984375,        0.2460937500,        0.0722656250,      -28.6865234375,        5.1727294922,      -19.5922851562
1494295620.2003920078,       -0.6708984375,        0.2460937500,        0.0722656250,      -28.6865234375,        5.1727294922,      -19.5922851562
1494295620.2029609680,       -0.6708984375,        0.2460937500,        0.0722656250,      -28.2897949219,        4.3792724609,      -22.2930908203
1494295620.2055160999,       -0.6708984375,        0.2993164062,        0.0898437500,      -28.2897949219,        4.3792724609,      -22.2930908203
1494295620.2080800533,       -0.7109375000,        0.2993164062,        0.0898437500,      -26.2756347656,        2.8991699219,      -26.4892578125
1494295620.2106990814,       -0.7109375000,        0.2993164062,        0.0898437500,      -26.2756347656,        2.8991699219,      -26.4892578125
1494295620.2134039402,       -0.7109375000,        0.2993164062,        0.0898437500,      -20.5993652344,        2.1514892578,      -30.4718017578
1494295620.2160980701,       -0.7158203125,        0.3369140625,        0.0615234375,      -20.5993652344,        2.1514892578,      -30.4718017578
1494295620.2187919617,       -0.7158203125,        0.3369140625,        0.0615234375,      -12.5274658203,        2.1972656250,      -33.0200195312
1494295620.2214989662,       -0.7158203125,        0.3369140625,        0.0615234375,      -12.5274658203,        2.1972656250,      -33.0200195312
1494295620.2240610123,       -0.7158203125,        0.3369140625,        0.0615234375,       -4.7149658203,        2.5329589844,      -34.8968505859
1494295620.2266120911,       -0.7304687500,        0.2978515625,        0.0307617188,       -4.3029785156,        2.5329589844,      -34.8968505859
1494295620.2292931080,       -0.7304687500,        0.2978515625,        0.0307617188,        3.5095214844,        2.8686523438,      -36.8804931641
1494295620.2323648930,       -0.7304687500,        0.2978515625,        0.0307617188,        2.3956298828,        2.8686523438,      -36.8804931641
1494295620.2350709438,       -0.7304687500,        0.2978515625,        0.0014648438,        6.4544677734,        3.1280517578,      -39.5355224609
1494295620.2377710342,       -0.7617187500,        0.2080078125,        0.0014648438,        6.4544677734,        3.1280517578,      -39.5355224609
1494295620.2404649258,       -0.7617187500,        0.2080078125,        0.0014648438,        6.4544677734,        3.9825439453,      -41.1682128906
1494295620.2431740761,       -0.7617187500,        0.2080078125,        0.0014648438,        7.0800781250,        3.9825439453,      -41.1682128906
1494295620.2458620071,       -0.6367187500,        0.1669921875,        0.0048828125,        7.0800781250,        5.0354003906,      -41.8701171875
1494295620.2485539913,       -0.7412109375,        0.1669921875,        0.0048828125,        5.6762695312,        5.0354003906,      -41.8701171875
1494295620.2512540817,       -0.7412109375,        0.1669921875,        0.0048828125,        1.7700195312,        5.6457519531,      -41.5954589844
1494295620.2539350986,       -0.7412109375,        0.1669921875,        0.0048828125,        2.7618408203,        5.6457519531,      -41.5954589844
1494295620.2566308975,       -0.7421875000,        0.1782226562,       -0.0151367188,        2.7618408203,        6.5307617188,      -41.2139892578
1494295620.2593200207,       -0.7421875000,        0.1782226562,       -0.0151367188,        0.9002685547,        6.5307617188,      -41.2139892578
1494295620.2620790005,       -0.7421875000,        0.1782226562,       -0.0151367188,        0.9002685547,        7.7362060547,      -41.0461425781
1494295620.2646420002,       -0.7421875000,        0.1782226562,       -0.0151367188,       -0.9002685547,        7.7362060547,      -41.0461425781
1494295620.2671871185,       -0.7426757812,        0.1752929688,       -0.0375976562,       -0.9002685547,        7.7362060547,      -40.8172607422
1494295620.2697470188,       -0.7426757812,        0.1752929688,       -0.0375976562,       -2.6397705078,        8.7432861328,      -40.8172607422
1494295620.2723178864,       -0.7426757812,        0.1752929688,       -0.0375976562,       -2.6397705078,        8.7432861328,      -40.8172607422
1494295620.2748670578,       -0.7426757812,        0.1752929688,       -0.0375976562,       -3.0059814453,        8.7432861328,      -39.5050048828
1494295620.2774229050,       -0.7314453125,        0.1811523438,       -0.0253906250,       -3.0059814453,        8.7432861328,      -39.5050048828
1494295620.2799699306,       -0.7314453125,        0.1811523438,       -0.0253906250,       -3.6621093750,        9.2620849609,      -37.7044677734
1494295620.2826209068,       -0.7314453125,        0.1811523438,       -0.0253906250,       -3.6621093750,        9.2620849609,      -37.7044677734
1494295620.2851819992,       -0.7314453125,        0.1811523438,       -0.0253906250,       -3.5858154297,        9.4299316406,      -35.9802246094
1494295620.2877318859,       -0.7294921875,        0.1455078125,       -0.0146484375,       -3.5858154297,        9.4299316406,      -35.9802246094
1494295620.2902889252,       -0.7294921875,        0.1455078125,       -0.0146484375,       -2.5939941406,        9.0942382812,      -34.6221923828
1494295620.2931001186,       -0.7294921875,        0.1455078125,       -0.0146484375,       -2.5939941406,        9.0942382812,      -34.6221923828
1494295620.2957980633,       -0.7294921875,        0.0205078125,       -0.0200195312,       -1.6326904297,        9.8266601562,      -33.0810546875
1494295620.2984979153,       -0.7182617188,        0.1166992188,       -0.0200195312,       -1.6326904297,        9.8266601562,      -33.0810546875
1494295620.3012080193,       -0.7182617188,        0.1166992188,       -0.0200195312,       -0.1983642578,        9.8266601562,      -30.6701660156
1494295620.3038990498,       -0.7182617188,        0.1166992188,       -0.0200195312,       -0.1983642578,        9.8266601562,      -30.6701660156
1494295620.3065989017,       -0.7109375000,        0.0825195312,       -0.0136718750,        1.3122558594,        9.3841552734,      -27.7404785156
1494295620.3092930317,       -0.7109375000,        0.0825195312,       -0.0136718750,        1.3122558594,        9.3841552734,      -27.7404785156
1494295620.3119421005,       -0.7109375000,        0.0825195312,       -0.0136718750,        2.8991699219,        9.0637207031,      -24.8565673828
1494295620.3144969940,       -0.7109375000,        0.0825195312,       -0.0136718750,        2.8991699219,        9.0637207031,      -24.8565673828
1494295620.3170430660,       -0.7119140625,        0.0644531250,       -0.0117187500,        4.3182373047,        7.8277587891,      -21.4385986328
1494295620.3195970058,       -0.7119140625,        0.0644531250,       -0.0117187500,        4.3182373047,        7.8277587891,      -21.4385986328
1494295620.3221609592,       -0.7119140625,        0.0644531250,       -0.0117187500,        4.3182373047,        6.8206787109,      -16.7846679688
1494295620.3247170448,       -0.7119140625,        0.0644531250,       -0.0117187500,        5.1574707031,        6.8206787109,      -16.7846679688
1494295620.3272740841,       -0.7187500000,        0.0161132812,       -0.0214843750,        5.1574707031,        6.8206787109,      -11.5966796875
1494295620.3298211098,       -0.7187500000,        0.0161132812,       -0.0214843750,        6.1492919922,        5.5389404297,      -11.5966796875
1494295620.3326079845,       -0.7187500000,        0.0161132812,       -0.0214843750,        6.1492919922,        5.5389404297,       -6.1035156250
1494295620.3351619244,       -0.7187500000,        0.0161132812,       -0.0214843750,        6.6986083984,        4.0130615234,       -6.1035156250
1494295620.3377130032,       -0.7070312500,       -0.0585937500,       -0.0410156250,        6.6986083984,        4.0130615234,        1.7089843750
1494295620.3402659893,       -0.7070312500,       -0.0585937500,       -0.0410156250,        5.8288574219,        1.8005371094,        0.0305175781
1494295620.3429880142,       -0.7070312500,       -0.0585937500,       -0.0410156250,        5.8288574219,        1.8005371094,        3.9367675781
1494295620.3456740379,       -0.7070312500,       -0.0585937500,       -0.0410156250,        3.8452148438,       -0.3356933594,        6.2561035156
1494295620.3484930992,       -0.7124023438,       -0.1000976562,       -0.0522460938,        3.8452148438,       -0.3356933594,       14.0686035156
1494295620.3515729904,       -0.7124023438,       -0.1000976562,       -0.0522460938,        1.9226074219,       -2.1667480469,       13.0004882812
1494295620.3542740345,       -0.7124023438,       -0.1000976562,       -0.0522460938,        1.9226074219,       -6.0729980469,       20.2941894531
1494295620.3569660187,       -0.7236328125,       -0.1132812500,       -0.0747070312,        0.2136230469,       -4.1961669922,       20.2941894531
1494295620.3596529961,       -0.7236328125,       -0.1132812500,       -0.0747070312,        0.2136230469,       -4.1961669922,       27.9693603516
1494295620.3622760773,       -0.7236328125,       -0.1132812500,       -0.0747070312,       -1.7395019531,       -5.9814453125,       27.9693603516
1494295620.3648269176,       -0.7236328125,       -0.1132812500,       -0.0747070312,       -1.7395019531,       -5.9814453125,       35.7818603516
1494295620.3673810959,       -0.7319335938,       -0.1103515625,       -0.0766601562,       -3.7841796875,       -7.9650878906,       35.8886718750
1494295620.3699359894,       -0.7319335938,       -0.1103515625,       -0.0766601562,       -3.7841796875,       -7.9650878906,       35.8886718750
1494295620.3726160526,       -0.7319335938,       -0.1103515625,       -0.0766601562,       -5.6915283203,      -10.5438232422,       43.2281494141
1494295620.3753130436,       -0.7319335938,       -0.1103515625,       -0.0766601562,       -5.6915283203,      -10.5438232422,       43.2281494141
1494295620.3780019283,       -0.7421875000,       -0.0869140625,       -0.0800781250,       -7.4920654297,      -13.2141113281,       50.4455566406
1494295620.3807060719,       -0.7421875000,       -0.0869140625,       -0.0800781250,       -7.4920654297,      -13.2141113281,       50.4455566406
1494295620.3832640648,       -0.7421875000,       -0.0869140625,       -0.0800781250,       -9.7961425781,      -15.1672363281,       56.7626953125
1494295620.3858211040,       -0.7421875000,       -0.0869140625,       -0.0800781250,       -9.7961425781,      -15.1672363281,       56.7626953125
1494295620.3883800507,       -0.7177734375,       -0.0512695312,       -0.0678710938,      -13.2141113281,      -17.1813964844,       62.3626708984
1494295620.3909850121,       -0.7177734375,       -0.0512695312,       -0.0678710938,      -13.2141113281,      -17.1813964844,       62.3626708984
1494295620.3935461044,       -0.7177734375,       -0.0512695312,       -0.0678710938,      -16.8304443359,      -18.8903808594,       67.3675537109
1494295620.3961079121,       -0.7177734375,       -0.0512695312,       -0.0678710938,      -16.8304443359,      -18.8903808594,       67.3675537109
1494295620.3986690044,       -0.7041015625,       -0.0087890625,       -0.0312500000,      -19.4396972656,      -20.3704833984,       71.9909667969
1494295620.4013431072,       -0.7041015625,       -0.0087890625,       -0.0312500000,      -19.4396972656,      -20.3704833984,       71.9909667969
1494295620.4039158821,       -0.7041015625,       -0.0087890625,       -0.0312500000,      -22.0336914062,      -22.3236083984,       75.4699707031
1494295620.4065930843,       -0.7041015625,        0.1162109375,        0.0024414062,      -22.0336914062,      -22.3236083984,       75.4699707031
1494295620.4091620445,       -0.7094726562,        0.0317382812,        0.0024414062,      -22.0336914062,      -24.0325927734,       78.5369873047
1494295620.4118471146,       -0.7094726562,        0.0317382812,        0.0024414062,      -23.4222412109,      -24.0325927734,       78.5369873047
1494295620.4144079685,       -0.7094726562,        0.0317382812,        0.0024414062,      -23.4222412109,      -24.0325927734,       81.4666748047
1494295620.4169740677,       -0.7094726562,        0.1088867188,        0.0161132812,      -23.7121582031,      -25.3906250000,       81.4666748047
1494295620.4195330143,       -0.7133789062,        0.1088867188,        0.0161132812,      -23.7121582031,      -25.3906250000,       83.6639404297
1494295620.4222118855,       -0.7133789062,        0.1088867188,        0.0161132812,      -23.1628417969,      -26.0314941406,       83.6639404297
1494295620.4249200821,       -0.7133789062,        0.1088867188,        0.0161132812,      -23.1628417969,      -26.0314941406,       84.7778320312
1494295620.4276199341,       -0.7192382812,        0.1953125000,        0.0351562500,      -21.5301513672,      -26.7486572266,       84.7778320312
1494295620.4303278923,       -0.7192382812,        0.1953125000,        0.0351562500,      -21.5301513672,      -26.7486572266,       86.0595703125
1494295620.4330389500,       -0.7192382812,        0.1953125000,        0.0351562500,      -18.5089111328,      -26.5502929688,       86.0595703125
1494295620.4357440472,       -0.7192382812,        0.1953125000,        0.0351562500,      -18.5089111328,      -26.5502929688,       87.3718261719
1494295620.4384500980,       -0.7011718750,        0.2143554688,        0.0297851562,      -14.3737792969,      -26.2145996094,       87.3718261719
1494295620.4411449432,       -0.7011718750,        0.2143554688,        0.0297851562,      -14.3737792969,      -26.2145996094,       88.8519287109
1494295620.4437050819,       -0.7011718750,        0.2143554688,        0.0297851562,      -10.2691650391,      -25.0549316406,       88.8519287109
1494295620.4462699890,       -0.7011718750,        0.2143554688,        0.0297851562,      -10.2691650391,      -25.0549316406,       88.8519287109
1494295620.4488229752,       -0.6005859375,        0.1323242188,        0.0312500000,       -9.1857910156,      -23.2238769531,       89.8895263672
1494295620.4515240192,       -0.6005859375,        0.1323242188,        0.0312500000,       -9.1857910156,      -23.2238769531,       89.8895263672
1494295620.4540801048,       -0.6005859375,        0.1323242188,        0.0312500000,      -13.5803222656,      -22.2320556641,       90.8050537109
1494295620.4566419125,       -0.6005859375,        0.1323242188,        0.0312500000,      -13.5803222656,      -22.2320556641,       90.8050537109
1494295620.4592089653,       -0.5019531250,        0.1020507812,        0.1040039062,      -20.5535888672,      -23.2849121094,       91.2170410156
1494295620.4618630409,       -0.5019531250,        0.1020507812,        0.1040039062,      -20.5535888672,      -23.2849121094,       91.2170410156
1494295620.4644250870,       -0.5019531250,        0.1020507812,        0.1040039062,      -27.7709960938,      -24.8870849609,       90.8203125000
1494295620.4672360420,       -0.5019531250,        0.3520507812,        0.1679687500,      -27.7709960938,      -24.8870849609,       90.8203125000
1494295620.4697930813,       -0.6113281250,        0.3247070312,        0.1679687500,      -30.8837890625,      -26.2298583984,       90.2252197266
1494295620.4727430344,       -0.6113281250,        0.3247070312,        0.1679687500,      -30.8837890625,      -26.2298583984,       90.2252197266
1494295620.4754509926,       -0.6113281250,        0.3247070312,        0.1679687500,      -26.9775390625,      -26.1840820312,       89.8742675781
1494295620.4781579971,       -0.7519531250,        0.4916992188,        0.0888671875,      -26.9775390625,      -26.1840820312,       89.8742675781
1494295620.4810180664,       -0.7519531250,        0.4916992188,        0.0888671875,      -16.3269042969,      -24.2767333984,       90.5303955078
1494295620.4837219715,       -0.7519531250,        0.4916992188,        0.0888671875,      -16.3269042969,      -24.2767333984,       90.5303955078
1494295620.4864270687,       -0.7519531250,        0.4916992188,        0.0888671875,       -4.9591064453,      -21.8353271484,       90.8355712891
1494295620.4891209602,       -0.6586914062,        0.2958984375,       -0.0180664062,       -4.9591064453,      -21.8353271484,       90.8355712891
1494295620.4918310642,       -0.6586914062,        0.2958984375,       -0.0180664062,        0.3051757812,      -21.0571289062,       91.0949707031
1494295620.4945371151,       -0.6586914062,        0.2958984375,       -0.0180664062,        0.3051757812,      -21.0571289062,       91.0949707031
1494295620.4972341061,       -0.6586914062,        0.2958984375,        0.0283203125,       -3.0517578125,      -22.1405029297,       91.9189453125
1494295620.4999349117,       -0.5058593750,        0.0541992188,        0.0283203125,       -3.0517578125,      -22.1405029297,       91.9189453125
1494295620.5025451183,       -0.5058593750,        0.0541992188,        0.0283203125,      -14.5721435547,      -23.1018066406,       92.9412841797
1494295620.5051031113,       -0.5058593750,        0.0541992188,        0.0283203125,      -14.5721435547,      -23.1018066406,       92.9412841797
1494295620.5076689720,       -0.5058593750,        0.0908203125,        0.0571289062,      -27.2369384766,      -23.3459472656,       94.2382812500
1494295620.5102319717,       -0.6689453125,        0.0908203125,        0.0571289062,      -27.2369384766,      -23.3459472656,       94.2382812500
1494295620.5128469467,       -0.6689453125,        0.0908203125,        0.0571289062,      -36.9567871094,      -22.1710205078,       95.5810546875
1494295620.5154099464,       -0.6689453125,        0.0908203125,        0.0571289062,      -36.9567871094,      -22.1710205078,       95.5810546875
1494295620.5179719925,       -0.6689453125,        0.3481445312,        0.0312500000,      -40.8630371094,      -21.4233398438,       96.0540771484
1494295620.5205368996,       -0.8129882812,        0.3481445312,        0.0312500000,      -42.0379638672,      -21.4233398438,       96.0540771484
1494295620.5232241154,       -0.8129882812,        0.3481445312,        0.0312500000,      -42.0379638672,      -21.4233398438,       95.6268310547
1494295620.5257809162,       -0.8129882812,        0.3481445312,        0.0312500000,      -42.0074462891,      -21.2249755859,       95.6268310547
1494295620.5283470154,       -0.7636718750,        0.5122070312,        0.0546875000,      -42.0074462891,      -21.2249755859,       93.9483642578
1494295620.5310649872,       -0.7636718750,        0.5122070312,        0.0546875000,      -37.5823974609,      -22.3999023438,       93.9483642578
1494295620.5337610245,       -0.7636718750,        0.5122070312,        0.0546875000,      -37.5823974609,      -22.3999023438,       92.0104980469
1494295620.5364658833,       -0.7636718750,        0.5122070312,        0.0546875000,      -28.7017822266,      -22.9187011719,       92.0104980469
1494295620.5391600132,       -0.6230468750,        0.3110351562,        0.0107421875,      -28.7017822266,      -22.9187011719,       91.3696289062
1494295620.5418179035,       -0.6230468750,        0.3110351562,        0.0107421875,      -20.1568603516,      -23.2086181641,       91.3696289062
1494295620.5443830490,       -0.6230468750,        0.3110351562,        0.0107421875,      -20.1568603516,      -23.2086181641,       91.3696289062
1494295620.5469460487,       -0.6230468750,        0.3110351562,        0.0107421875,      -19.1345214844,      -24.5666503906,       93.5516357422
1494295620.5495109558,       -0.5351562500,        0.1655273438,        0.0239257812,      -19.1345214844,      -24.5666503906,       93.5516357422
1494295620.5522990227,       -0.5351562500,        0.1655273438,        0.0239257812,      -23.3917236328,      -25.4211425781,       95.4589843750
1494295620.5550069809,       -0.5351562500,        0.1655273438,        0.0239257812,      -23.3917236328,      -25.4211425781,       95.4589843750
1494295620.5577158928,       -0.5351562500,        0.1655273438,        0.1010742188,      -28.0151367188,      -24.6734619141,       95.1538085938
1494295620.5604190826,       -0.6831054688,        0.3325195312,        0.1010742188,      -28.0151367188,      -24.6734619141,       95.1538085938
1494295620.5630419254,       -0.6831054688,        0.3325195312,        0.1010742188,      -32.4096679688,      -24.4140625000,       92.3461914062
1494295620.5655989647,       -0.6831054688,        0.3325195312,        0.1010742188,      -32.4096679688,      -24.4140625000,       92.3461914062
1494295620.5681560040,       -0.6831054688,        0.5771484375,        0.0185546875,      -30.5938720703,      -25.2685546875,       89.3554687500
1494295620.5707280636,       -0.6787109375,        0.5771484375,        0.0185546875,      -30.5938720703,      -25.2685546875,       89.3554687500
1494295620.5734319687,       -0.6787109375,        0.5771484375,        0.0185546875,      -22.2778320312,      -26.4434814453,       87.6464843750
1494295620.5761260986,       -0.6787109375,        0.5771484375,        0.0185546875,      -22.2778320312,      -26.4434814453,       87.6464843750
1494295620.5788259506,       -0.6005859375,        0.5605468750,        0.0844726562,      -11.0473632812,      -27.8930664062,       85.3118896484
1494295620.5815730095,       -0.6005859375,        0.5605468750,        0.0844726562,      -11.0473632812,      -27.8930664062,       85.3118896484
1494295620.5842819214,       -0.6005859375,        0.5605468750,        0.0844726562,       -1.6937255859,      -29.5104980469,       81.4666748047
1494295620.5872299671,       -0.6005859375,        0.5605468750,        0.0844726562,       -1.6937255859,      -29.5104980469,       81.4666748047
1494295620.5899350643,       -0.5800781250,        0.4409179688,        0.0102539062,        3.1433105469,      -31.1126708984,       78.1707763672
1494295620.5929529667,       -0.5800781250,        0.4409179688,        0.0102539062,        3.1433105469,      -31.1126708984,       78.1707763672
1494295620.5956599712,       -0.5800781250,        0.4409179688,        0.0102539062,        4.1198730469,      -31.8145751953,       75.8972167969
1494295620.5983629227,       -0.5800781250,        0.3701171875,        0.0625000000,        4.1198730469,      -31.8145751953,       75.8972167969
1494295620.6010680199,       -0.6357421875,        0.3701171875,        0.0625000000,        0.9765625000,      -30.9753417969,       73.3947753906
1494295620.6037700176,       -0.6357421875,        0.3701171875,        0.0625000000,        0.9765625000,      -30.9753417969,       73.3947753906
1494295620.6064720154,       -0.6357421875,        0.3701171875,        0.0625000000,       -6.6833496094,      -30.1971435547,       68.9086914062
1494295620.6091730595,       -0.7402343750,        0.4711914062,        0.1357421875,       -6.6833496094,      -30.1971435547,       68.9086914062
1494295620.6118199825,       -0.7402343750,        0.4711914062,        0.1357421875,      -11.6424560547,      -29.1900634766,       63.6749267578
1494295620.6143870354,       -0.7402343750,        0.4711914062,        0.1357421875,      -11.6424560547,      -29.1900634766,       63.6749267578
1494295620.6169450283,       -0.7402343750,        0.4711914062,        0.1357421875,      -10.4827880859,      -28.3203125000,       59.1583251953
1494295620.6195070744,       -0.6054687500,        0.5468750000,        0.1494140625,      -10.4827880859,      -28.3203125000,       59.1583251953
1494295620.6221089363,       -0.6054687500,        0.5468750000,        0.1494140625,       -7.1563720703,      -27.2979736328,       56.6711425781
1494295620.6246650219,       -0.6054687500,        0.5468750000,        0.1494140625,       -7.1563720703,      -27.2979736328,       56.6711425781
1494295620.6273329258,       -0.6054687500,        0.5468750000,        0.1494140625,       -2.5787353516,      -24.6887207031,       55.2673339844
1494295620.6298930645,       -0.5375976562,        0.4731445312,        0.1762695312,       -2.5787353516,      -24.6887207031,       55.2673339844
1494295620.6324970722,       -0.5375976562,        0.4731445312,        0.1762695312,       -0.5493164062,      -22.9644775391,       52.8869628906
1494295620.6350510120,       -0.5375976562,        0.4731445312,        0.1762695312,       -0.5493164062,      -22.9644775391,       52.8869628906
1494295620.6376039982,       -0.5375976562,        0.4731445312,        0.1762695312,       -0.5493164062,      -21.9116210938,       49.5452880859
1494295620.6401689053,       -0.6074218750,        0.4560546875,        0.1225585938,       -0.8697509766,      -21.9116210938,       49.5452880859
1494295620.6428461075,       -0.6074218750,        0.4560546875,        0.1225585938,       -0.8697509766,      -21.9116210938,       46.0968017578
1494295620.6454110146,       -0.6074218750,        0.4560546875,        0.1225585938,       -1.5106201172,      -21.0571289062,       46.0968017578
1494295620.6479790211,       -0.6074218750,        0.4560546875,        0.1225585938,       -1.5106201172,      -21.0571289062,       45.3796386719
1494295620.6505300999,       -0.5932617188,        0.4794921875,        0.0874023438,       -0.3967285156,      -19.0429687500,       45.3796386719
1494295620.6533079147,       -0.5932617188,        0.4794921875,        0.0874023438,       -0.3967285156,      -19.0429687500,       44.9218750000
1494295620.6560130119,       -0.5932617188,        0.4794921875,        0.0874023438,        1.0070800781,      -16.1132812500,       44.9218750000
1494295620.6587059498,       -0.5932617188,        0.4794921875,        0.0976562500,        1.0070800781,      -16.1132812500,       41.0156250000
1494295620.6613850594,       -0.6728515625,        0.4287109375,        0.0976562500,       -0.2136230469,      -11.7187500000,       42.3278808594
1494295620.6639370918,       -0.6728515625,        0.4287109375,        0.0976562500,       -0.2136230469,      -11.7187500000,       42.3278808594
1494295620.6664960384,       -0.6728515625,        0.4287109375,        0.0976562500,       -2.1514892578,       -7.3242187500,       38.7725830078
1494295620.6690518856,       -0.6728515625,        0.4624023438,        0.1176757812,       -2.1514892578,       -7.3242187500,       38.7725830078
1494295620.6716609001,       -0.6479492188,        0.4624023438,        0.1176757812,       -4.3792724609,       -4.1046142578,       35.2325439453
1494295620.6743528843,       -0.6479492188,        0.4624023438,        0.1176757812,       -4.3792724609,       -4.1046142578,       35.2325439453
1494295620.6770489216,       -0.6479492188,        0.4624023438,        0.1176757812,       -5.5084228516,       -2.0446777344,       32.5469970703
1494295620.6797420979,       -0.5747070312,        0.4990234375,        0.1391601562,       -5.5084228516,       -2.0446777344,       32.5469970703
1494295620.6823699474,       -0.5747070312,        0.4990234375,        0.1391601562,       -4.1198730469,        0.3967285156,       30.6549072266
1494295620.6849210262,       -0.5747070312,        0.4990234375,        0.1391601562,       -4.1198730469,        0.3967285156,       30.6549072266
1494295620.6874771118,       -0.5747070312,        0.4990234375,        0.1391601562,       -1.7089843750,        1.6784667969,       28.5339355469
1494295620.6900329590,       -0.5771484375,        0.5419921875,        0.1376953125,       -1.7089843750,        1.6784667969,       28.5339355469
1494295620.6926970482,       -0.5771484375,        0.5419921875,        0.1376953125,        1.9683837891,        1.7089843750,       25.5432128906
1494295620.6953918934,       -0.5771484375,        0.5419921875,        0.1376953125,        1.9683837891,        1.7089843750,       25.5432128906
1494295620.6980888844,       -0.5771484375,        0.5419921875,        0.1376953125,        5.0048828125,        0.9307861328,       22.5677490234
1494295620.7009339333,       -0.5698242188,        0.5507812500,        0.1269531250,        5.0048828125,        0.9307861328,       22.5677490234
1494295620.7036330700,       -0.5698242188,        0.5507812500,        0.1269531250,        6.7138671875,       -0.2136230469,       19.2260742188
1494295620.7063269615,       -0.5698242188,        0.5507812500,        0.1269531250,        6.7138671875,       -0.2136230469,       19.2260742188
1494295620.7091560364,       -0.5698242188,        0.5507812500,        0.1015625000,        7.1716308594,       -1.3885498047,       16.0522460938
1494295620.7119290829,       -0.6215820312,        0.5400390625,        0.1015625000,        7.1716308594,       -1.3885498047,       16.0522460938
1494295620.7145810127,       -0.6215820312,        0.5400390625,        0.1015625000,        8.1176757812,       -2.5177001953,       12.4206542969
1494295620.7171568871,       -0.6215820312,        0.5400390625,        0.1015625000,        8.1176757812,       -2.5177001953,       12.4206542969
1494295620.7197120190,       -0.7465820312,        0.5107421875,        0.0717773438,        9.4757080078,       -3.3874511719,        8.7127685547
1494295620.7223949432,       -0.6362304688,        0.5107421875,        0.0717773438,        9.4757080078,       -3.3874511719,        8.7127685547
1494295620.7250928879,       -0.6362304688,        0.5107421875,        0.0717773438,       11.2762451172,       -3.3416748047,        5.0048828125
1494295620.7277829647,       -0.6362304688,        0.5107421875,        0.0717773438,       11.2762451172,       -3.3416748047,        5.0048828125
1494295620.7304720879,       -0.5468750000,        0.5859375000,        0.1079101562,       11.6271972656,       -2.8381347656,        0.4730224609
1494295620.7331779003,       -0.5468750000,        0.5859375000,        0.1079101562,       11.6271972656,       -2.8381347656,        0.4730224609
1494295620.7358720303,       -0.5468750000,        0.5859375000,        0.1079101562,       13.2446289062,       -2.8686523438,       -5.3405761719
1494295620.7385680676,       -0.5468750000,        0.5859375000,        0.1079101562,       13.2446289062,       -2.8686523438,       -5.3405761719
1494295620.7412390709,       -0.5830078125,        0.6528320312,        0.1171875000,       13.2446289062,       -2.0599365234,      -12.9852294922
1494295620.7437970638,       -0.5830078125,        0.6528320312,        0.1171875000,       15.3656005859,       -2.0599365234,      -12.9852294922
1494295620.7463600636,       -0.5830078125,        0.6528320312,        0.1171875000,       15.3656005859,       -2.0599365234,      -20.2331542969
1494295620.7489149570,       -0.5830078125,        0.6528320312,        0.1171875000,       17.6391601562,       -0.5645751953,      -20.2331542969
1494295620.7515199184,       -0.6030273438,        0.5917968750,        0.0991210938,       17.6391601562,       -0.5645751953,      -24.3377685547
1494295620.7540810108,       -0.6030273438,        0.5917968750,        0.0991210938,       22.2167968750,       -1.7089843750,      -24.3377685547
1494295620.7566349506,       -0.6030273438,        0.5917968750,        0.0991210938,       22.2167968750,       -1.7089843750,      -28.2440185547
1494295620.7592000961,       -0.6030273438,        0.5917968750,        0.2241210938,       26.1688232422,       -3.2806396484,      -30.1818847656
1494295620.7618410587,       -0.5766601562,        0.6376953125,        0.1352539062,       26.1688232422,       -3.2806396484,      -30.1818847656
1494295620.7643959522,       -0.5766601562,        0.6376953125,        0.1352539062,       31.5856933594,       -3.7078857422,      -35.5377197266
1494295620.7669630051,       -0.5766601562,        0.6376953125,        0.1352539062,       31.5856933594,       -3.7078857422,      -35.5377197266
1494295620.7695240974,       -0.5766601562,        0.6376953125,        0.0898437500,       39.1082763672,       -4.2419433594,      -41.0308837891
1494295620.7724320889,       -0.6083984375,        0.6416015625,        0.0898437500,       39.1082763672,       -4.2419433594,      -41.0308837891
1494295620.7751350403,       -0.6083984375,        0.6416015625,        0.0898437500,       46.7529296875,       -4.3029785156,      -45.6695556641
1494295620.7778298855,       -0.6083984375,        0.6416015625,        0.0898437500,       46.7529296875,       -4.3029785156,      -45.6695556641
1494295620.7805340290,       -0.6577148438,        0.5888671875,        0.0874023438,       52.8564453125,       -3.2501220703,      -50.4150390625
1494295620.7832379341,       -0.6577148438,        0.5888671875,        0.0874023438,       52.8564453125,       -3.2501220703,      -50.4150390625
1494295620.7859320641,       -0.6577148438,        0.5888671875,        0.0874023438,       57.1899414062,       -1.5106201172,      -55.4809570312
1494295620.7886340618,       -0.6577148438,        0.5888671875,        0.0874023438,       57.1899414062,       -1.5106201172,      -55.4809570312
1494295620.7913460732,       -0.6860351562,        0.5073242188,        0.1230468750,       59.1888427734,       -0.0915527344,      -61.5081787109
1494295620.7940430641,       -0.6860351562,        0.5073242188,        0.1230468750,       59.1888427734,       -0.0915527344,      -61.5081787109
1494295620.7967510223,       -0.6860351562,        0.5073242188,        0.1230468750,       61.2945556641,        0.1525878906,      -66.1468505859
1494295620.7994489670,       -0.6860351562,        0.5073242188,        0.2480468750,       61.2945556641,        0.1525878906,      -66.1468505859
1494295620.8020899296,       -0.6958007812,        0.4609375000,        0.1689453125,       60.3942871094,        1.3275146484,      -70.8923339844
1494295620.8046469688,       -0.6958007812,        0.4609375000,        0.1689453125,       60.3942871094,        1.3275146484,      -70.8923339844
1494295620.8072030544,       -0.6958007812,        0.4609375000,        0.1689453125,       56.5948486328,        2.5482177734,      -77.0721435547
1494295620.8097639084,       -0.6958007812,        0.4609375000,        0.1533203125,       56.5948486328,        2.5482177734,      -77.0721435547
1494295620.8124198914,       -0.6953125000,        0.4521484375,        0.1533203125,       52.7648925781,        3.3111572266,      -82.7789306641
1494295620.8149700165,       -0.6953125000,        0.4521484375,        0.1533203125,       52.7648925781,        3.3111572266,      -82.7789306641
1494295620.8175330162,       -0.6953125000,        0.4521484375,        0.1533203125,       50.3845214844,        5.5694580078,      -87.9058837891
1494295620.8200910091,       -0.6953125000,        0.5771484375,        0.1596679688,       50.3845214844,        5.5694580078,      -87.9058837891
1494295620.8228240013,       -0.7807617188,        0.5683593750,        0.1596679688,       50.3845214844,        8.8958740234,      -93.3685302734
1494295620.8255200386,       -0.7807617188,        0.5683593750,        0.1596679688,       48.3703613281,        8.8958740234,      -93.3685302734
1494295620.8283441067,       -0.7807617188,        0.5683593750,        0.1596679688,       46.7224121094,       12.8326416016,     -101.4862060547
1494295620.8314349651,       -0.8637695312,        0.6767578125,        0.1772460938,       46.7224121094,       12.8326416016,     -101.4862060547
1494295620.8341400623,       -0.8637695312,        0.6767578125,        0.1772460938,       46.2646484375,       16.6778564453,     -110.7025146484
1494295620.8368499279,       -0.8637695312,        0.6767578125,        0.1772460938,       46.2646484375,       16.6778564453,     -110.7025146484
1494295620.8395559788,       -0.8637695312,        0.6767578125,        0.1772460938,       49.3469238281,       22.7355957031,     -120.6665039062
1494295620.8422648907,       -1.0058593750,        0.7988281250,        0.2304687500,       49.3469238281,       22.7355957031,     -120.6665039062
1494295620.8449718952,       -1.0058593750,        0.7988281250,        0.2304687500,       53.0090332031,       29.1137695312,     -129.3487548828
1494295620.8477780819,       -1.0058593750,        0.7988281250,        0.2304687500,       53.0090332031,       29.1137695312,     -129.3487548828
1494295620.8504850864,       -1.0058593750,        0.8793945312,       -0.0454101562,       55.7403564453,       37.7197265625,     -138.2141113281
1494295620.8531980515,       -1.3540039062,        0.8793945312,       -0.0454101562,       55.7403564453,       37.7197265625,     -138.2141113281
1494295620.8558979034,       -1.3540039062,        0.8793945312,       -0.0454101562,       60.3942871094,       47.3632812500,     -149.0478515625
1494295620.8586039543,       -1.3540039062,        0.8793945312,       -0.0454101562,       60.3942871094,       47.3632812500,     -149.0478515625
1494295620.8613200188,       -1.7504882812,        0.8237304688,       -0.1513671875,       62.6525878906,       57.3730468750,     -161.3769531250
1494295620.8638739586,       -1.7504882812,        0.8237304688,       -0.1513671875,       62.6525878906,       57.3730468750,     -161.3769531250
1494295620.8664329052,       -1.7504882812,        0.8237304688,       -0.1513671875,       62.6525878906,       68.5119628906,     -172.5158691406
1494295620.8689889908,       -1.7504882812,        0.8237304688,       -0.1513671875,       63.6749267578,       68.5119628906,     -172.5158691406
1494295620.8715689182,       -2.1127929688,        0.7700195312,       -0.2446289062,       63.6749267578,       76.3244628906,     -184.9975585938
1494295620.8741269112,       -2.1127929688,        0.7700195312,       -0.2446289062,       64.0411376953,       76.3549804688,     -184.9975585938
1494295620.8766860962,       -2.1127929688,        0.7700195312,       -0.2446289062,       64.0411376953,       76.3549804688,     -198.4558105469
1494295620.8792419434,       -2.1127929688,        0.7700195312,       -0.2446289062,       63.5986328125,       81.0852050781,     -198.4558105469
1494295620.8819200993,       -2.4404296875,        0.5185546875,       -0.1909179688,       63.5986328125,       81.0852050781,     -214.0808105469
1494295620.8844790459,       -2.4404296875,        0.5185546875,       -0.1909179688,       68.8629150391,       82.9925537109,     -213.0279541016
1494295620.8870429993,       -2.4404296875,        0.5185546875,       -0.1909179688,       68.8629150391,       82.9925537109,     -213.0279541016
1494295620.8896050453,       -2.4404296875,        0.5185546875,       -0.1909179688,       76.7822265625,       83.0230712891,     -229.2938232422
1494295620.8923289776,       -2.6113281250,        0.1000976562,       -0.0917968750,       76.7822265625,       83.0230712891,     -229.2938232422
1494295620.8950340748,       -2.6113281250,        0.1000976562,       -0.0917968750,       86.9750976562,       80.5511474609,     -248.3215332031
1494295620.8977351189,       -2.6113281250,        0.1000976562,       -0.0917968750,       86.9750976562,       80.5511474609,     -248.3215332031
1494295620.9004371166,       -2.6113281250,        0.1000976562,        0.1669921875,       97.8088378906,       73.9746093750,     -271.5148925781
1494295620.9031770229,       -2.5161132812,       -0.5976562500,        0.1669921875,       97.8088378906,       73.9746093750,     -271.5148925781
1494295620.9058699608,       -2.5161132812,       -0.5976562500,        0.1669921875,      107.8338623047,       64.0563964844,     -298.5382080078
1494295620.9085741043,       -2.5161132812,       -0.5976562500,        0.1669921875,      107.8338623047,       64.0563964844,     -298.5382080078
1494295620.9112501144,       -2.1411132812,       -1.2456054688,        0.0932617188,      119.2779541016,       54.3060302734,     -330.2612304688
1494295620.9138081074,       -2.1699218750,       -1.2456054688,        0.0932617188,      119.2779541016,       54.3060302734,     -330.2612304688
1494295620.9163689613,       -2.1699218750,       -1.2456054688,        0.0932617188,      130.8593750000,       48.4619140625,     -362.8234863281
1494295620.9189300537,       -2.1699218750,       -1.2456054688,        0.0932617188,      130.8593750000,       48.4619140625,     -362.8234863281
1494295620.9216461182,       -1.8315429688,       -0.4282226562,        0.0175781250,      123.7487792969,       47.1496582031,     -379.2419433594
1494295620.9242100716,       -1.8315429688,       -0.4282226562,        0.0175781250,      123.7487792969,       47.1496582031,     -379.2419433594
1494295620.9267721176,       -1.8315429688,       -0.4282226562,        0.0175781250,       91.8273925781,       52.2155761719,     -360.1989746094
1494295620.9293389320,       -1.8315429688,       -0.4282226562,        0.0175781250,       91.8273925781,       52.2155761719,     -360.1989746094
1494295620.9320170879,       -1.9243164062,        0.9199218750,        0.1508789062,       64.0563964844,       62.2711181641,     -312.8967285156
1494295620.9347200394,       -1.9243164062,        0.9199218750,        0.1508789062,       64.0563964844,       62.2711181641,     -312.8967285156
1494295620.9374210835,       -1.9243164062,        0.9199218750,        0.1508789062,       53.1158447266,       65.5364990234,     -260.0097656250
1494295620.9401190281,       -1.9243164062,        0.9199218750,        0.1508789062,       53.1158447266,       65.5364990234,     -260.0097656250
1494295620.9428369999,       -2.3798828125,        2.5644531250,        0.9565429688,       24.0478515625,       75.5157470703,     -203.9031982422
1494295620.9455358982,       -2.3798828125,        2.5644531250,        0.9565429688,       24.0478515625,       75.5157470703,     -203.9031982422
1494295620.9483449459,       -2.3798828125,        2.5644531250,        0.9565429688,       -2.2430419922,       78.8116455078,     -153.1829833984
1494295620.9514269829,       -2.3798828125,        2.2021484375,        1.1401367188,       -2.2430419922,       78.8116455078,     -153.1829833984
1494295620.9541230202,        0.3671875000,        2.2021484375,        1.1401367188,       10.0555419922,       51.7425537109,     -113.1286621094
1494295620.9568281174,        0.3671875000,        2.2021484375,        1.1401367188,       10.0555419922,       51.7425537109,     -113.1286621094
1494295620.9595251083,        0.3671875000,        2.2021484375,        1.1401367188,       -0.0762939453,       -9.1552734375,      -52.2613525391
1494295620.9621589184,        1.0190429688,        1.7836914062,        0.9086914062,       -0.0762939453,       -9.1552734375,      -52.2613525391
1494295620.9647181034,        1.0190429688,        1.7836914062,        0.9086914062,      -17.1966552734,      -46.6918945312,       11.2152099609
1494295620.9672770500,        1.0190429688,        1.7836914062,        0.9086914062,      -17.1966552734,      -46.6918945312,       11.2152099609
1494295620.9698359966,        1.0190429688,        1.7836914062,        0.9086914062,       -5.4779052734,      -54.8553466797,       51.8035888672
1494295620.9724929333,       -0.2592773438,       -0.2646484375,       -0.3427734375,       -6.0272216797,      -54.8553466797,       51.8035888672
1494295620.9751889706,       -0.2592773438,       -0.2646484375,       -0.3427734375,       -2.1209716797,      -51.8188476562,       76.4923095703
1494295620.9778890610,       -0.2592773438,       -0.2646484375,       -0.3427734375,       -1.9226074219,      -51.8188476562,       76.4923095703
1494295620.9805839062,       -0.2592773438,       -0.2646484375,       -0.3427734375,       -1.9226074219,      -39.8712158203,      100.0671386719
1494295620.9831459522,       -0.7138671875,       -0.1704101562,       -0.6704101562,      -24.7650146484,      -39.8712158203,      100.0671386719
1494295620.9857060909,       -0.7138671875,       -0.1704101562,       -0.6704101562,      -24.7650146484,      -39.8712158203,      117.0959472656
1494295620.9882600307,       -0.7138671875,       -0.1704101562,       -0.6704101562,      -45.2423095703,      -30.3802490234,      117.0959472656
1494295620.9908208847,       -0.7138671875,       -0.1704101562,       -0.6704101562,      -45.2423095703,      -30.3802490234,      124.9084472656
1494295620.9934790134,       -0.4848632812,        0.0751953125,       -0.4702148438,      -51.9866943359,      -24.0325927734,      124.4964599609
1494295620.9960401058,       -0.4848632812,        0.0751953125,       -0.4702148438,      -51.9866943359,      -24.0325927734,      124.4964599609
1494295620.9986019135,       -0.4848632812,        0.0751953125,       -0.4702148438,      -56.8084716797,      -23.9562988281,      126.0223388672
1494295621.0012919903,       -0.4848632812,        0.0751953125,       -0.3032226562,      -56.8084716797,      -23.9562988281,      126.0223388672
1494295621.0038530827,       -0.2011718750,        0.0649414062,       -0.3032226562,      -59.9975585938,      -26.3671875000,      124.3591308594
1494295621.0064170361,       -0.2011718750,        0.0649414062,       -0.3032226562,      -59.9975585938,      -26.3671875000,      124.3591308594
1494295621.0089759827,       -0.2011718750,        0.0649414062,       -0.3032226562,      -55.8319091797,      -27.0996093750,      118.4082031250
1494295621.0116620064,       -0.2011718750,       -0.1850585938,       -0.3583984375,      -55.8319091797,      -27.0996093750,      118.4082031250
1494295621.0142168999,       -0.1064453125,       -0.2216796875,       -0.3583984375,      -48.9044189453,      -24.0478515625,      107.6049804688
1494295621.0167779922,       -0.1064453125,       -0.2216796875,       -0.3583984375,      -48.9044189453,      -24.0478515625,      107.6049804688
1494295621.0193359852,       -0.1064453125,       -0.2216796875,       -0.3583984375,      -45.2270507812,      -19.0277099609,       94.8486328125
1494295621.0220038891,       -0.1064453125,       -0.5180664062,       -0.3281250000,      -45.2270507812,      -19.0277099609,       94.8486328125
1494295621.0247049332,       -0.0244140625,       -0.5180664062,       -0.3281250000,      -49.4537353516,      -15.9759521484,       81.5887451172
1494295621.0274128914,       -0.0244140625,       -0.5180664062,       -0.3281250000,      -49.4537353516,      -15.9759521484,       81.5887451172
1494295621.0301060677,       -0.0244140625,       -0.5180664062,       -0.3281250000,      -59.7381591797,      -14.7705078125,       68.3746337891
1494295621.0328240395,        0.0341796875,       -0.5507812500,       -0.1728515625,      -59.7381591797,      -14.7705078125,       68.3746337891
1494295621.0355238914,        0.0341796875,       -0.5507812500,       -0.1728515625,      -71.6094970703,      -14.4500732422,       56.3812255859
1494295621.0382189751,        0.0341796875,       -0.5507812500,       -0.1728515625,      -71.6094970703,      -14.4500732422,       56.3812255859
1494295621.0409669876,        0.0341796875,       -0.5507812500,       -0.1728515625,      -81.8176269531,      -14.3127441406,       47.6379394531
1494295621.0436670780,       -0.0029296875,       -0.4111328125,       -0.0991210938,      -81.8176269531,      -14.3127441406,       47.6379394531
1494295621.0463640690,       -0.0029296875,       -0.4111328125,       -0.0991210938,      -89.5233154297,      -13.6871337891,       42.6330566406
1494295621.0490710735,       -0.0029296875,       -0.4111328125,       -0.0991210938,      -89.5233154297,      -13.6871337891,       42.6330566406
1494295621.0517818928,       -0.0029296875,       -0.4111328125,       -0.1235351562,      -96.4660644531,      -10.4522705078,       38.7573242188
1494295621.0544838905,       -0.0864257812,       -0.3833007812,       -0.1235351562,      -96.4660644531,      -10.4522705078,       38.7573242188
1494295621.0571870804,       -0.0864257812,       -0.3833007812,       -0.1235351562,     -105.1940917969,       -6.2255859375,       36.1633300781
1494295621.0598840714,       -0.0864257812,       -0.3833007812,       -0.1235351562,     -105.1940917969,       -6.2255859375,       36.1633300781
1494295621.0625000000,       -0.0864257812,       -0.4599609375,       -0.1513671875,     -115.1885986328,       -1.9836425781,       32.2723388672
1494295621.0650529861,       -0.1132812500,       -0.4599609375,       -0.1513671875,     -115.1885986328,       -1.9836425781,       32.2723388672
1494295621.0679359436,       -0.1132812500,       -0.4599609375,       -0.1513671875,     -123.7030029297,        1.3885498047,       26.4129638672
1494295621.0704948902,       -0.1132812500,       -0.4599609375,       -0.1513671875,     -123.7030029297,        1.3885498047,       26.4129638672
1494295621.0734260082,       -0.0698242188,       -0.3793945312,       -0.1601562500,     -128.9978027344,        3.9825439453,       18.6004638672
1494295621.0761129856,       -0.0698242188,       -0.3793945312,       -0.1601562500,     -128.9978027344,        3.9825439453,       18.6004638672
1494295621.0787880421,       -0.0698242188,       -0.3793945312,       -0.1601562500,     -128.8452148438,        6.0882568359,        9.6130371094
1494295621.0814669132,       -0.0698242188,       -0.3793945312,       -0.1601562500,     -128.8452148438,        6.0882568359,        9.6130371094
1494295621.0841429234,       -0.0063476562,       -0.1669921875,       -0.1323242188,     -124.9389648438,        6.6375732422,        1.7395019531
1494295621.0868229866,       -0.0063476562,       -0.1669921875,       -0.1323242188,     -123.4741210938,        6.6375732422,        1.7395019531
1494295621.0895059109,       -0.0063476562,       -0.1669921875,       -0.1323242188,     -111.7553710938,        6.4697265625,       -5.2947998047
1494295621.0921928883,       -0.0063476562,       -0.1669921875,       -0.1054687500,     -112.7319335938,        6.4697265625,       -5.2947998047
1494295621.0948688984,        0.0136718750,        0.0039062500,       -0.1054687500,      -97.1069335938,        6.6070556641,      -12.2070312500
1494295621.0975608826,        0.0136718750,        0.0039062500,       -0.1054687500,      -97.2442626953,        6.6070556641,      -12.2070312500
1494295621.1002390385,        0.0136718750,        0.0039062500,       -0.1054687500,      -81.6192626953,        6.5460205078,      -18.1732177734
1494295621.1029040813,        0.0136718750,        0.0673828125,       -0.0722656250,      -80.2917480469,        6.5460205078,      -18.1732177734
1494295621.1054620743,        0.0029296875,        0.0673828125,       -0.0722656250,      -80.2917480469,        6.5460205078,      -22.1099853516
1494295621.1080179214,        0.0029296875,        0.0673828125,       -0.0722656250,      -64.8040771484,        6.1798095703,      -22.1099853516
1494295621.1105771065,        0.0029296875,        0.0673828125,       -0.0722656250,      -64.8040771484,        6.1798095703,      -26.0162353516
1494295621.1131420135,       -0.0351562500,        0.0781250000,       -0.0566406250,      -51.1932373047,        5.4626464844,      -24.9938964844
1494295621.1156949997,       -0.0351562500,        0.0781250000,       -0.0566406250,      -51.1932373047,        5.4626464844,      -24.9938964844
1494295621.1182539463,       -0.0351562500,        0.0781250000,       -0.0566406250,      -40.9698486328,        5.1727294922,      -27.0690917969
1494295621.1208961010,       -0.0351562500,        0.0781250000,       -0.0566406250,      -40.9698486328,        5.1727294922,      -27.0690917969
1494295621.1234669685,       -0.0595703125,        0.1083984375,       -0.0693359375,      -32.9589843750,        4.5166015625,      -28.3203125000
1494295621.1260259151,       -0.0595703125,        0.1083984375,       -0.0693359375,      -32.9589843750,        4.5166015625,      -28.3203125000
1494295621.1285820007,       -0.0595703125,        0.1083984375,       -0.0693359375,      -25.5126953125,        3.0364990234,      -28.1372070312
1494295621.1312990189,       -0.0595703125,        0.1083984375,       -0.0693359375,      -25.5126953125,        3.0364990234,      -28.1372070312
1494295621.1339960098,       -0.0717773438,        0.1523437500,       -0.1030273438,      -18.6157226562,        1.8615722656,      -26.8859863281
1494295621.1366899014,       -0.0717773438,        0.1523437500,       -0.1030273438,      -18.6157226562,        1.8615722656,      -26.8859863281
1494295621.1393930912,       -0.0717773438,        0.1523437500,       -0.1030273438,      -11.8103027344,        1.1444091797,      -24.9786376953
1494295621.1422100067,       -0.0717773438,        0.1523437500,       -0.2280273438,      -11.8103027344,        1.1444091797,      -24.9786376953
1494295621.1449160576,       -0.0805664062,        0.1606445312,       -0.1313476562,       -4.6691894531,        0.4882812500,      -23.2391357422
1494295621.1476140022,       -0.0805664062,        0.1606445312,       -0.1313476562,       -4.6691894531,        0.4882812500,      -23.2391357422
1494295621.1503129005,       -0.0805664062,        0.1606445312,       -0.1313476562,        0.5340576172,       -0.0305175781,      -20.9808349609
1494295621.1530210972,       -0.0805664062,        0.1225585938,       -0.1513671875,        0.5340576172,       -0.0305175781,      -20.9808349609
1494295621.1557149887,       -0.1054687500,        0.1225585938,       -0.1513671875,        3.5247802734,        0.9765625000,      -18.5241699219
1494295621.1584100723,       -0.1054687500,        0.1225585938,       -0.1513671875,        3.5247802734,        0.9765625000,      -18.5241699219
1494295621.1611340046,       -0.1054687500,        0.1225585938,       -0.1513671875,        4.5928955078,        1.6479492188,      -16.2200927734
1494295621.1636888981,       -0.1035156250,        0.0664062500,       -0.1372070312,        4.5928955078,        1.6479492188,      -16.2200927734
1494295621.1662449837,       -0.1035156250,        0.0664062500,       -0.1372070312,        4.1503906250,        2.5482177734,      -14.9536132812
1494295621.1688001156,       -0.1035156250,        0.0664062500,       -0.1372070312,        4.1503906250,        2.5482177734,      -14.9536132812
1494295621.1714251041,       -0.1035156250,        0.0664062500,       -0.1372070312,        3.6010742188,        2.7923583984,      -14.2364501953
1494295621.1741058826,       -0.0781250000,        0.0493164062,       -0.0932617188,        3.6010742188,        2.7923583984,      -14.2364501953
1494295621.1767890453,       -0.0781250000,        0.0493164062,       -0.0932617188,        4.0283203125,        2.4261474609,      -14.1601562500
1494295621.1794729233,       -0.0781250000,        0.0493164062,       -0.0932617188,        4.0283203125,        2.4261474609,      -14.1601562500
1494295621.1821689606,       -0.0781250000,        0.0493164062,       -0.0932617188,        6.3934326172,        2.2430419922,      -14.4653320312
1494295621.1848530769,       -0.0664062500,        0.0854492188,       -0.0600585938,        6.3934326172,        2.2430419922,      -14.4653320312
1494295621.1876709461,       -0.0664062500,        0.0854492188,       -0.0600585938,       11.3220214844,        1.8920898438,      -15.1672363281
1494295621.1907889843,       -0.0664062500,        0.0854492188,       -0.0600585938,       11.3220214844,        1.8920898438,      -15.1672363281
1494295621.1934709549,       -0.0664062500,        0.1401367188,       -0.0297851562,       18.9819335938,        0.7324218750,      -16.7236328125
1494295621.1961588860,       -0.0566406250,        0.1401367188,       -0.0297851562,       18.9819335938,        0.7324218750,      -16.7236328125
1494295621.1988399029,       -0.0566406250,        0.1401367188,       -0.0297851562,       28.9764404297,       -0.1678466797,      -19.1955566406
1494295621.2015290260,       -0.0566406250,        0.1401367188,       -0.0297851562,       28.9764404297,       -0.1678466797,      -19.1955566406
1494295621.2040929794,       -0.0488281250,        0.1459960938,       -0.0151367188,       41.0308837891,       -1.0681152344,      -21.1029052734
1494295621.2066559792,       -0.0488281250,        0.1459960938,       -0.0151367188,       41.0308837891,       -1.0681152344,      -21.1029052734
1494295621.2092170715,       -0.0488281250,        0.1459960938,       -0.0151367188,       52.7496337891,       -1.8920898438,      -23.2849121094
1494295621.2118399143,       -0.0488281250,        0.1459960938,       -0.0151367188,       53.4515380859,       -1.8920898438,      -23.2849121094
1494295621.2146389484,       -0.0444335938,        0.1298828125,       -0.0234375000,       65.1702880859,       -2.8686523438,      -25.5126953125
1494295621.2173390388,       -0.0444335938,        0.1298828125,       -0.0234375000,       65.5822753906,       -2.8686523438,      -25.5126953125
1494295621.2200360298,       -0.0444335938,        0.1298828125,       -0.0234375000,       77.3010253906,       -3.6163330078,      -27.0538330078
1494295621.2226669788,       -0.0444335938,        0.1298828125,       -0.0234375000,       77.0263671875,       -3.6163330078,      -27.0538330078
1494295621.2252290249,       -0.0336914062,        0.0913085938,       -0.0102539062,       77.0263671875,       -7.5225830078,      -28.1372070312
1494295621.2277820110,       -0.0336914062,        0.0913085938,       -0.0102539062,       86.8988037109,       -4.1503906250,      -28.1372070312
1494295621.2303369045,       -0.0336914062,        0.0913085938,       -0.0102539062,       86.8988037109,       -4.1503906250,      -28.1372070312
1494295621.2328970432,       -0.0336914062,        0.0913085938,       -0.0102539062,       94.4366455078,       -3.6468505859,      -28.2592773438
1494295621.2354509830,       -0.0278320312,        0.0122070312,       -0.0229492188,       94.4366455078,       -3.6468505859,      -28.2592773438
1494295621.2380099297,       -0.0278320312,        0.0122070312,       -0.0229492188,       98.2818603516,       -2.7160644531,      -28.0456542969
1494295621.2405650616,       -0.0278320312,        0.0122070312,       -0.0229492188,       98.2818603516,       -2.7160644531,      -28.0456542969
1494295621.2432219982,       -0.0278320312,        0.0122070312,       -0.0229492188,       98.1140136719,       -1.7547607422,      -27.5878906250
1494295621.2457859516,       -0.0214843750,       -0.0737304688,       -0.0019531250,       98.1140136719,       -1.7547607422,      -27.5878906250
1494295621.2483470440,       -0.0214843750,       -0.0737304688,       -0.0019531250,       95.4284667969,       -0.9765625000,      -26.8096923828
1494295621.2510569096,       -0.0214843750,       -0.0737304688,       -0.0019531250,       95.4284667969,       -0.9765625000,      -26.8096923828
1494295621.2536199093,       -0.0214843750,       -0.0737304688,        0.0351562500,       92.7124023438,       -0.4425048828,      -26.7333984375
1494295621.2561759949,        0.0000000000,       -0.0781250000,        0.0351562500,       92.7124023438,       -0.4425048828,      -26.7333984375
1494295621.2587370872,        0.0000000000,       -0.0781250000,        0.0351562500,       90.8813476562,       -0.8544921875,      -26.4282226562
1494295621.2613680363,        0.0000000000,       -0.0781250000,        0.0351562500,       90.8813476562,       -0.8544921875,      -26.4282226562
1494295621.2640659809,        0.0000000000,       -0.0615234375,        0.0556640625,       89.8742675781,       -1.4038085938,      -26.1230468750
1494295621.2667679787,        0.0087890625,       -0.0615234375,        0.0556640625,       89.8742675781,       -1.4038085938,      -26.1230468750
1494295621.2694680691,        0.0087890625,       -0.0615234375,        0.0556640625,       89.2639160156,       -2.8533935547,      -26.5197753906
1494295621.2721779346,        0.0087890625,       -0.0615234375,        0.0556640625,       89.2639160156,       -2.8533935547,      -26.5197753906
1494295621.2748770714,       -0.0112304688,       -0.0278320312,        0.0644531250,       89.9963378906,       -3.6621093750,      -27.4963378906
1494295621.2775740623,       -0.0112304688,       -0.0278320312,        0.0644531250,       89.9963378906,       -3.6621093750,      -27.4963378906
1494295621.2802729607,       -0.0112304688,       -0.0278320312,        0.0644531250,       92.1630859375,       -5.0659179688,      -27.8167724609
1494295621.2828609943,       -0.0112304688,       -0.0278320312,        0.0644531250,       92.1630859375,       -5.0659179688,      -27.8167724609
1494295621.2854139805,       -0.0317382812,       -0.0141601562,        0.0629882812,       96.0693359375,       -6.3476562500,      -27.4200439453
1494295621.2880899906,       -0.0317382812,       -0.0141601562,        0.0629882812,       96.3897705078,       -6.3476562500,      -27.4200439453
1494295621.2906959057,       -0.0317382812,       -0.0141601562,        0.0629882812,       96.3897705078,       -6.6833496094,      -26.7333984375
1494295621.2933969498,       -0.0317382812,       -0.0141601562,        0.0629882812,      101.0742187500,       -6.6833496094,      -26.7333984375
1494295621.2960979939,       -0.0678710938,        0.0034179688,        0.0327148438,      101.0742187500,       -6.9580078125,      -25.6347656250
1494295621.2987980843,       -0.0678710938,        0.0034179688,        0.0327148438,      103.8055419922,       -6.9580078125,      -25.6347656250
1494295621.3015060425,       -0.0678710938,        0.0034179688,        0.0327148438,      103.8055419922,       -6.9580078125,      -24.1394042969
1494295621.3040649891,       -0.0678710938,        0.0034179688,        0.0283203125,      105.2093505859,       -7.3699951172,      -24.1394042969
1494295621.3066220284,       -0.0898437500,        0.0205078125,        0.0283203125,      105.2093505859,       -7.3699951172,      -22.4456787109
1494295621.3093149662,       -0.0898437500,        0.0205078125,        0.0283203125,      105.9570312500,       -8.4228515625,      -22.4456787109
1494295621.3123741150,       -0.0898437500,        0.0205078125,        0.0283203125,      105.9570312500,       -8.4228515625,      -19.8669433594
1494295621.3150761127,       -0.1113281250,        0.0668945312,        0.0273437500,      105.5450439453,       -9.1705322266,      -19.8669433594
1494295621.3177750111,       -0.1113281250,        0.0668945312,        0.0273437500,      105.5450439453,       -9.1705322266,      -17.3950195312
1494295621.3204770088,       -0.1113281250,        0.0668945312,        0.0273437500,      104.2480468750,      -10.6353759766,      -17.3950195312
1494295621.3231980801,       -0.1113281250,        0.0668945312,        0.0273437500,      104.2480468750,      -14.5416259766,      -13.5345458984
1494295621.3258979321,       -0.1381835938,        0.1147460938,        0.0395507812,      100.6774902344,      -12.1154785156,      -13.5345458984
1494295621.3286039829,       -0.1381835938,        0.1147460938,        0.0395507812,      100.6774902344,      -12.1154785156,       -9.0484619141
1494295621.3313488960,       -0.1381835938,        0.1147460938,        0.0395507812,       95.5657958984,      -13.0767822266,       -9.0484619141
1494295621.3340480328,       -0.1381835938,        0.1147460938,        0.0747070312,       95.5657958984,      -13.0767822266,       -3.7384033203
1494295621.3367490768,       -0.1655273438,        0.1562500000,        0.0747070312,       89.4470214844,      -13.3514404297,       -3.7384033203
1494295621.3394401073,       -0.1655273438,        0.1562500000,        0.0747070312,       89.4470214844,      -13.3514404297,        2.5939941406
1494295621.3421030045,       -0.1655273438,        0.1562500000,        0.0747070312,       82.2753906250,      -12.4511718750,        2.5939941406
1494295621.3446629047,       -0.1655273438,        0.2021484375,        0.0947265625,       82.2753906250,      -12.4511718750,       10.7269287109
1494295621.3472208977,       -0.1171875000,        0.2021484375,        0.0947265625,       77.0721435547,      -12.2528076172,       10.7269287109
1494295621.3497838974,       -0.1171875000,        0.2021484375,        0.0947265625,       77.0721435547,      -12.2528076172,       10.7269287109
1494295621.3523550034,       -0.1171875000,        0.2021484375,        0.0947265625,       73.0285644531,      -12.5427246094,       18.3868408203
1494295621.3549139500,       -0.1171875000,        0.1376953125,        0.0566406250,       73.0285644531,      -12.5427246094,       18.3868408203
1494295621.3574841022,       -0.0947265625,        0.1376953125,        0.0566406250,       67.5659179688,      -13.8854980469,       23.4832763672
1494295621.3600459099,       -0.0947265625,        0.1376953125,        0.0566406250,       67.5659179688,      -13.8854980469,       23.4832763672
1494295621.3628981113,       -0.0947265625,        0.1376953125,        0.0566406250,       60.5010986328,      -16.7694091797,       27.4963378906
1494295621.3654589653,       -0.1381835938,        0.0400390625,       -0.0009765625,       60.5010986328,      -16.7694091797,       27.4963378906
1494295621.3680150509,       -0.1381835938,        0.0400390625,       -0.0009765625,       53.3142089844,      -18.3410644531,       31.0821533203
1494295621.3705799580,       -0.1381835938,        0.0400390625,       -0.0009765625,       53.3142089844,      -18.3410644531,       31.0821533203
1494295621.3733849525,       -0.1381835938,        0.0400390625,       -0.0009765625,       46.7834472656,      -18.1274414062,       35.3240966797
1494295621.3760850430,       -0.1850585938,        0.0278320312,       -0.0854492188,       46.7834472656,      -18.1274414062,       35.3240966797
1494295621.3787899017,       -0.1850585938,        0.0278320312,       -0.0854492188,       39.3371582031,      -15.8386230469,       40.1611328125
1494295621.3814969063,       -0.1850585938,        0.0278320312,       -0.0854492188,       39.3371582031,      -15.8386230469,       40.1611328125
1494295621.3841960430,       -0.1850585938,        0.0278320312,       -0.2104492188,       28.0914306641,      -13.1683349609,       45.1965332031
1494295621.3869080544,       -0.2128906250,        0.0966796875,       -0.2099609375,       28.0914306641,      -13.1683349609,       45.1965332031
1494295621.3896050453,       -0.2128906250,        0.0966796875,       -0.2099609375,       14.4348144531,      -10.2996826172,       50.0793457031
1494295621.3922719955,       -0.2128906250,        0.0966796875,       -0.2099609375,       14.4348144531,      -10.2996826172,       50.0793457031
1494295621.3948318958,       -0.2128906250,        2.3466796875,       -0.8544921875,        7.4005126953,        8.8806152344,       63.0950927734
1494295621.3973879814,       -0.4238281250,        2.2700195312,       -0.8544921875,        7.4005126953,        8.8806152344,       63.0950927734
1494295621.3999459743,       -0.4238281250,        2.2700195312,       -0.8544921875,      -37.2467041016,       34.5764160156,      124.8626708984
1494295621.4026110172,       -0.4238281250,        2.2700195312,       -0.8544921875,      -37.2467041016,       34.5764160156,      124.8626708984
1494295621.4053120613,       -1.4238281250,       11.8544921875,        2.8100585938,     -166.7022705078,        4.0283203125,      263.4124755859
1494295621.4080100060,       -1.4423828125,       11.8544921875,        2.8100585938,     -166.7022705078,        4.0283203125,      263.4124755859
1494295621.4107220173,       -1.4423828125,       11.8544921875,        2.8100585938,     -356.7047119141,      -77.1942138672,      457.9925537109
1494295621.4134271145,       -1.4423828125,       11.8544921875,        2.8100585938,     -356.7047119141,      -77.1942138672,      457.9925537109
1494295621.4161279202,       -5.1245117188,       -3.4038085938,       -0.9023437500,     -294.2047119141,      -20.7061767578,      473.9685058594
1494295621.4188199043,       -5.1245117188,       -3.4038085938,       -0.9023437500,     -295.5627441406,      -20.7061767578,      473.9685058594
1494295621.4215710163,       -5.1245117188,       -3.4038085938,       -0.9023437500,      -45.5627441406,      -72.7691650391,      242.0349121094
1494295621.4242739677,       -5.1245117188,       -3.4038085938,       -0.9023437500,      -45.4101562500,      -72.7691650391,      242.0349121094
1494295621.4269940853,       -3.2641601562,       -7.4565429688,       -2.5429687500,     -166.5039062500,      -43.2434082031,      133.7127685547
1494295621.4297049046,       -3.2641601562,       -7.4565429688,       -2.5429687500,     -164.0777587891,      -43.2434082031,      133.7127685547
1494295621.4326388836,       -3.2641601562,       -7.4565429688,       -2.5429687500,      -87.8448486328,      -46.0510253906,      162.6281738281
1494295621.4354410172,       -3.2641601562,       -0.7739257812,        2.5122070312,      -87.8448486328,      -46.0510253906,      162.6281738281
1494295621.4381439686,       -0.3354492188,       -0.7739257812,        2.5122070312,     -104.7668457031,      -81.3140869141,      129.3029785156
1494295621.4408900738,       -0.3354492188,       -0.7739257812,        2.5122070312,     -104.7668457031,      -81.3140869141,      129.3029785156
1494295621.4434480667,       -0.3354492188,       -0.7739257812,        2.5122070312,     -312.9882812500,      -93.9941406250,      141.4337158203
1494295621.4460079670,       -2.8852539062,        2.5737304688,       -0.4687500000,     -312.9882812500,      -93.9941406250,      141.4337158203
1494295621.4485640526,       -2.8852539062,        2.5737304688,       -0.4687500000,     -312.9882812500,     -105.9722900391,      147.1405029297
1494295621.4511830807,       -2.8852539062,        2.5737304688,       -0.4687500000,     -339.0350341797,     -105.9722900391,      147.1405029297
1494295621.4538850784,       -2.8852539062,        2.5737304688,       -0.4687500000,     -339.0350341797,      -86.4410400391,      110.7330322266
1494295621.4565880299,       -1.9965820312,        0.9916992188,        0.8598632812,     -136.4440917969,      -86.9903564453,      110.7330322266
1494295621.4592859745,       -1.9965820312,        0.9916992188,        0.8598632812,     -136.4440917969,      -51.8341064453,       91.8884277344
1494295621.4619390965,       -1.9965820312,        0.9916992188,        0.8598632812,        7.2479248047,      -52.6885986328,       91.8884277344
1494295621.4644930363,       -1.9965820312,        0.9916992188,        0.8598632812,        7.2479248047,      -52.6885986328,      107.0709228516
1494295621.4670410156,       -1.8281250000,        0.8647460938,        1.7968750000,       17.9595947266,      -63.2629394531,      107.0709228516
1494295621.4695999622,       -1.8281250000,        0.8647460938,        1.7968750000,       17.9595947266,      -63.2629394531,      107.0709228516
1494295621.4721651077,       -1.8281250000,        0.8647460938,        1.7968750000,        2.8381347656,      -78.2623291016,      147.0336914062
1494295621.4747219086,       -1.8281250000,        0.8647460938,        1.7968750000,        2.8381347656,      -78.2623291016,      147.0336914062
1494295621.4772748947,       -7.4843750000,       -0.0498046875,       -3.2202148438,       12.4359130859,      -61.0961914062,      131.3323974609
1494295621.4798319340,       -7.4843750000,       -0.0498046875,       -3.2202148438,       12.4359130859,      -61.0961914062,      131.3323974609
1494295621.4825909138,       -7.4843750000,       -0.0498046875,       -3.2202148438,       58.7615966797,        6.6680908203,      115.6616210938
1494295621.4851510525,       -7.4843750000,       -0.0498046875,       -0.2202148438,       58.7615966797,        6.6680908203,      115.6616210938
1494295621.4877090454,       -0.7597656250,        0.3374023438,       -0.1850585938,      -32.6232910156,       25.1159667969,      120.5291748047
1494295621.4902789593,       -0.7597656250,        0.3374023438,       -0.1850585938,      -32.6232910156,       25.1159667969,      120.5291748047
1494295621.4929869175,       -0.7597656250,        0.3374023438,       -0.1850585938,     -114.5629882812,       28.7475585938,      103.9581298828
1494295621.4955480099,       -0.7597656250,        0.3374023438,        0.9877929688,     -114.5629882812,       28.7475585938,      103.9581298828
1494295621.4981160164,        1.3247070312,        0.6948242188,        0.9877929688,     -121.8872070312,        8.6669921875,       70.9381103516
1494295621.5006999969,        1.3247070312,        0.6948242188,        0.9877929688,     -121.8872070312,        8.6669921875,       70.9381103516
1494295621.5034060478,        1.3247070312,        0.6948242188,        0.9877929688,      -98.6633300781,       -8.0413818359,       37.3687744141
1494295621.5060999393,        1.4497070312,        0.9067382812,        1.0375976562,      -98.6633300781,       -8.0413818359,       37.3687744141
1494295621.5089011192,        1.4052734375,        0.9067382812,        1.0375976562,      -56.0913085938,       -4.6234130859,       21.7132568359
1494295621.5116140842,        1.4052734375,        0.9067382812,        1.0375976562,      -56.0913085938,       -4.6234130859,       21.7132568359
1494295621.5143089294,        1.4052734375,        0.9067382812,        1.0375976562,      -21.4996337891,       -4.0130615234,       17.4255371094
1494295621.5170021057,        0.2792968750,        1.0493164062,        0.4355468750,      -21.4996337891,       -4.0130615234,       17.4255371094
1494295621.5197050571,        0.2792968750,        1.0493164062,        0.4355468750,       11.0321044922,       -4.5166015625,        9.3231201172
1494295621.5223200321,        0.2792968750,        1.0493164062,        0.4355468750,       11.0321044922,       -4.5166015625,        9.3231201172
1494295621.5248799324,        0.2792968750,        1.0493164062,        0.4355468750,       11.0321044922,       -0.6561279297,       -5.4779052734
1494295621.5274279118,       -1.8266601562,        0.7817382812,       -0.6337890625,       26.8402099609,       -0.6561279297,       -5.4779052734
1494295621.5299780369,       -1.8266601562,        0.7817382812,       -0.6337890625,       26.8402099609,        3.2501220703,      -20.1416015625
1494295621.5326480865,       -1.8266601562,        0.7817382812,       -0.6337890625,       35.4766845703,        3.3264160156,      -20.1416015625
1494295621.5352039337,       -1.8266601562,        0.7817382812,       -0.6337890625,       35.4766845703,        3.3264160156,      -26.3214111328
1494295621.5377559662,       -1.9707031250,        0.2778320312,       -0.3530273438,       30.4718017578,        1.0223388672,      -26.3214111328
1494295621.5403199196,       -1.9707031250,        0.2778320312,       -0.3530273438,       30.4718017578,        1.0223388672,      -26.3214111328
1494295621.5430240631,       -1.9707031250,        0.2778320312,       -0.3530273438,       -0.1373291016,       -1.4495849609,      -26.2145996094
1494295621.5457179546,       -1.9707031250,        0.2778320312,        0.3173828125,       -0.1373291016,       -1.4495849609,      -26.2145996094
1494295621.5484960079,       -0.4536132812,        0.3784179688,        0.3173828125,      -23.5748291016,       -0.1983642578,      -25.7720947266
1494295621.5515780449,       -0.4536132812,        0.3784179688,        0.3173828125,      -23.5748291016,       -0.1983642578,      -28.1219482422
1494295621.5542840958,       -0.4536132812,        0.3784179688,        0.3173828125,      -23.6816406250,        0.1068115234,      -28.1219482422
1494295621.5569849014,       -0.3183593750,        0.6059570312,        0.2026367188,      -23.6816406250,        0.1068115234,      -34.6832275391
1494295621.5596919060,       -0.3183593750,        0.6059570312,        0.2026367188,      -13.8854980469,        0.8697509766,      -34.6832275391
1494295621.5623979568,       -0.3183593750,        0.6059570312,        0.2026367188,      -13.8854980469,        0.8697509766,      -42.1905517578
1494295621.5650959015,       -0.3183593750,        0.6059570312,        0.2026367188,       -4.4097900391,        4.0130615234,      -42.1905517578
1494295621.5677940845,       -0.6142578125,        0.4799804688,        0.0620117188,       -4.4097900391,        4.0130615234,      -47.0275878906
1494295621.5704879761,       -0.6142578125,        0.4799804688,        0.0620117188,       -0.5187988281,        7.4768066406,      -47.0275878906
1494295621.5731909275,       -0.6142578125,        0.4799804688,        0.0620117188,       -0.5187988281,        7.4768066406,      -52.8106689453
1494295621.5758879185,       -0.6142578125,        0.4799804688,        0.0620117188,        1.0833740234,        9.0332031250,      -52.8106689453
1494295621.5785789490,       -0.7534179688,        0.4868164062,        0.0449218750,        1.0833740234,        9.0332031250,      -58.9141845703
1494295621.5812530518,       -0.7534179688,        0.4868164062,        0.0449218750,        4.5928955078,       10.1928710938,      -58.9141845703
1494295621.5839169025,       -0.7534179688,        0.4868164062,        0.0449218750,        4.5928955078,       10.1928710938,      -58.9141845703
1494295621.5864770412,       -0.7534179688,        0.4868164062,        0.0839843750,       11.0168457031,       12.3901367188,      -64.3005371094
1494295621.5890390873,       -0.7685546875,        0.4990234375,        0.0839843750,       11.0168457031,       12.3901367188,      -64.3005371094
1494295621.5916059017,       -0.7685546875,        0.4990234375,        0.0839843750,       17.5628662109,       15.6860351562,      -68.1304931641
1494295621.5941629410,       -0.7685546875,        0.4990234375,        0.0839843750,       17.5628662109,       15.6860351562,      -68.1304931641
1494295621.5967240334,       -0.7685546875,        0.3901367188,        0.1386718750,       21.4996337891,       18.1579589844,      -71.4416503906
1494295621.5992820263,       -0.6972656250,        0.3901367188,        0.1386718750,       21.4996337891,       18.1579589844,      -71.4416503906
1494295621.6020278931,       -0.6972656250,        0.3901367188,        0.1386718750,       21.5301513672,       20.3704833984,      -74.2034912109
1494295621.6045899391,       -0.6972656250,        0.3901367188,        0.1386718750,       21.5301513672,       20.3704833984,      -74.2034912109
1494295621.6071479321,       -0.6557617188,        0.3701171875,        0.1489257812,       19.9279785156,       22.2473144531,      -76.7822265625
1494295621.6097099781,       -0.6557617188,        0.3701171875,        0.1489257812,       19.9279785156,       22.2473144531,      -76.7822265625
1494295621.6124930382,       -0.6557617188,        0.3701171875,        0.1489257812,       20.3704833984,       24.2462158203,      -78.7658691406
1494295621.6151940823,       -0.6557617188,        0.3701171875,        0.1489257812,       20.3704833984,       24.2462158203,      -78.7658691406
1494295621.6178910732,       -0.6728515625,        0.3505859375,        0.1196289062,       21.4996337891,       26.8402099609,      -81.0089111328
1494295621.6205890179,       -0.6728515625,        0.3505859375,        0.1196289062,       21.4996337891,       26.8402099609,      -81.0089111328
1494295621.6232929230,       -0.6728515625,        0.3505859375,        0.1196289062,       23.7731933594,       30.0750732422,      -82.2906494141
1494295621.6259930134,       -0.6728515625,        0.3505859375,        0.1196289062,       23.7731933594,       30.0750732422,      -82.2906494141
1494295621.6286940575,       -0.6865234375,        0.3232421875,        0.1240234375,       25.4364013672,       32.2418212891,      -83.2366943359
1494295621.6313819885,       -0.6865234375,        0.3232421875,        0.1240234375,       25.4364013672,       32.2418212891,      -83.2366943359
1494295621.6339390278,       -0.6865234375,        0.3232421875,        0.1240234375,       26.4892578125,       33.5235595703,      -84.0606689453
1494295621.6364970207,       -0.6865234375,        0.3232421875,        0.1088867188,       26.4892578125,       33.5235595703,      -84.0606689453
1494295621.6390619278,       -0.6811523438,        0.2968750000,        0.1088867188,       26.4892578125,       34.2407226562,      -84.2437744141
1494295621.6416859627,       -0.6811523438,        0.2968750000,        0.1088867188,       27.7862548828,       34.2407226562,      -84.2437744141
1494295621.6443879604,       -0.6811523438,        0.2968750000,        0.1088867188,       27.7862548828,       38.1469726562,      -83.8928222656
1494295621.6470870972,       -0.6811523438,        0.2519531250,        0.1166992188,       31.3110351562,       35.6903076172,      -83.8928222656
1494295621.6497809887,       -0.7236328125,        0.2519531250,        0.1166992188,       31.3110351562,       35.6903076172,      -82.9162597656
1494295621.6524870396,       -0.7236328125,        0.2519531250,        0.1166992188,       35.4156494141,       37.2314453125,      -82.9162597656
1494295621.6552848816,       -0.7236328125,        0.2519531250,        0.1166992188,       35.4156494141,       37.2314453125,      -82.2448730469
1494295621.6579830647,       -0.7324218750,        0.2021484375,        0.0585937500,       36.2854003906,       38.0706787109,      -82.2448730469
1494295621.6606950760,       -0.7324218750,        0.2021484375,        0.0585937500,       36.2854003906,       38.0706787109,      -80.8868408203
1494295621.6633958817,       -0.7324218750,        0.2021484375,        0.0585937500,       35.6750488281,       37.4603271484,      -80.8868408203
1494295621.6661000252,       -0.7324218750,        0.2021484375,        0.0585937500,       35.6750488281,       37.4603271484,      -79.3914794922
1494295621.6688580513,       -0.6962890625,        0.1933593750,        0.0458984375,       34.2407226562,       35.8734130859,      -79.3914794922
1494295621.6718580723,       -0.6962890625,        0.1933593750,        0.0458984375,       34.2407226562,       34.6374511719,      -77.5604248047
1494295621.6745738983,       -0.6962890625,        0.1933593750,        0.0458984375,       31.3873291016,       34.6374511719,      -77.5604248047
1494295621.6772758961,       -0.6962890625,        0.1850585938,        0.0297851562,       27.4810791016,       33.4777832031,      -75.4547119141
1494295621.6799809933,       -0.6518554688,        0.1850585938,        0.0297851562,       29.3121337891,       33.4777832031,      -75.4547119141
1494295621.6825790405,       -0.6518554688,        0.1850585938,        0.0297851562,       29.3121337891,       33.4777832031,      -72.9522705078
1494295621.6851370335,       -0.6518554688,        0.1850585938,        0.0297851562,       28.5797119141,       31.9213867188,      -72.9522705078
1494295621.6877019405,       -0.6518554688,        0.1586914062,        0.0200195312,       28.5797119141,       31.9213867188,      -71.2280273438
1494295621.6902649403,       -0.6254882812,        0.1586914062,        0.0200195312,       28.0151367188,       30.4870605469,      -71.2280273438
1494295621.6929891109,       -0.6254882812,        0.1586914062,        0.0200195312,       28.0151367188,       30.4870605469,      -69.8242187500
1494295621.6956961155,       -0.6254882812,        0.1586914062,        0.0200195312,       25.7263183594,       27.7862548828,      -69.8242187500
1494295621.6983931065,       -0.6005859375,        0.1147460938,        0.0048828125,       25.7263183594,       27.7862548828,      -67.7490234375
1494295621.7010819912,       -0.6005859375,        0.1147460938,        0.0048828125,       22.2320556641,       24.7039794922,      -67.7490234375
1494295621.7036418915,       -0.6005859375,        0.1147460938,        0.0048828125,       22.2320556641,       24.7039794922,      -67.7490234375
1494295621.7061960697,       -0.6005859375,        0.1147460938,        0.0048828125,       17.6086425781,       22.1862792969,      -65.5212402344
1494295621.7087609768,       -0.6079101562,        0.0805664062,       -0.0244140625,       17.6086425781,       22.1862792969,      -65.5212402344
1494295621.7113640308,       -0.6079101562,        0.0805664062,       -0.0244140625,       14.3585205078,       20.7214355469,      -63.3239746094
1494295621.7139279842,       -0.6079101562,        0.0805664062,       -0.0244140625,       14.3585205078,       20.7214355469,      -63.3239746094
1494295621.7164909840,       -0.6079101562,        0.0805664062,       -0.0244140625,        9.9792480469,       19.6228027344,      -60.7757568359
1494295621.7190449238,       -0.6372070312,        0.1040039062,       -0.0424804688,        9.9792480469,       19.6228027344,      -60.7757568359
1494295621.7218220234,       -0.6372070312,        0.1040039062,       -0.0424804688,        4.2877197266,       19.0429687500,      -57.3577880859
1494295621.7243750095,       -0.6372070312,        0.1040039062,       -0.0424804688,        4.2877197266,       19.0429687500,      -57.3577880859
1494295621.7269339561,       -0.6372070312,        0.1040039062,       -0.0424804688,       -0.2593994141,       18.7683105469,      -54.4891357422
1494295621.7296049595,       -0.6401367188,        0.1137695312,       -0.0336914062,       -0.2593994141,       18.7683105469,      -54.4891357422
1494295621.7322659492,       -0.6401367188,        0.1137695312,       -0.0336914062,       -3.8146972656,       18.1427001953,      -51.7578125000
1494295621.7348239422,       -0.6401367188,        0.1137695312,       -0.0336914062,       -3.8146972656,       18.1427001953,      -51.7578125000
1494295621.7373719215,       -0.6401367188,        0.1137695312,        0.0175781250,       -7.0190429688,       16.6931152344,      -48.9349365234
1494295621.7399270535,       -0.6494140625,        0.1430664062,        0.0175781250,       -7.0190429688,       16.6931152344,      -48.9349365234
1494295621.7426130772,       -0.6494140625,        0.1430664062,        0.0175781250,      -10.9252929688,       15.2282714844,      -46.7681884766
1494295621.7453119755,       -0.6494140625,        0.1430664062,        0.0175781250,       -8.3007812500,       15.2282714844,      -46.7681884766
1494295621.7480111122,       -0.6494140625,        0.1435546875,        0.0444335938,       -4.3945312500,       14.3432617188,      -44.3725585938
1494295621.7507209778,       -0.6479492188,        0.1435546875,        0.0444335938,       -7.5225830078,       14.3432617188,      -44.3725585938
1494295621.7534229755,       -0.6479492188,        0.1435546875,        0.0444335938,       -7.5225830078,       13.7023925781,      -42.0379638672
1494295621.7561130524,       -0.6479492188,        0.1435546875,        0.0444335938,       -5.3863525391,       13.7023925781,      -42.0379638672
1494295621.7588150501,       -0.6679687500,        0.1162109375,        0.0244140625,       -5.3863525391,       12.0697021484,      -39.4744873047
1494295621.7615160942,       -0.6679687500,        0.1162109375,        0.0244140625,       -4.2724609375,       12.0697021484,      -39.4744873047
1494295621.7640810013,       -0.6679687500,        0.1162109375,        0.0244140625,       -4.2724609375,        8.1634521484,      -36.9567871094
1494295621.7666330338,       -0.6679687500,        0.1162109375,        0.0244140625,       -2.9754638672,       11.3830566406,      -36.9567871094
1494295621.7691888809,       -0.6982421875,        0.1040039062,        0.0336914062,       -2.9754638672,       11.3830566406,      -34.5916748047
1494295621.7718501091,       -0.6982421875,        0.1040039062,        0.0336914062,       -1.4038085938,       11.0778808594,      -34.5916748047
1494295621.7744059563,       -0.6982421875,        0.1040039062,        0.0336914062,       -1.4038085938,       11.0778808594,      -34.5916748047
1494295621.7769670486,       -0.6982421875,        0.1040039062,        0.0336914062,       -1.0070800781,       10.2539062500,      -32.4554443359
1494295621.7795310020,       -0.7387695312,        0.0791015625,       -0.0004882812,       -1.0070800781,       10.2539062500,      -32.4554443359
1494295621.7821409702,       -0.7387695312,        0.0791015625,       -0.0004882812,       -0.5798339844,        9.6130371094,      -30.1361083984
1494295621.7846970558,       -0.7387695312,        0.0791015625,       -0.0004882812,       -0.5798339844,        9.6130371094,      -30.1361083984
1494295621.7875409126,       -0.7387695312,        0.0791015625,        0.1245117188,       -1.7242431641,        9.5672607422,      -27.5878906250
1494295621.7901089191,       -0.7543945312,        0.0830078125,        0.0175781250,       -1.7242431641,        9.5672607422,      -27.5878906250
1494295621.7929620743,       -0.7543945312,        0.0830078125,        0.0175781250,       -4.7302246094,        8.3923339844,      -26.3671875000
1494295621.7956540585,       -0.7543945312,        0.0830078125,        0.0175781250,       -4.7302246094,        8.3923339844,      -26.3671875000
1494295621.7983479500,       -0.7543945312,        0.1044921875,        0.0244140625,       -8.1329345703,        5.9356689453,      -25.7110595703
1494295621.8010509014,       -0.7597656250,        0.1044921875,        0.0244140625,       -8.1329345703,        5.9356689453,      -25.7110595703
1494295621.8038640022,       -0.7597656250,        0.1044921875,        0.0244140625,      -12.2375488281,        3.7231445312,      -25.8789062500
1494295621.8065669537,       -0.7597656250,        0.1044921875,        0.0244140625,      -12.2375488281,        3.7231445312,      -25.8789062500
1494295621.8092639446,       -0.7705078125,        0.1186523438,       -0.0068359375,      -14.0838623047,        2.1972656250,      -26.0620117188
1494295621.8119690418,       -0.7705078125,        0.1186523438,       -0.0068359375,      -14.0838623047,        2.1972656250,      -26.0620117188
1494295621.8146700859,       -0.7705078125,        0.1186523438,       -0.0068359375,      -11.6729736328,        1.4495849609,      -24.3377685547
1494295621.8173620701,       -0.7705078125,        0.1186523438,       -0.0068359375,      -11.6729736328,        1.4495849609,      -24.3377685547
1494295621.8200600147,       -0.7597656250,        0.1635742188,       -0.0590820312,       -7.6141357422,        2.1362304688,      -21.9116210938
1494295621.8226571083,       -0.7597656250,        0.1635742188,       -0.0590820312,       -7.6141357422,        2.1362304688,      -21.9116210938
1494295621.8252050877,       -0.7597656250,        0.1635742188,       -0.0590820312,       -3.1738281250,        2.5329589844,      -19.5312500000
1494295621.8277599812,       -0.7597656250,        0.1635742188,       -0.0590820312,       -3.1738281250,        2.5329589844,      -19.5312500000
1494295621.8303101063,       -0.7294921875,        0.1855468750,       -0.0463867188,        1.5106201172,        3.0670166016,      -16.8457031250
1494295621.8328979015,       -0.7294921875,        0.1855468750,       -0.0463867188,        1.5106201172,        3.0670166016,      -16.8457031250
1494295621.8354558945,       -0.7294921875,        0.1855468750,       -0.0463867188,        4.9438476562,        3.3416748047,      -15.0756835938
1494295621.8380010128,       -0.7294921875,        0.1855468750,       -0.0463867188,        4.9438476562,        3.3416748047,      -15.0756835938
1494295621.8405549526,       -0.7246093750,        0.1093750000,       -0.0195312500,        4.9438476562,        3.0670166016,      -13.6260986328
1494295621.8432300091,       -0.7246093750,        0.1093750000,       -0.0195312500,        5.8441162109,        3.0670166016,      -13.6260986328
1494295621.8457849026,       -0.7246093750,        0.1093750000,       -0.0195312500,        5.8441162109,        3.0670166016,      -12.0391845703
1494295621.8483428955,       -0.7246093750,        0.1093750000,        0.0107421875,        4.8522949219,        2.3651123047,      -12.0391845703
1494295621.8510639668,       -0.7285156250,        0.0859375000,        0.0107421875,        4.8522949219,        2.3651123047,       -9.9334716797
1494295621.8537540436,       -0.7285156250,        0.0859375000,        0.0107421875,        3.6010742188,        2.5939941406,       -9.9334716797
1494295621.8564479351,       -0.7285156250,        0.0859375000,        0.0107421875,        3.6010742188,        2.5939941406,       -9.2620849609
1494295621.8591389656,       -0.7324218750,        0.1450195312,       -0.0058593750,        3.1280517578,        2.7770996094,       -9.2620849609
1494295621.8618381023,       -0.7324218750,        0.1450195312,       -0.0058593750,        3.1280517578,        2.7770996094,       -9.7503662109
1494295621.8645229340,       -0.7324218750,        0.1450195312,       -0.0058593750,        3.2348632812,        2.3803710938,       -9.7503662109
1494295621.8672070503,       -0.7324218750,        0.1450195312,       -0.0058593750,        3.2348632812,        2.3803710938,      -10.3912353516
1494295621.8698968887,       -0.7387695312,        0.2075195312,       -0.0029296875,        3.7078857422,        1.3275146484,      -10.3912353516
1494295621.8725950718,       -0.7387695312,        0.2075195312,       -0.0029296875,        3.7078857422,        1.3275146484,      -12.2680664062
1494295621.8753890991,       -0.7387695312,        0.2075195312,       -0.0029296875,        4.7454833984,        0.3662109375,      -12.2680664062
1494295621.8780920506,       -0.7387695312,        0.2075195312,       -0.0029296875,        4.7454833984,        0.3662109375,      -14.9078369141
1494295621.8807919025,       -0.7587890625,        0.2304687500,        0.0087890625,        6.6833496094,       -0.0457763672,      -14.9078369141
1494295621.8833498955,       -0.7587890625,        0.2304687500,        0.0087890625,        6.6833496094,       -0.0457763672,      -18.8140869141
1494295621.8858969212,       -0.7587890625,        0.2304687500,        0.0087890625,        8.5296630859,       -0.1678466797,      -17.5323486328
1494295621.8884480000,       -0.7587890625,        0.2304687500,        0.0087890625,        8.5296630859,       -0.1678466797,      -17.5323486328
1494295621.8911468983,       -0.7739257812,        0.2373046875,        0.0361328125,        8.1024169922,       -0.6103515625,      -20.8282470703
1494295621.8937149048,       -0.7739257812,        0.2373046875,        0.0361328125,        8.1024169922,       -0.6103515625,      -20.8282470703
