time_stamp before, Acceleration x, Acceleration y, Acceleration z, Gyro x, Gyro y, Gyro z
1494295581.4391219616,       -0.6503906250,        0.4150390625,        0.0532226562,       -8.8653564453,      -20.9350585938,       56.4270019531
1494295581.4446330070,       -0.5761718750,        0.4150390625,        0.0532226562,      -11.1541748047,      -18.7835693359,       52.8717041016
1494295581.4473459721,       -0.5761718750,        0.4150390625,        0.0532226562,      -11.1541748047,      -18.7835693359,       52.8717041016
1494295581.4500639439,       -0.5761718750,        0.4150390625,        0.0532226562,      -13.9312744141,      -17.4865722656,       48.7060546875
1494295581.4527709484,       -0.6450195312,        0.5200195312,        0.1098632812,      -13.9312744141,      -17.4865722656,       48.7060546875
1494295581.4554638863,       -0.6450195312,        0.5200195312,        0.1098632812,      -13.6413574219,      -17.2119140625,       43.2281494141
1494295581.4581570625,       -0.6450195312,        0.5200195312,        0.1098632812,      -13.6413574219,      -17.2119140625,       43.2281494141
1494295581.4609189034,       -0.6450195312,        0.5200195312,        0.0869140625,       -8.5906982422,      -17.0745849609,       38.1622314453
1494295581.4636108875,       -0.6391601562,        0.5571289062,        0.0869140625,       -8.5906982422,      -17.0745849609,       38.1622314453
1494295581.4663031101,       -0.6391601562,        0.5571289062,        0.0869140625,       -2.5177001953,      -16.0217285156,       33.1268310547
1494295581.4689929485,       -0.6391601562,        0.5571289062,        0.0869140625,       -2.5177001953,      -16.0217285156,       33.1268310547
1494295581.4716429710,       -0.5141601562,        0.5566406250,        0.1044921875,        1.3885498047,      -14.4195556641,       27.8015136719
1494295581.4741890430,       -0.5952148438,        0.5566406250,        0.1044921875,        1.3427734375,      -14.4195556641,       27.8015136719
1494295581.4767339230,       -0.5952148438,        0.5566406250,        0.1044921875,        1.3427734375,      -14.4195556641,       21.4996337891
1494295581.4792850018,       -0.5952148438,        0.5566406250,        0.1044921875,        3.5400390625,      -14.0380859375,       21.4996337891
1494295581.4820320606,       -0.6264648438,        0.6215820312,        0.1074218750,        3.5400390625,      -14.0380859375,       14.4195556641
1494295581.4845950603,       -0.6264648438,        0.6215820312,        0.1074218750,        5.7067871094,      -12.8936767578,       14.4195556641
1494295581.4875481129,       -0.6264648438,        0.6215820312,        0.1074218750,        5.7067871094,       -8.9874267578,        7.3852539062
1494295581.4900898933,       -0.6264648438,        0.6215820312,        0.1074218750,        8.1024169922,      -10.6506347656,        7.3852539062
1494295581.4929039478,       -0.6201171875,        0.6250000000,        0.1591796875,        8.1024169922,      -10.6506347656,        0.3509521484
1494295581.4955959320,       -0.6201171875,        0.6250000000,        0.1591796875,       10.0555419922,       -8.4533691406,        0.3509521484
1494295581.4982860088,       -0.6201171875,        0.6250000000,        0.1591796875,       10.0555419922,       -8.4533691406,       -7.0037841797
1494295581.5009870529,       -0.6201171875,        0.6250000000,        0.1591796875,       12.0239257812,       -5.8593750000,       -7.0037841797
1494295581.5036749840,       -0.6279296875,        0.6528320312,        0.2041015625,       12.0239257812,       -5.8593750000,      -15.6097412109
1494295581.5063660145,       -0.6279296875,        0.6528320312,        0.2041015625,       14.8925781250,       -3.3569335938,      -15.6097412109
1494295581.5090610981,       -0.6279296875,        0.6528320312,        0.2041015625,       14.8925781250,       -3.3569335938,      -24.0325927734
1494295581.5117719173,       -0.6279296875,        0.6352539062,        0.1977539062,       18.4936523438,       -0.1831054688,      -24.0325927734
1494295581.5144689083,       -0.6391601562,        0.6352539062,        0.1977539062,       18.4936523438,       -0.1831054688,      -33.1268310547
1494295581.5173199177,       -0.6391601562,        0.6352539062,        0.1977539062,       22.8576660156,        2.7465820312,      -33.1268310547
1494295581.5200169086,       -0.6391601562,        0.6352539062,        0.1977539062,       22.8576660156,        2.7465820312,      -42.7093505859
1494295581.5226490498,       -0.6567382812,        0.6909179688,        0.2080078125,       27.0080566406,        6.7749023438,      -42.7093505859
1494295581.5252099037,       -0.6567382812,        0.6909179688,        0.2080078125,       27.0080566406,        6.7749023438,      -54.4281005859
1494295581.5277600288,       -0.6567382812,        0.6909179688,        0.2080078125,       29.7241210938,       11.1236572266,      -53.2836914062
1494295581.5303170681,       -0.6567382812,        0.6909179688,        0.2080078125,       29.7241210938,       11.1236572266,      -53.2836914062
1494295581.5329890251,       -0.7363281250,        0.7094726562,        0.1884765625,       32.5775146484,       15.5029296875,      -63.3850097656
1494295581.5355489254,       -0.7363281250,        0.7094726562,        0.1884765625,       32.5775146484,       15.5029296875,      -63.3850097656
1494295581.5381131172,       -0.7363281250,        0.7094726562,        0.1884765625,       35.6445312500,       20.0042724609,      -73.2269287109
1494295581.5408029556,       -0.7363281250,        0.7094726562,        0.1884765625,       35.6445312500,       20.0042724609,      -73.2269287109
1494295581.5435070992,       -0.8237304688,        0.6962890625,        0.1552734375,       37.7349853516,       24.6887207031,      -83.5876464844
1494295581.5462119579,       -0.8237304688,        0.6962890625,        0.1552734375,       37.7349853516,       24.6887207031,      -83.5876464844
1494295581.5489649773,       -0.8237304688,        0.6962890625,        0.1552734375,       37.3687744141,       30.4107666016,      -93.3074951172
1494295581.5516679287,       -0.8237304688,        0.6962890625,        0.1030273438,       37.3687744141,       30.4107666016,      -93.3074951172
1494295581.5543680191,       -0.8774414062,        0.7016601562,        0.1030273438,       34.5001220703,       36.4837646484,     -103.3325195312
1494295581.5570759773,       -0.8774414062,        0.7016601562,        0.1030273438,       34.5001220703,       36.4837646484,     -103.3325195312
1494295581.5597720146,       -0.8774414062,        0.7016601562,        0.1030273438,       31.6314697266,       41.6107177734,     -113.9373779297
1494295581.5624809265,       -1.0166015625,        0.7885742188,        0.0449218750,       31.6314697266,       41.6107177734,     -113.9373779297
1494295581.5651900768,       -1.0166015625,        0.7885742188,        0.0449218750,       29.8614501953,       47.1038818359,     -123.6724853516
1494295581.5678839684,       -1.0166015625,        0.7885742188,        0.0449218750,       29.8614501953,       47.1038818359,     -123.6724853516
1494295581.5705859661,       -1.0166015625,        0.7885742188,        0.0449218750,       30.9295654297,       52.2460937500,     -132.7362060547
1494295581.5731470585,       -1.3139648438,        0.8994140625,        0.0009765625,       30.9295654297,       52.2460937500,     -132.7362060547
1494295581.5757119656,       -1.3139648438,        0.8994140625,        0.0009765625,       34.4390869141,       56.7321777344,     -141.3116455078
1494295581.5782740116,       -1.3139648438,        0.8994140625,        0.0009765625,       34.4390869141,       56.7321777344,     -141.3116455078
1494295581.5808870792,       -1.3139648438,        0.8994140625,        0.0009765625,       41.2902832031,       60.1348876953,     -148.5900878906
1494295581.5834469795,       -1.7543945312,        0.8632812500,       -0.0795898438,       41.2902832031,       60.1348876953,     -148.5900878906
1494295581.5860159397,       -1.7543945312,        0.8632812500,       -0.0795898438,       52.0935058594,       62.2253417969,     -155.7922363281
1494295581.5887761116,       -1.7543945312,        0.8632812500,       -0.0795898438,       52.0935058594,       62.2253417969,     -155.7922363281
1494295581.5913999081,       -1.7543945312,        0.8632812500,       -0.0795898438,       64.9871826172,       62.9577636719,     -162.1856689453
1494295581.5949048996,       -2.0874023438,        0.7368164062,       -0.1152343750,       64.9871826172,       62.9577636719,     -162.1856689453
1494295581.5976059437,       -2.0874023438,        0.7368164062,       -0.1152343750,       79.2236328125,       61.5234375000,     -167.4499511719
1494295581.6003088951,       -2.0874023438,        0.7368164062,       -0.1152343750,       79.2236328125,       61.5234375000,     -167.4499511719
1494295581.6030139923,       -2.1713867188,        0.4921875000,       -0.1098632812,       93.8873291016,       56.7474365234,     -171.7834472656
1494295581.6057119370,       -2.1713867188,        0.4921875000,       -0.1098632812,       93.8873291016,       56.7474365234,     -171.7834472656
1494295581.6084070206,       -2.1713867188,        0.4921875000,       -0.1098632812,      109.1613769531,       49.0417480469,     -176.9409179688
1494295581.6111218929,       -2.1713867188,        0.4921875000,       -0.1098632812,      109.1613769531,       49.0417480469,     -176.9409179688
1494295581.6136779785,       -2.0693359375,        0.0024414062,       -0.0576171875,      123.7640380859,       36.2091064453,     -187.2406005859
1494295581.6162381172,       -2.0693359375,        0.0024414062,       -0.0576171875,      123.7640380859,       36.2091064453,     -187.2406005859
1494295581.6187939644,       -2.0693359375,        0.0024414062,       -0.0576171875,      142.6391601562,       21.1029052734,     -201.5838623047
1494295581.6213738918,       -2.0693359375,        0.0024414062,       -0.0576171875,      142.6391601562,       21.1029052734,     -201.5838623047
1494295581.6239340305,       -1.7709960938,       -0.5185546875,       -0.0449218750,      162.1704101562,       11.0015869141,     -215.9423828125
1494295581.6264879704,       -1.7709960938,       -0.5185546875,       -0.0449218750,      161.5600585938,       11.0015869141,     -215.9423828125
1494295581.6290440559,       -1.7709960938,       -0.5185546875,       -0.0449218750,      161.5600585938,        7.0953369141,     -228.8513183594
1494295581.6316049099,       -1.7709960938,       -0.5185546875,       -0.0449218750,      168.7164306641,        4.3487548828,     -228.8513183594
1494295581.6341569424,       -1.1528320312,       -0.7036132812,       -0.0258789062,      168.7164306641,        4.3487548828,     -244.4763183594
1494295581.6367099285,       -1.1528320312,       -0.7036132812,       -0.0258789062,      166.2139892578,       -1.5411376953,     -243.7286376953
1494295581.6392600536,       -1.1528320312,       -0.7036132812,       -0.0258789062,      166.2139892578,       -1.5411376953,     -243.7286376953
1494295581.6418759823,       -1.1528320312,       -0.7036132812,       -0.0258789062,      169.1436767578,       -0.1678466797,     -255.3100585938
1494295581.6444270611,       -0.7622070312,       -0.1079101562,       -0.3134765625,      169.1436767578,       -0.1678466797,     -255.3100585938
1494295581.6469841003,       -0.7622070312,       -0.1079101562,       -0.3134765625,      158.3099365234,        9.9639892578,     -248.1842041016
1494295581.6495389938,       -0.7622070312,       -0.1079101562,       -0.3134765625,      158.3099365234,        9.9639892578,     -248.1842041016
1494295581.6523020267,       -0.7622070312,       -0.1079101562,       -0.1147460938,      131.3934326172,       20.4467773438,     -222.1221923828
1494295581.6550021172,       -0.5004882812,        0.6020507812,       -0.1147460938,      131.3934326172,       20.4467773438,     -222.1221923828
1494295581.6576979160,       -0.5004882812,        0.6020507812,       -0.1147460938,      110.3210449219,       30.3192138672,     -192.8405761719
1494295581.6603910923,       -0.5004882812,        0.6020507812,       -0.1147460938,      110.3210449219,       30.3192138672,     -192.8405761719
1494295581.6630818844,       -0.5004882812,        0.6000976562,        0.0244140625,       86.1968994141,       40.0695800781,     -164.1387939453
1494295581.6656498909,       -0.5502929688,        0.6000976562,        0.0244140625,       86.1968994141,       40.0695800781,     -164.1387939453
1494295581.6682069302,       -0.5502929688,        0.6000976562,        0.0244140625,       59.2651367188,       48.2177734375,     -136.1846923828
1494295581.6707720757,       -0.5502929688,        0.6000976562,        0.0244140625,       59.2651367188,       48.2177734375,     -136.1846923828
1494295581.6734759808,       -0.7221679688,        0.5532226562,        0.0966796875,       27.2064208984,       54.9011230469,     -112.3352050781
1494295581.6761760712,       -0.7221679688,        0.5532226562,        0.0966796875,       27.2064208984,       54.9011230469,     -112.3352050781
1494295581.6788740158,       -0.7221679688,        0.5532226562,        0.0966796875,       -5.5999755859,       60.6231689453,      -88.3636474609
1494295581.6815850735,       -0.7221679688,        0.5532226562,        0.0966796875,       -5.5999755859,       60.6231689453,      -88.3636474609
1494295581.6842839718,       -0.5581054688,        0.5766601562,        0.2480468750,      -29.3731689453,       63.8122558594,      -65.8721923828
1494295581.6869759560,       -0.5581054688,        0.5766601562,        0.2480468750,      -29.3731689453,       63.8122558594,      -65.8721923828
1494295581.6896760464,       -0.5581054688,        0.5766601562,        0.2480468750,      -37.9943847656,       55.0079345703,      -43.4570312500
1494295581.6923890114,       -0.5581054688,        0.5766601562,        0.4980468750,      -37.9943847656,       55.0079345703,      -43.4570312500
1494295581.6950900555,       -0.1083984375,        0.7846679688,        0.4389648438,      -48.8433837891,       35.5529785156,      -17.7307128906
1494295581.6977860928,       -0.1083984375,        0.7846679688,        0.4389648438,      -48.8433837891,       35.5529785156,      -17.7307128906
1494295581.7004809380,       -0.1083984375,        0.7846679688,        0.4389648438,      -63.5070800781,       17.3034667969,        4.9133300781
1494295581.7030580044,       -0.1083984375,        0.5346679688,        0.3691406250,      -63.5070800781,       17.3034667969,        4.9133300781
1494295581.7056159973,        0.0634765625,        0.5541992188,        0.3691406250,      -71.3195800781,        5.6915283203,       20.4925537109
1494295581.7083470821,        0.0634765625,        0.5541992188,        0.3691406250,      -72.0672607422,        5.6915283203,       20.4925537109
1494295581.7109661102,        0.0634765625,        0.5541992188,        0.3691406250,      -72.0672607422,       -0.1525878906,       29.1442871094
1494295581.7136659622,       -0.1699218750,        0.3007812500,        0.0986328125,      -73.2574462891,       -0.1525878906,       29.1442871094
1494295581.7163639069,       -0.1699218750,        0.3007812500,        0.0986328125,      -73.2574462891,       -3.2653808594,       34.7290039062
1494295581.7190608978,       -0.1699218750,        0.3007812500,        0.0986328125,      -73.8067626953,       -3.2653808594,       34.7290039062
1494295581.7217609882,       -0.1699218750,        0.3007812500,        0.0986328125,      -73.8067626953,       -5.1269531250,       39.4439697266
1494295581.7244620323,       -0.2314453125,        0.1840820312,       -0.0234375000,      -75.1495361328,       -5.1269531250,       39.4439697266
1494295581.7271590233,       -0.2314453125,        0.1840820312,       -0.0234375000,      -75.1495361328,       -6.3476562500,       43.3959960938
1494295581.7298550606,       -0.2314453125,        0.1840820312,       -0.0234375000,      -77.4993896484,       -6.3476562500,       43.3959960938
1494295581.7325639725,       -0.2314453125,        0.1840820312,       -0.0234375000,      -77.4993896484,       -8.0566406250,       45.7305908203
1494295581.7352581024,       -0.2246093750,        0.0175781250,       -0.0722656250,      -80.0476074219,       -8.0566406250,       45.7305908203
1494295581.7380659580,       -0.2246093750,        0.0175781250,       -0.0722656250,      -80.0476074219,       -9.5977783203,       45.5932617188
1494295581.7407739162,       -0.2246093750,        0.0175781250,       -0.0722656250,      -81.5734863281,       -9.5977783203,       45.5932617188
1494295581.7433340549,       -0.2246093750,       -0.1074218750,       -0.0844726562,      -81.5734863281,       -9.5977783203,       44.6929931641
1494295581.7458999157,       -0.2031250000,       -0.0737304688,       -0.0844726562,      -79.7576904297,      -10.6048583984,       44.6929931641
1494295581.7484610081,       -0.2031250000,       -0.0737304688,       -0.0844726562,      -79.7576904297,      -10.6048583984,       44.6929931641
1494295581.7511279583,       -0.2031250000,       -0.0737304688,       -0.0844726562,      -76.5686035156,      -11.7950439453,       44.0826416016
1494295581.7536990643,       -0.2031250000,       -0.0302734375,       -0.0458984375,      -76.5686035156,      -11.7950439453,       44.0826416016
1494295581.7562630177,       -0.1391601562,       -0.0302734375,       -0.0458984375,      -71.0754394531,      -12.7258300781,       43.7927246094
1494295581.7588260174,       -0.1391601562,       -0.0302734375,       -0.0458984375,      -71.0754394531,      -12.7258300781,       43.7927246094
1494295581.7615149021,       -0.1391601562,       -0.0302734375,       -0.0458984375,      -62.1185302734,      -13.5040283203,       43.2586669922
1494295581.7642099857,       -0.0932617188,       -0.0234375000,       -0.0244140625,      -62.1185302734,      -13.5040283203,       43.2586669922
1494295581.7669150829,       -0.0932617188,       -0.0234375000,       -0.0244140625,      -52.1697998047,      -14.5568847656,       42.0074462891
1494295581.7696108818,       -0.0932617188,       -0.0234375000,       -0.0244140625,      -52.1697998047,      -14.5568847656,       42.0074462891
1494295581.7723529339,       -0.0932617188,       -0.0234375000,       -0.0244140625,      -43.1060791016,      -15.9149169922,       39.7949218750
1494295581.7750620842,       -0.0751953125,       -0.0908203125,       -0.0366210938,      -43.1060791016,      -15.9149169922,       39.7949218750
1494295581.7777640820,       -0.0751953125,       -0.0908203125,       -0.0366210938,      -33.5388183594,      -16.6931152344,       36.8652343750
1494295581.7804639339,       -0.0751953125,       -0.0908203125,       -0.0366210938,      -33.5388183594,      -16.6931152344,       36.8652343750
1494295581.7831809521,       -0.0751953125,       -0.0908203125,       -0.0366210938,      -24.7955322266,      -17.1356201172,       33.2031250000
1494295581.7858810425,       -0.0844726562,       -0.2026367188,       -0.1220703125,      -24.7955322266,      -17.1356201172,       33.2031250000
1494295581.7885890007,       -0.0844726562,       -0.2026367188,       -0.1220703125,      -19.1497802734,      -16.2200927734,       28.5339355469
1494295581.7912919521,       -0.0844726562,       -0.2026367188,       -0.1220703125,      -19.1497802734,      -16.2200927734,       28.5339355469
1494295581.7939929962,       -0.0844726562,       -0.3168945312,       -0.2299804688,      -17.1051025391,      -14.1448974609,       22.3999023438
1494295581.7966980934,       -0.0732421875,       -0.3168945312,       -0.2299804688,      -17.1051025391,      -14.1448974609,       22.3999023438
1494295581.7992548943,       -0.0732421875,       -0.3168945312,       -0.2299804688,      -17.9901123047,      -11.0931396484,       14.4042968750
1494295581.8019540310,       -0.0732421875,       -0.3168945312,       -0.2299804688,      -17.9901123047,      -11.0931396484,       14.4042968750
1494295581.8046178818,       -0.0170898438,       -0.3618164062,       -0.2524414062,      -20.6756591797,       -6.7138671875,        6.0119628906
1494295581.8073658943,       -0.0170898438,       -0.3618164062,       -0.2524414062,      -20.6756591797,       -6.7138671875,        6.0119628906
1494295581.8105309010,       -0.0170898438,       -0.3618164062,       -0.2524414062,      -23.5137939453,       -2.5787353516,       -2.6855468750
1494295581.8131110668,       -0.0170898438,       -0.3618164062,       -0.2524414062,      -23.5137939453,       -2.5787353516,       -2.6855468750
1494295581.8156569004,        0.0517578125,       -0.2968750000,       -0.2470703125,      -25.0854492188,        0.7934570312,      -11.7492675781
1494295581.8182139397,        0.0517578125,       -0.2968750000,       -0.2470703125,      -25.0854492188,        0.7934570312,      -11.7492675781
1494295581.8207750320,        0.0517578125,       -0.2968750000,       -0.2470703125,      -25.3601074219,        3.4332275391,      -20.9655761719
1494295581.8234639168,        0.0517578125,       -0.2968750000,       -0.2470703125,      -25.3601074219,        3.4332275391,      -20.9655761719
1494295581.8261559010,        0.0966796875,       -0.1640625000,       -0.1899414062,      -22.8729248047,        5.3863525391,      -30.1971435547
1494295581.8288500309,        0.0966796875,       -0.1640625000,       -0.1899414062,      -22.8729248047,        5.3863525391,      -30.1971435547
1494295581.8315498829,        0.0966796875,       -0.1640625000,       -0.1899414062,      -16.5252685547,        7.7667236328,      -38.5284423828
1494295581.8342399597,        0.0966796875,       -0.0390625000,       -0.1293945312,      -16.5252685547,        7.7667236328,      -38.5284423828
1494295581.8369250298,        0.0771484375,       -0.0390625000,       -0.1293945312,       -9.1552734375,       10.0097656250,      -45.6237792969
1494295581.8396201134,        0.0771484375,       -0.0390625000,       -0.1293945312,       -9.1552734375,       10.0097656250,      -45.6237792969
1494295581.8422989845,        0.0771484375,       -0.0390625000,       -0.1293945312,       -1.2359619141,       11.7645263672,      -51.6967773438
1494295581.8448519707,        0.0346679688,        0.0551757812,       -0.0722656250,       -1.2359619141,       11.7645263672,      -51.6967773438
1494295581.8474030495,        0.0346679688,        0.0551757812,       -0.0722656250,        6.7596435547,       12.0697021484,      -55.7098388672
1494295581.8499579430,        0.0346679688,        0.0551757812,       -0.0722656250,        6.7596435547,       12.0697021484,      -55.7098388672
1494295581.8526959419,        0.0346679688,        0.0551757812,       -0.0722656250,       14.1601562500,       12.0544433594,      -59.1888427734
1494295581.8552579880,       -0.0014648438,        0.1093750000,       -0.0043945312,       14.1601562500,       12.0544433594,      -59.1888427734
1494295581.8578250408,       -0.0014648438,        0.1093750000,       -0.0043945312,       14.1601562500,       11.3372802734,      -61.1419677734
1494295581.8603899479,       -0.0014648438,        0.1093750000,       -0.0043945312,       21.2402343750,       11.3372802734,      -61.1419677734
1494295581.8631720543,       -0.0014648438,        0.1093750000,       -0.0043945312,       21.2402343750,       10.4980468750,      -61.7828369141
1494295581.8658759594,       -0.0385742188,        0.1494140625,        0.0288085938,       25.5279541016,       10.4980468750,      -61.7828369141
1494295581.8685770035,       -0.0385742188,        0.1494140625,        0.0288085938,       25.5279541016,       10.4980468750,      -60.6842041016
1494295581.8712759018,       -0.0385742188,        0.1494140625,        0.0288085938,       27.8930664062,        9.0026855469,      -60.6842041016
1494295581.8739750385,       -0.0385742188,        0.1494140625,        0.0288085938,       27.8930664062,        5.0964355469,      -57.4035644531
1494295581.8766729832,       -0.0644531250,        0.1660156250,        0.0825195312,       29.9987792969,        6.9885253906,      -57.4035644531
1494295581.8793718815,       -0.0644531250,        0.1660156250,        0.0825195312,       29.9987792969,        6.9885253906,      -53.7414550781
1494295581.8820719719,       -0.0644531250,        0.1660156250,        0.0825195312,       30.8837890625,        4.5776367188,      -53.7414550781
1494295581.8848750591,       -0.0644531250,        0.1474609375,        0.0805664062,       30.8837890625,        0.6713867188,      -50.2014160156
1494295581.8875799179,       -0.0625000000,        0.1474609375,        0.0805664062,       31.0974121094,        2.1362304688,      -50.2014160156
1494295581.8902781010,       -0.0625000000,        0.1474609375,        0.0805664062,       31.0974121094,        2.1362304688,      -46.2493896484
1494295581.8935201168,       -0.0625000000,        0.1474609375,        0.0805664062,       30.8837890625,        0.4425048828,      -46.2493896484
1494295581.8960819244,       -0.0751953125,        0.1352539062,        0.0405273438,       30.8837890625,       -1.0833740234,      -42.4652099609
1494295581.8986330032,       -0.0751953125,        0.1352539062,        0.0405273438,       30.7464599609,       -1.0833740234,      -42.4652099609
1494295581.9013080597,       -0.0751953125,        0.1352539062,        0.0405273438,       30.7464599609,       -1.0833740234,      -38.3148193359
1494295581.9038689137,       -0.0751953125,        0.1352539062,        0.0405273438,       32.6538085938,       -2.2277832031,      -38.3148193359
1494295581.9064240456,       -0.0751953125,        0.0898437500,        0.0278320312,       32.6538085938,       -2.2277832031,      -34.0728759766
1494295581.9089820385,       -0.0751953125,        0.0898437500,        0.0278320312,       36.4074707031,       -2.2888183594,      -34.0728759766
1494295581.9115800858,       -0.0751953125,        0.0898437500,        0.0278320312,       36.4074707031,       -2.2888183594,      -30.1666259766
1494295581.9141299725,       -0.0751953125,        0.0898437500,        0.0278320312,       41.1682128906,       -1.1596679688,      -30.1666259766
1494295581.9167220592,       -0.0795898438,        0.0917968750,       -0.0190429688,       41.1682128906,       -1.1596679688,      -30.1666259766
1494295581.9193389416,       -0.0795898438,        0.0917968750,       -0.0190429688,       48.4313964844,       -0.6256103516,      -25.7110595703
1494295581.9223310947,       -0.0795898438,        0.0917968750,       -0.0190429688,       48.4313964844,       -0.6256103516,      -25.7110595703
1494295581.9248790741,       -0.0795898438,        0.2167968750,       -0.0288085938,       60.3179931641,       -0.8087158203,      -21.0571289062
1494295581.9274270535,       -0.0693359375,        0.1420898438,       -0.0288085938,       60.3179931641,       -0.8087158203,      -21.0571289062
1494295581.9299778938,       -0.0693359375,        0.1420898438,       -0.0288085938,       72.1740722656,        0.4425048828,      -16.3269042969
1494295581.9326500893,       -0.0693359375,        0.1420898438,       -0.0288085938,       72.1740722656,        0.4425048828,      -16.3269042969
1494295581.9353439808,       -0.0693359375,        0.1953125000,       -0.1220703125,       81.1004638672,        2.1514892578,      -11.8255615234
1494295581.9380431175,       -0.0957031250,        0.1953125000,       -0.1220703125,       81.1004638672,        2.1514892578,      -11.8255615234
1494295581.9407460690,       -0.0957031250,        0.1953125000,       -0.1220703125,       87.9211425781,        1.6021728516,       -6.9732666016
1494295581.9434399605,       -0.0957031250,        0.1953125000,       -0.1220703125,       87.9211425781,        1.6021728516,       -6.9732666016
1494295581.9461250305,       -0.0917968750,        0.3041992188,       -0.1425781250,       94.5281982422,        0.9307861328,       -1.5258789062
1494295581.9488179684,       -0.0917968750,        0.3041992188,       -0.1425781250,       94.5281982422,        0.9307861328,       -1.5258789062
1494295581.9515159130,       -0.0917968750,        0.3041992188,       -0.1425781250,      102.0507812500,        1.7852783203,        4.2724609375
1494295581.9540650845,       -0.0917968750,        0.3041992188,       -0.1425781250,      102.0507812500,        1.7852783203,        4.2724609375
1494295581.9566171169,       -0.0952148438,        0.4077148438,       -0.1826171875,      108.8867187500,        2.8076171875,       10.1165771484
1494295581.9592909813,       -0.0952148438,        0.4077148438,       -0.1826171875,      108.8867187500,        2.8076171875,       10.1165771484
1494295581.9619009495,       -0.0952148438,        0.4077148438,       -0.1826171875,      110.4736328125,        3.4790039062,       15.3961181641
1494295581.9644639492,       -0.0952148438,        0.4077148438,       -0.1826171875,      110.4736328125,        3.4790039062,       15.3961181641
1494295581.9670228958,       -0.2426757812,        0.9877929688,       -0.6787109375,      104.4921875000,       15.3503417969,       28.1066894531
1494295581.9695808887,       -0.2426757812,        0.9877929688,       -0.6787109375,      104.4921875000,       15.3503417969,       28.1066894531
1494295581.9722690582,       -0.2426757812,        0.9877929688,       -0.6787109375,       53.7109375000,       31.8603515625,       67.6727294922
1494295581.9748311043,       -0.2426757812,        0.9877929688,        0.1962890625,       52.7954101562,       31.8603515625,       67.6727294922
1494295581.9773919582,       -0.2993164062,        3.5922851562,        0.2070312500,       52.7954101562,       27.9541015625,      121.7956542969
1494295581.9799609184,       -0.2993164062,        3.5922851562,        0.2070312500,      -31.7993164062,       30.0903320312,      121.7956542969
1494295581.9827420712,       -0.2993164062,        3.5922851562,        0.2070312500,      -31.7993164062,       -1.1596679688,      232.2235107422
1494295581.9854431152,       -0.2993164062,        6.2255859375,        1.6953125000,      -99.8077392578,       -0.7171630859,      232.2235107422
1494295581.9881379604,       -1.4541015625,        6.2255859375,        1.6953125000,      -99.8077392578,       -0.7171630859,      354.8583984375
1494295581.9908161163,       -1.4541015625,        6.2255859375,        1.6953125000,     -264.2822265625,      -49.4079589844,      354.8583984375
1494295581.9933729172,       -1.4541015625,        6.2255859375,        1.6953125000,     -264.2822265625,      -49.4079589844,      272.8271484375
1494295581.9959280491,       -2.9511718750,       -3.8862304688,        0.1572265625,      -57.7545166016,      -53.9245605469,      272.6135253906
1494295581.9984879494,       -2.9511718750,       -3.8862304688,        0.1572265625,      -57.7545166016,      -53.9245605469,      272.6135253906
1494295582.0010740757,       -2.9511718750,       -3.8862304688,        0.1572265625,      -25.0854492188,     -101.3031005859,      151.2298583984
1494295582.0037710667,       -2.9511718750,       -3.8862304688,        0.1572265625,      -25.0854492188,     -101.3031005859,      151.2298583984
1494295582.0064690113,       -1.9868164062,       -4.5312500000,       -1.1142578125,     -157.6690673828,      -93.2006835938,      123.3367919922
1494295582.0091629028,       -1.9868164062,       -4.5312500000,       -1.1142578125,     -157.6690673828,      -93.2006835938,      123.3367919922
1494295582.0118119717,       -1.9868164062,       -4.5312500000,       -1.1142578125,      -65.7653808594,      -48.5687255859,      129.8980712891
1494295582.0143740177,       -1.9868164062,       -4.5312500000,       -1.1142578125,      -65.7653808594,      -48.5687255859,      129.8980712891
1494295582.0169289112,       -0.6430664062,        0.5361328125,        0.9375000000,      -58.5327148438,      -34.1644287109,       97.5189208984
1494295582.0194809437,       -0.6430664062,        0.5361328125,        0.9375000000,      -58.5327148438,      -34.1644287109,       97.5189208984
1494295582.0221838951,       -0.6430664062,        0.5361328125,        0.9375000000,     -120.3308105469,      -49.6063232422,       96.3745117188
1494295582.0248880386,       -0.6430664062,        0.5361328125,        0.9375000000,     -120.3308105469,      -49.6063232422,       96.3745117188
1494295582.0275940895,       -1.5336914062,        1.1401367188,        0.2280273438,     -122.3602294922,      -68.2067871094,      107.4066162109
1494295582.0304069519,       -1.5336914062,        1.1401367188,        0.2280273438,     -122.3602294922,      -68.2067871094,      107.4066162109
1494295582.0331521034,       -1.5336914062,        1.1401367188,        0.2280273438,      -92.7276611328,      -73.2116699219,      101.5014648438
1494295582.0358469486,       -1.5336914062,       -0.3940429688,       -0.3930664062,      -92.7276611328,      -73.2116699219,      101.5014648438
1494295582.0386259556,       -1.9902343750,       -0.3940429688,       -0.3930664062,      -88.0737304688,      -56.2133789062,       99.4873046875
1494295582.0417470932,       -1.9902343750,       -0.3940429688,       -0.3930664062,      -88.0737304688,      -56.2133789062,       99.4873046875
1494295582.0443010330,       -1.9902343750,       -0.3940429688,       -0.3930664062,     -116.9738769531,      -41.6717529297,      100.0671386719
1494295582.0468609333,       -1.4287109375,       -0.0073242188,        1.1782226562,     -116.9738769531,      -41.6717529297,      100.0671386719
1494295582.0494270325,       -1.4287109375,       -0.0073242188,        1.1782226562,     -142.3950195312,      -44.0826416016,      105.7586669922
1494295582.0520689487,       -1.4287109375,       -0.0073242188,        1.1782226562,     -142.3950195312,      -44.0826416016,      105.7586669922
1494295582.0547719002,       -1.4287109375,       -0.0073242188,        1.1782226562,     -189.9719238281,      -57.4645996094,      128.7994384766
1494295582.0574729443,       -6.2661132812,       -0.2348632812,       -1.1503906250,     -189.9719238281,      -57.4645996094,      128.7994384766
1494295582.0601639748,       -6.2661132812,       -0.2348632812,       -1.1503906250,     -155.7617187500,      -44.4641113281,      120.8190917969
1494295582.0628728867,       -6.2661132812,       -0.2348632812,       -1.1503906250,     -155.7617187500,      -44.4641113281,      120.8190917969
1494295582.0655579567,       -6.2661132812,       -0.2348632812,       -1.2358398438,      -27.9693603516,        9.7351074219,      118.5302734375
1494295582.0682458878,       -2.1044921875,        0.3120117188,       -1.2358398438,      -27.9693603516,        9.7351074219,      118.5302734375
1494295582.0709431171,       -2.1044921875,        0.3120117188,       -1.2358398438,      -95.7183837891,       17.1051025391,      121.1700439453
1494295582.0735039711,       -2.1044921875,        0.3120117188,       -1.2358398438,      -95.7183837891,       17.1051025391,      121.1700439453
1494295582.0760641098,       -2.1044921875,        1.0620117188,        0.0952148438,     -158.0657958984,       18.4020996094,      104.5837402344
1494295582.0786299706,        0.1079101562,        1.0874023438,        0.0952148438,     -158.0657958984,       18.4020996094,      104.5837402344
1494295582.0811910629,        0.1079101562,        1.0874023438,        0.0952148438,     -146.3470458984,       15.8691406250,       84.0911865234
1494295582.0837581158,        0.1079101562,        1.0874023438,        0.0952148438,     -145.9960937500,       15.8691406250,       84.0911865234
1494295582.0863130093,        0.1079101562,        0.9262695312,        0.3320312500,     -145.9960937500,        4.1503906250,       62.1490478516
1494295582.0888609886,        0.2407226562,        0.9262695312,        0.3320312500,     -112.2894287109,        7.5378417969,       62.1490478516
1494295582.0915739536,        0.2407226562,        0.9262695312,        0.3320312500,     -112.2894287109,        7.5378417969,       55.6640625000
1494295582.0941290855,        0.2407226562,        0.9262695312,        0.3320312500,      -76.1108398438,       10.1165771484,       55.6640625000
1494295582.0966930389,        0.4907226562,        0.7211914062,        0.8481445312,      -76.1108398438,       10.1165771484,       47.8515625000
1494295582.0992560387,        0.4321289062,        0.7211914062,        0.8481445312,      -53.8635253906,        9.9945068359,       46.9818115234
1494295582.1019949913,        0.4321289062,        0.7211914062,        0.8481445312,      -53.8635253906,        9.9945068359,       19.6380615234
1494295582.1047708988,        0.4321289062,        0.7211914062,        0.8481445312,      -33.9355468750,        3.3721923828,       20.3399658203
1494295582.1074380875,        0.4643554688,        1.0625000000,        0.7905273438,      -33.9355468750,        3.3721923828,       -7.0037841797
1494295582.1100950241,        0.4643554688,        1.0625000000,        0.7905273438,        0.1678466797,       -5.7678222656,       -5.9661865234
1494295582.1128079891,        0.4643554688,        1.0625000000,        0.7905273438,        0.1678466797,       -5.7678222656,       -5.9661865234
1494295582.1154980659,        0.4643554688,        1.0625000000,        0.7905273438,       37.4145507812,      -10.3302001953,      -24.5208740234
1494295582.1182010174,       -0.4584960938,        0.9946289062,        0.0849609375,       37.4145507812,      -10.3302001953,      -24.5208740234
1494295582.1209499836,       -0.4584960938,        0.9946289062,        0.0849609375,       65.6890869141,      -10.0860595703,      -38.8793945312
1494295582.1236510277,       -0.4584960938,        0.9946289062,        0.0849609375,       65.6890869141,      -10.0860595703,      -38.8793945312
1494295582.1263558865,       -0.4584960938,        0.6196289062,       -0.3642578125,       77.6977539062,       -7.6293945312,      -52.0324707031
1494295582.1290481091,       -1.1469726562,        0.6225585938,       -0.3642578125,       77.6977539062,       -7.6293945312,      -52.0324707031
1494295582.1317040920,       -1.1469726562,        0.6225585938,       -0.3642578125,       76.0345458984,       -4.3487548828,      -61.2030029297
1494295582.1342630386,       -1.1469726562,        0.6225585938,       -0.3642578125,       76.0345458984,       -4.3487548828,      -61.2030029297
1494295582.1368110180,       -1.1469726562,        0.2329101562,       -0.4155273438,       66.4062500000,       -1.9683837891,      -65.1245117188
1494295582.1393630505,       -1.3906250000,        0.2329101562,       -0.4155273438,       66.4062500000,       -1.9683837891,      -65.1245117188
1494295582.1420109272,       -1.3906250000,        0.2329101562,       -0.4155273438,       48.6755371094,        0.1983642578,      -63.8275146484
1494295582.1446979046,       -1.3906250000,        0.2329101562,       -0.4155273438,       48.6755371094,        0.1983642578,      -63.8275146484
1494295582.1473839283,       -1.1127929688,        0.1181640625,       -0.0473632812,       27.1911621094,        1.6784667969,      -60.5773925781
1494295582.1500620842,       -1.1127929688,        0.1181640625,       -0.0473632812,       27.1911621094,        1.6784667969,      -60.5773925781
1494295582.1528770924,       -1.1127929688,        0.1181640625,       -0.0473632812,        8.1481933594,        3.0975341797,      -57.7697753906
1494295582.1555399895,       -1.1127929688,        0.1181640625,       -0.0473632812,        8.1481933594,        3.0975341797,      -57.7697753906
1494295582.1584401131,       -0.7602539062,        0.2109375000,        0.2299804688,       -4.6997070312,        3.9062500000,      -57.3272705078
1494295582.1615550518,       -0.7602539062,        0.2109375000,        0.2299804688,       -4.6997070312,        3.9062500000,      -57.3272705078
1494295582.1642429829,       -0.7602539062,        0.2109375000,        0.2299804688,       -9.3231201172,        3.6468505859,      -58.9294433594
1494295582.1669180393,       -0.7602539062,        0.3442382812,        0.2324218750,       -9.3231201172,        3.6468505859,      -58.9294433594
1494295582.1696040630,       -0.6538085938,        0.3442382812,        0.2324218750,       -5.9509277344,        4.3182373047,      -61.3708496094
1494295582.1722869873,       -0.6538085938,        0.3442382812,        0.2324218750,       -5.9509277344,        4.3182373047,      -61.3708496094
1494295582.1749699116,       -0.6538085938,        0.3442382812,        0.2324218750,        4.4097900391,        5.4931640625,      -64.4073486328
1494295582.1776509285,       -0.6728515625,        0.4677734375,        0.1264648438,        4.4097900391,        5.4931640625,      -64.4073486328
1494295582.1804480553,       -0.6728515625,        0.4677734375,        0.1264648438,       19.5312500000,        6.3323974609,      -67.5506591797
1494295582.1831529140,       -0.6728515625,        0.4677734375,        0.1264648438,       19.5312500000,        6.3323974609,      -67.5506591797
1494295582.1858370304,       -0.6728515625,        0.4677734375,        0.1264648438,       35.9954833984,        7.8125000000,      -69.9615478516
1494295582.1885240078,       -0.6909179688,        0.4531250000,        0.0664062500,       35.9954833984,        7.8125000000,      -69.9615478516
1494295582.1912510395,       -0.6909179688,        0.4531250000,        0.0664062500,       51.3000488281,        9.0026855469,      -71.5942382812
1494295582.1938080788,       -0.6909179688,        0.4531250000,        0.0664062500,       51.3000488281,        9.0026855469,      -71.5942382812
1494295582.1963689327,       -0.6909179688,        0.4531250000,        0.0664062500,       63.7054443359,       10.1623535156,      -71.6705322266
1494295582.1989290714,       -0.6674804688,        0.3154296875,        0.0668945312,       63.7054443359,       10.1623535156,      -71.6705322266
1494295582.2015359402,       -0.6674804688,        0.3154296875,        0.0668945312,       69.3359375000,       10.8337402344,      -70.4193115234
1494295582.2041010857,       -0.6674804688,        0.3154296875,        0.0668945312,       69.3359375000,       10.8337402344,      -70.4193115234
1494295582.2066569328,       -0.6674804688,        0.3154296875,        0.0668945312,       69.4274902344,       11.6424560547,      -68.0999755859
1494295582.2092199326,       -0.6660156250,        0.1191406250,        0.0483398438,       69.4274902344,       11.6424560547,      -68.0999755859
1494295582.2118849754,       -0.6660156250,        0.1191406250,        0.0483398438,       65.5212402344,       12.5732421875,      -65.3381347656
1494295582.2144539356,       -0.6660156250,        0.1191406250,        0.0483398438,       64.1479492188,       12.5732421875,      -65.3381347656
1494295582.2170190811,       -0.6660156250,        0.1191406250,        0.0288085938,       64.1479492188,       12.5732421875,      -61.6912841797
1494295582.2195770741,       -0.6625976562,        0.0029296875,        0.0288085938,       54.2449951172,       12.9241943359,      -61.6912841797
1494295582.2223169804,       -0.6625976562,        0.0029296875,        0.0288085938,       54.2449951172,       12.9241943359,      -58.3496093750
1494295582.2250230312,       -0.6625976562,        0.0029296875,        0.0288085938,       42.8771972656,       12.9241943359,      -58.3496093750
1494295582.2277190685,       -0.6625976562,       -0.0122070312,        0.0126953125,       42.8771972656,       12.9241943359,      -54.7943115234
1494295582.2304170132,       -0.6542968750,       -0.0122070312,        0.0126953125,       31.7382812500,       13.6871337891,      -54.7943115234
1494295582.2331678867,       -0.6542968750,       -0.0122070312,        0.0126953125,       31.7382812500,       13.6871337891,      -50.7965087891
1494295582.2358679771,       -0.6542968750,       -0.0122070312,        0.0126953125,       21.5301513672,       14.3737792969,      -50.7965087891
1494295582.2385699749,       -0.6420898438,        0.0180664062,       -0.0034179688,       21.5301513672,       14.3737792969,      -46.7681884766
1494295582.2412478924,       -0.6420898438,        0.0180664062,       -0.0034179688,       12.3138427734,       15.1367187500,      -46.7681884766
1494295582.2438108921,       -0.6420898438,        0.0180664062,       -0.0034179688,       12.3138427734,       15.1367187500,      -42.5109863281
1494295582.2463788986,       -0.6420898438,        0.0180664062,       -0.0034179688,        3.9520263672,       15.9301757812,      -42.5109863281
1494295582.2489399910,       -0.6206054688,        0.0463867188,        0.0122070312,        3.9520263672,       15.9301757812,      -42.5109863281
1494295582.2516579628,       -0.6206054688,        0.0463867188,        0.0122070312,       -1.4953613281,       16.8151855469,      -38.6657714844
1494295582.2542231083,       -0.6206054688,        0.0463867188,        0.0122070312,       -1.4953613281,       16.8151855469,      -38.6657714844
1494295582.2567789555,       -0.6206054688,        0.0463867188,        0.0122070312,       -6.5765380859,       17.5628662109,      -35.0799560547
1494295582.2593390942,       -0.6069335938,        0.1010742188,        0.0385742188,       -6.5765380859,       17.5628662109,      -35.0799560547
1494295582.2620189190,       -0.6069335938,        0.1010742188,        0.0385742188,      -10.2233886719,       18.0053710938,      -31.9213867188
1494295582.2647171021,       -0.6069335938,        0.1010742188,        0.0385742188,      -10.2233886719,       18.0053710938,      -31.9213867188
1494295582.2674200535,       -0.6069335938,        0.2260742188,        0.0551757812,      -11.3830566406,       17.2882080078,      -29.4342041016
1494295582.2701160908,       -0.6245117188,        0.1494140625,        0.0551757812,      -11.3830566406,       17.2882080078,      -29.4342041016
1494295582.2728281021,       -0.6245117188,        0.1494140625,        0.0551757812,      -11.3525390625,       16.5557861328,      -26.9470214844
1494295582.2755310535,       -0.6245117188,        0.1494140625,        0.0551757812,      -11.3525390625,       16.5557861328,      -26.9470214844
1494295582.2783310413,       -0.6572265625,        0.1435546875,        0.0244140625,       -9.3994140625,       15.6402587891,      -24.5971679688
1494295582.2813971043,       -0.6572265625,        0.1435546875,        0.0244140625,       -9.3994140625,       15.6402587891,      -24.5971679688
1494295582.2841079235,       -0.6572265625,        0.1435546875,        0.0244140625,       -8.2702636719,       15.2130126953,      -22.2778320312
1494295582.2868099213,       -0.6572265625,        0.1435546875,        0.0244140625,       -8.2702636719,       15.2130126953,      -22.2778320312
1494295582.2895131111,       -0.6811523438,        0.1381835938,       -0.0053710938,       -7.5225830078,       14.3890380859,      -19.8211669922
1494295582.2921509743,       -0.6811523438,        0.1381835938,       -0.0053710938,       -7.5225830078,       14.3890380859,      -19.8211669922
1494295582.2947180271,       -0.6811523438,        0.1381835938,       -0.0053710938,       -8.0108642578,       13.6718750000,      -17.2729492188
1494295582.2972729206,       -0.6811523438,        0.1381835938,       -0.0053710938,       -8.0108642578,       13.6718750000,      -17.2729492188
1494295582.2998239994,       -0.7124023438,        0.1176757812,       -0.0473632812,      -10.7116699219,       12.6495361328,      -14.7857666016
1494295582.3024899960,       -0.7124023438,        0.1176757812,       -0.0473632812,      -10.7116699219,       12.6495361328,      -14.7857666016
1494295582.3051888943,       -0.7124023438,        0.1176757812,       -0.0473632812,      -13.1835937500,       11.3525390625,      -12.4206542969
1494295582.3078849316,       -0.7124023438,        0.1176757812,       -0.0786132812,      -13.1835937500,       11.3525390625,      -12.4206542969
1494295582.3105919361,       -0.7480468750,        0.1040039062,       -0.0786132812,      -15.7318115234,       10.7727050781,      -10.0250244141
1494295582.3131539822,       -0.7480468750,        0.1040039062,       -0.0786132812,      -15.7318115234,       10.7727050781,      -10.0250244141
1494295582.3157188892,       -0.7480468750,        0.1040039062,       -0.0786132812,      -19.3481445312,       10.5590820312,       -7.4005126953
1494295582.3182709217,       -0.7480468750,        0.1416015625,       -0.0649414062,      -19.3481445312,       10.5590820312,       -7.4005126953
1494295582.3208780289,       -0.7500000000,        0.1416015625,       -0.0649414062,      -22.3693847656,        9.3841552734,       -5.7525634766
1494295582.3234341145,       -0.7500000000,        0.1416015625,       -0.0649414062,      -22.3693847656,        9.3841552734,       -5.7525634766
1494295582.3260960579,       -0.7500000000,        0.1416015625,       -0.0649414062,      -26.2756347656,        7.6599121094,       -4.6539306641
1494295582.3286499977,       -0.7451171875,        0.2128906250,       -0.0361328125,      -24.3377685547,        7.6599121094,       -4.6539306641
1494295582.3313488960,       -0.7451171875,        0.2128906250,       -0.0361328125,      -24.3377685547,        5.4779052734,       -4.3334960938
1494295582.3339040279,       -0.7451171875,        0.2128906250,       -0.0361328125,      -24.1241455078,        5.4779052734,       -4.3334960938
1494295582.3364620209,       -0.7451171875,        0.2128906250,       -0.0361328125,      -24.1241455078,        5.4779052734,       -4.6386718750
1494295582.3390169144,       -0.7456054688,        0.2705078125,       -0.0356445312,      -20.8282470703,        3.7689208984,       -4.6386718750
1494295582.3416850567,       -0.7456054688,        0.2705078125,       -0.0356445312,      -20.8282470703,        3.7689208984,       -4.6386718750
1494295582.3442430496,       -0.7456054688,        0.2705078125,       -0.0356445312,      -15.2130126953,        2.8228759766,       -4.5471191406
1494295582.3467900753,       -0.7456054688,        0.2705078125,       -0.0356445312,      -15.2130126953,        2.8228759766,       -4.5471191406
1494295582.3493471146,       -0.7333984375,        0.2749023438,       -0.0185546875,       -8.6975097656,        1.6174316406,       -4.4555664062
1494295582.3519949913,       -0.7333984375,        0.2749023438,       -0.0185546875,       -8.6975097656,        1.6174316406,       -4.4555664062
1494295582.3546800613,       -0.7333984375,        0.2749023438,       -0.0185546875,       -2.9296875000,        0.2593994141,       -4.6844482422
1494295582.3573670387,       -0.7333984375,        0.2749023438,       -0.0185546875,       -2.9296875000,        0.2593994141,       -4.6844482422
1494295582.3600571156,       -0.7285156250,        0.2197265625,       -0.0097656250,        1.8463134766,       -0.6561279297,       -4.7912597656
1494295582.3627560139,       -0.7285156250,        0.2197265625,       -0.0097656250,        1.8463134766,       -0.6561279297,       -4.7912597656
1494295582.3654460907,       -0.7285156250,        0.2197265625,       -0.0097656250,        5.0811767578,       -1.1749267578,       -4.2877197266
1494295582.3681309223,       -0.7285156250,        0.2197265625,        0.0083007812,        5.0811767578,       -1.1749267578,       -4.2877197266
1494295582.3708119392,       -0.7373046875,        0.1650390625,        0.0083007812,        7.2326660156,       -1.9226074219,       -3.5858154297
1494295582.3733661175,       -0.7373046875,        0.1650390625,        0.0083007812,        7.2326660156,       -1.9226074219,       -3.5858154297
1494295582.3759150505,       -0.7373046875,        0.1650390625,        0.0083007812,        7.0800781250,       -2.3651123047,       -2.5482177734
1494295582.3784730434,       -0.7373046875,        0.1650390625,       -0.0014648438,        7.0800781250,       -2.3651123047,       -2.5482177734
1494295582.3811750412,       -0.7431640625,        0.1425781250,       -0.0014648438,        6.6680908203,       -1.8768310547,       -1.1138916016
1494295582.3837380409,       -0.7431640625,        0.1425781250,       -0.0014648438,        6.6680908203,       -1.8768310547,       -1.1138916016
1494295582.3862900734,       -0.7431640625,        0.1425781250,       -0.0014648438,        4.5166015625,       -1.9836425781,        0.0305175781
1494295582.3888349533,       -0.7431640625,        0.1616210938,       -0.0019531250,        4.5166015625,       -1.9836425781,        0.0305175781
1494295582.3915131092,       -0.7324218750,        0.1616210938,       -0.0019531250,        0.6103515625,       -1.9989013672,        0.8544921875
1494295582.3940699100,       -0.7324218750,        0.1616210938,       -0.0019531250,        2.7770996094,       -1.9989013672,        0.8544921875
1494295582.3966889381,       -0.7324218750,        0.1616210938,       -0.0019531250,        2.7770996094,       -1.4801025391,        1.0986328125
1494295582.3994390965,       -0.7138671875,        0.2036132812,        0.0249023438,        0.6713867188,       -1.4801025391,        1.0986328125
1494295582.4023690224,       -0.7138671875,        0.2036132812,        0.0249023438,       -0.4425048828,       -1.1596679688,        1.0681152344
1494295582.4050660133,       -0.7138671875,        0.2036132812,        0.0249023438,       -0.4425048828,       -1.1596679688,        1.0681152344
1494295582.4077548981,       -0.7138671875,        0.2036132812,        0.0249023438,       -0.4425048828,       -0.9002685547,        0.8697509766
1494295582.4104480743,       -0.7041015625,        0.2319335938,        0.0244140625,       -0.3814697266,       -0.9002685547,        0.8697509766
1494295582.4131848812,       -0.7041015625,        0.2319335938,        0.0244140625,        3.5247802734,       -1.1444091797,        0.3204345703
1494295582.4158730507,       -0.7041015625,        0.2319335938,        0.0244140625,        0.3967285156,       -1.1444091797,        0.3204345703
1494295582.4185578823,       -0.7041015625,        0.2319335938,        0.0214843750,        0.3967285156,       -1.4953613281,       -0.6561279297
1494295582.4212560654,       -0.7099609375,        0.2265625000,        0.0214843750,        1.0986328125,       -1.4953613281,       -0.6561279297
1494295582.4239449501,       -0.7099609375,        0.2265625000,        0.0214843750,        1.0986328125,       -1.3427734375,       -1.2817382812
1494295582.4266281128,       -0.7099609375,        0.2265625000,        0.0214843750,        2.3345947266,       -1.3427734375,       -1.2817382812
1494295582.4293160439,       -0.7099609375,        0.1831054688,        0.0004882812,        2.3345947266,       -0.9765625000,       -1.5716552734
1494295582.4319550991,       -0.7133789062,        0.1831054688,        0.0004882812,        2.9144287109,       -0.9765625000,       -1.5716552734
1494295582.4345030785,       -0.7133789062,        0.1831054688,        0.0004882812,        2.9144287109,       -0.9765625000,       -1.6021728516
1494295582.4370501041,       -0.7133789062,        0.1831054688,        0.0004882812,        1.9073486328,       -0.3662109375,       -1.6021728516
1494295582.4395940304,       -0.7182617188,        0.1860351562,        0.0043945312,        1.9073486328,       -0.3662109375,       -1.6021728516
1494295582.4421510696,       -0.7182617188,        0.1860351562,        0.0043945312,       -0.0152587891,        0.1068115234,       -1.2207031250
1494295582.4447000027,       -0.7182617188,        0.1860351562,        0.0043945312,       -0.0152587891,        0.1068115234,       -1.2207031250
1494295582.4472470284,       -0.7182617188,        0.1860351562,        0.0043945312,       -1.6479492188,        0.9918212891,       -1.6326904297
1494295582.4498019218,       -0.7216796875,        0.2050781250,        0.0166015625,       -1.6479492188,        0.9918212891,       -1.6326904297
1494295582.4524610043,       -0.7216796875,        0.2050781250,        0.0166015625,       -3.2501220703,        1.6632080078,       -2.2735595703
1494295582.4550149441,       -0.7216796875,        0.2050781250,        0.0166015625,       -3.2501220703,        1.6632080078,       -2.2735595703
1494295582.4575641155,       -0.7216796875,        0.2050781250,        0.0166015625,       -4.1198730469,        1.6632080078,       -3.8146972656
1494295582.4601159096,       -0.7197265625,        0.2363281250,        0.0302734375,       -4.1198730469,        1.6632080078,       -3.8146972656
1494295582.4629070759,       -0.7197265625,        0.2363281250,        0.0302734375,       -4.1351318359,        1.9531250000,       -5.3405761719
1494295582.4655990601,       -0.7197265625,        0.2363281250,        0.0302734375,       -4.1351318359,        1.9531250000,       -5.3405761719
1494295582.4682838917,       -0.7197265625,        0.2363281250,        0.0302734375,       -3.2196044922,        2.3803710938,       -6.6680908203
1494295582.4710950851,       -0.7128906250,        0.2543945312,        0.0292968750,       -3.2196044922,        2.3803710938,       -6.6680908203
1494295582.4737849236,       -0.7128906250,        0.2543945312,        0.0292968750,       -1.7547607422,        2.1972656250,       -8.3160400391
1494295582.4764780998,       -0.7128906250,        0.2543945312,        0.0292968750,       -1.7547607422,        2.1972656250,       -8.3160400391
1494295582.4791669846,       -0.7128906250,        0.1293945312,        0.0156250000,        0.2136230469,        1.8310546875,       -9.9334716797
1494295582.4818630219,       -0.7226562500,        0.2470703125,        0.0156250000,        0.2136230469,        1.8310546875,       -9.9334716797
1494295582.4845550060,       -0.7226562500,        0.2470703125,        0.0156250000,        1.7395019531,        1.6937255859,      -11.0473632812
1494295582.4872429371,       -0.7226562500,        0.2470703125,        0.0156250000,        1.7395019531,        1.6937255859,      -11.0473632812
1494295582.4899320602,       -0.7241210938,        0.2241210938,       -0.0053710938,        3.9520263672,        2.1820068359,      -12.1917724609
1494295582.4925529957,       -0.7241210938,        0.2241210938,       -0.0053710938,        3.9520263672,        2.1820068359,      -12.1917724609
1494295582.4951040745,       -0.7241210938,        0.2241210938,       -0.0053710938,        5.9051513672,        2.3193359375,      -12.9547119141
1494295582.4976630211,       -0.7241210938,        0.2241210938,       -0.0053710938,        5.9051513672,        2.3193359375,      -12.9547119141
1494295582.5002119541,       -0.7260742188,        0.2080078125,       -0.0068359375,        5.9051513672,        2.0751953125,      -13.3972167969
1494295582.5028951168,       -0.7260742188,        0.2080078125,       -0.0068359375,        5.7830810547,        2.0751953125,      -13.3972167969
1494295582.5055930614,       -0.7260742188,        0.2080078125,       -0.0068359375,        5.7830810547,        2.3956298828,      -13.3361816406
1494295582.5082809925,       -0.7260742188,        0.2080078125,       -0.0068359375,        5.4931640625,        2.3956298828,      -13.3361816406
1494295582.5109820366,       -0.7231445312,        0.1953125000,        0.0019531250,        5.4931640625,        2.2888183594,      -13.5192871094
1494295582.5136749744,       -0.7231445312,        0.1953125000,        0.0019531250,        5.0659179688,        2.2888183594,      -13.5192871094
1494295582.5163640976,       -0.7231445312,        0.1953125000,        0.0019531250,        5.0659179688,        1.8463134766,      -13.5498046875
1494295582.5193009377,       -0.7231445312,        0.1953125000,       -0.0073242188,        4.5166015625,        1.8463134766,      -13.5498046875
1494295582.5223290920,       -0.7202148438,        0.1811523438,       -0.0073242188,        4.1961669922,        1.4801025391,      -13.2446289062
1494295582.5250179768,       -0.7202148438,        0.1811523438,       -0.0073242188,        4.1961669922,        1.4801025391,      -13.2446289062
1494295582.5277070999,       -0.7202148438,        0.1811523438,       -0.0073242188,        3.7078857422,        1.6784667969,      -13.5803222656
1494295582.5303978920,       -0.7202148438,        0.1870117188,       -0.0249023438,        3.7078857422,        1.6784667969,      -13.5803222656
1494295582.5330960751,       -0.7202148438,        0.1870117188,       -0.0249023438,        2.8839111328,        1.6174316406,      -13.2904052734
1494295582.5357809067,       -0.7202148438,        0.1870117188,       -0.0249023438,        2.8839111328,        1.6174316406,      -13.2904052734
1494295582.5384740829,       -0.7202148438,        0.1870117188,       -0.0249023438,        2.5634765625,        1.4953613281,      -13.2751464844
1494295582.5411601067,       -0.7114257812,        0.2114257812,        0.0087890625,        2.5634765625,        1.4953613281,      -13.2751464844
1494295582.5437090397,       -0.7114257812,        0.2114257812,        0.0087890625,        2.5634765625,        1.5106201172,      -13.4277343750
1494295582.5463719368,       -0.7114257812,        0.2114257812,        0.0087890625,        2.6855468750,        1.5106201172,      -13.4277343750
1494295582.5489349365,       -0.7114257812,        0.2114257812,        0.0087890625,        2.6855468750,        1.5106201172,      -14.3432617188
1494295582.5515298843,       -0.7231445312,        0.2231445312,        0.0029296875,        3.6773681641,        1.3580322266,      -14.3432617188
1494295582.5540869236,       -0.7231445312,        0.2231445312,        0.0029296875,        3.6773681641,        1.3580322266,      -14.8620605469
1494295582.5566380024,       -0.7231445312,        0.2231445312,        0.0029296875,        5.6610107422,        1.0986328125,      -14.8620605469
1494295582.5591928959,       -0.7231445312,        0.2231445312,        0.0029296875,        5.6610107422,        1.0986328125,      -14.8620605469
1494295582.5617558956,       -0.7241210938,        0.2124023438,       -0.0034179688,        7.8277587891,        0.9765625000,      -14.7247314453
1494295582.5643100739,       -0.7241210938,        0.2124023438,       -0.0034179688,        7.8277587891,        0.9765625000,      -14.7247314453
1494295582.5668649673,       -0.7241210938,        0.2124023438,       -0.0034179688,        9.6740722656,        0.9002685547,      -14.2059326172
1494295582.5694179535,       -0.7241210938,        0.2124023438,       -0.0034179688,        9.6740722656,        0.9002685547,      -14.2059326172
1494295582.5721180439,       -0.7226562500,        0.1733398438,        0.0000000000,       11.3830566406,        1.2969970703,      -13.2141113281
1494295582.5746788979,       -0.7226562500,        0.1733398438,        0.0000000000,       11.3830566406,        1.2969970703,      -13.2141113281
1494295582.5772290230,       -0.7226562500,        0.1733398438,        0.0000000000,       11.1236572266,        1.1291503906,      -12.5885009766
1494295582.5797870159,       -0.7226562500,        0.1733398438,        0.0019531250,       11.1236572266,        1.1291503906,      -12.5885009766
1494295582.5825250149,       -0.7192382812,        0.1391601562,        0.0019531250,       11.0778808594,        1.2207031250,      -11.6424560547
1494295582.5852169991,       -0.7192382812,        0.1391601562,        0.0019531250,       11.0778808594,        1.2207031250,      -11.6424560547
1494295582.5879120827,       -0.7192382812,        0.1391601562,        0.0019531250,       10.0860595703,        1.4038085938,      -10.4522705078
1494295582.5906128883,       -0.7192382812,        0.1118164062,       -0.0019531250,       10.0860595703,        1.4038085938,      -10.4522705078
1494295582.5932168961,       -0.7285156250,        0.1118164062,       -0.0019531250,        8.0871582031,        1.1749267578,       -8.7890625000
1494295582.5957660675,       -0.7285156250,        0.1118164062,       -0.0019531250,        8.0871582031,        1.1749267578,       -8.7890625000
1494295582.5983140469,       -0.7285156250,        0.1118164062,       -0.0019531250,        4.1809082031,        1.0681152344,       -6.3323974609
1494295582.6009230614,       -0.7153320312,        0.1152343750,       -0.0058593750,        6.3476562500,        1.0681152344,       -6.3323974609
1494295582.6036159992,       -0.7153320312,        0.1152343750,       -0.0058593750,        6.3476562500,        0.7476806641,       -4.2419433594
1494295582.6063020229,       -0.7153320312,        0.1152343750,       -0.0058593750,        4.5166015625,        0.7476806641,       -4.2419433594
1494295582.6089880466,       -0.7153320312,        0.1152343750,       -0.0058593750,        0.6103515625,        0.4577636719,       -2.4414062500
1494295582.6116340160,       -0.7153320312,        0.1259765625,       -0.0029296875,        2.4566650391,        0.4577636719,       -2.4414062500
1494295582.6141800880,       -0.7153320312,        0.1259765625,       -0.0029296875,        2.4566650391,        0.4577636719,       -0.2593994141
1494295582.6167340279,       -0.7153320312,        0.1259765625,       -0.0029296875,        0.8239746094,        0.3814697266,       -0.2593994141
1494295582.6193869114,       -0.7153320312,        0.1259765625,       -0.0029296875,        0.8239746094,        0.3814697266,        1.1901855469
1494295582.6221499443,       -0.7250976562,        0.1230468750,       -0.0107421875,       -0.3509521484,       -0.1831054688,        1.1901855469
1494295582.6246991158,       -0.7250976562,        0.1230468750,       -0.0107421875,       -0.3509521484,       -0.1831054688,        1.1901855469
1494295582.6272480488,       -0.7250976562,        0.1230468750,       -0.0107421875,       -0.3509521484,       -1.3732910156,        2.7770996094
1494295582.6297988892,       -0.7250976562,        0.1230468750,       -0.0107421875,       -0.3509521484,       -1.3732910156,        2.7770996094
1494295582.6325008869,       -0.7260742188,        0.1147460938,       -0.0244140625,       -0.7324218750,       -2.0294189453,        5.6457519531
1494295582.6350519657,       -0.7260742188,        0.1147460938,       -0.0244140625,       -0.7324218750,       -2.0294189453,        5.6457519531
1494295582.6378018856,       -0.7260742188,        0.1147460938,       -0.0244140625,       -1.2817382812,       -2.7618408203,        8.1787109375
1494295582.6403529644,       -0.7260742188,        0.1147460938,       -0.0351562500,       -1.2817382812,       -2.7618408203,        8.1787109375
1494295582.6432309151,       -0.7211914062,        0.1044921875,       -0.0351562500,       -1.4953613281,       -3.6926269531,       11.0931396484
1494295582.6459200382,       -0.7211914062,        0.1044921875,       -0.0351562500,       -1.4953613281,       -3.6926269531,       11.0931396484
1494295582.6486029625,       -0.7211914062,        0.1044921875,       -0.0351562500,       -2.0446777344,       -4.7912597656,       14.2211914062
1494295582.6513350010,       -0.7260742188,        0.0810546875,       -0.0498046875,       -2.0446777344,       -4.7912597656,       14.2211914062
1494295582.6540200710,       -0.7260742188,        0.0810546875,       -0.0498046875,       -2.8686523438,       -5.5999755859,       17.5018310547
1494295582.6567080021,       -0.7260742188,        0.0810546875,       -0.0498046875,       -2.8686523438,       -5.5999755859,       17.5018310547
1494295582.6594018936,       -0.7260742188,        0.0810546875,       -0.0498046875,       -4.3182373047,       -6.8054199219,       21.0113525391
1494295582.6621510983,       -0.7148437500,        0.0712890625,       -0.0400390625,       -4.3182373047,       -6.8054199219,       21.0113525391
1494295582.6648509502,       -0.7148437500,        0.0712890625,       -0.0400390625,       -7.2631835938,       -7.9803466797,       24.4903564453
1494295582.6675419807,       -0.7148437500,        0.0712890625,       -0.0400390625,       -7.2631835938,       -7.9803466797,       24.4903564453
1494295582.6702370644,       -0.7148437500,        0.0712890625,       -0.0400390625,      -10.2996826172,       -8.7127685547,       27.9541015625
1494295582.6728610992,       -0.7202148438,        0.0664062500,       -0.0361328125,      -10.2996826172,       -8.7127685547,       27.9541015625
1494295582.6754150391,       -0.7202148438,        0.0664062500,       -0.0361328125,      -13.8702392578,       -9.4146728516,       29.9835205078
1494295582.6779749393,       -0.7202148438,        0.0664062500,       -0.0361328125,      -13.8702392578,       -9.4146728516,       29.9835205078
1494295582.6805369854,       -0.7202148438,        0.0664062500,       -0.0268554688,      -18.8293457031,      -10.0860595703,       32.0892333984
1494295582.6831090450,       -0.7211914062,        0.0747070312,       -0.0268554688,      -18.8293457031,      -10.0860595703,       32.0892333984
1494295582.6856749058,       -0.7211914062,        0.0747070312,       -0.0268554688,      -23.8800048828,      -10.7574462891,       34.0270996094
1494295582.6882319450,       -0.7211914062,        0.0747070312,       -0.0268554688,      -23.8800048828,      -10.7574462891,       34.0270996094
1494295582.6910629272,       -0.7211914062,        0.1381835938,        0.0332031250,      -27.7709960938,      -11.7187500000,       35.7666015625
1494295582.6936349869,       -0.6914062500,        0.1381835938,        0.0332031250,      -27.7709960938,      -11.7187500000,       35.7666015625
1494295582.6961879730,       -0.6914062500,        0.1381835938,        0.0332031250,      -27.7709960938,      -13.1072998047,       37.1398925781
1494295582.6987459660,       -0.6914062500,        0.1381835938,        0.0332031250,      -30.5328369141,      -13.1072998047,       37.1398925781
1494295582.7014799118,       -0.6914062500,        0.2338867188,        0.0419921875,      -30.5328369141,      -14.0991210938,       36.9262695312
1494295582.7041640282,       -0.6958007812,        0.2338867188,        0.0419921875,      -31.1279296875,      -14.0991210938,       36.9262695312
1494295582.7068610191,       -0.6958007812,        0.2338867188,        0.0419921875,      -31.1279296875,      -15.2130126953,       36.2701416016
1494295582.7095448971,       -0.6958007812,        0.2338867188,        0.0419921875,      -28.5339355469,      -15.2130126953,       36.2701416016
1494295582.7122359276,       -0.7187500000,        0.3041992188,        0.0083007812,      -28.5339355469,      -19.1192626953,       35.7208251953
1494295582.7149291039,       -0.7187500000,        0.3041992188,        0.0083007812,      -23.7121582031,      -16.2963867188,       35.7208251953
1494295582.7176189423,       -0.7187500000,        0.3041992188,        0.0083007812,      -23.7121582031,      -16.2963867188,       35.6292724609
1494295582.7203080654,       -0.7187500000,        0.3041992188,        0.0083007812,      -17.8527832031,      -16.9830322266,       35.6292724609
1494295582.7230160236,       -0.7397460938,        0.2778320312,       -0.0366210938,      -17.8527832031,      -16.9830322266,       36.2701416016
1494295582.7257061005,       -0.7397460938,        0.2778320312,       -0.0366210938,      -11.5203857422,      -17.5781250000,       36.2701416016
1494295582.7283990383,       -0.7397460938,        0.2778320312,       -0.0366210938,      -11.5203857422,      -17.5781250000,       37.4755859375
1494295582.7310879230,       -0.7397460938,        0.2778320312,       -0.0717773438,       -6.5917968750,      -17.5781250000,       37.4755859375
1494295582.7337830067,       -0.7441406250,        0.1523437500,       -0.0717773438,       -6.5917968750,      -17.5781250000,       38.9709472656
1494295582.7364790440,       -0.7441406250,        0.1523437500,       -0.0717773438,       -5.6152343750,      -16.6778564453,       38.9709472656
1494295582.7391729355,       -0.7441406250,        0.1523437500,       -0.0717773438,       -5.6152343750,      -16.6778564453,       42.5415039062
1494295582.7418649197,       -0.7441406250,        0.0634765625,       -0.0058593750,       -9.9182128906,      -16.3421630859,       42.5415039062
1494295582.7445631027,       -0.6679687500,        0.0634765625,       -0.0058593750,       -9.9182128906,      -16.3421630859,       46.6461181641
1494295582.7472569942,       -0.6679687500,        0.0634765625,       -0.0058593750,      -17.5476074219,      -16.5252685547,       46.6461181641
1494295582.7499589920,       -0.6679687500,        0.0634765625,       -0.0058593750,      -17.5476074219,      -16.5252685547,       49.4842529297
1494295582.7526700497,       -0.6582031250,        0.1201171875,        0.0629882812,      -25.5126953125,      -18.2647705078,       49.4842529297
1494295582.7553670406,       -0.6582031250,        0.1201171875,        0.0629882812,      -25.5126953125,      -18.2647705078,       51.8341064453
1494295582.7582919598,       -0.6582031250,        0.1201171875,        0.0629882812,      -29.8614501953,      -19.2108154297,       51.8341064453
1494295582.7613809109,       -0.6582031250,        0.3701171875,        0.0200195312,      -29.8614501953,      -19.6685791016,       53.2226562500
1494295582.7640910149,       -0.7138671875,        0.2709960938,        0.0200195312,      -28.7628173828,      -19.6685791016,       53.2226562500
1494295582.7668969631,       -0.7138671875,        0.2709960938,        0.0200195312,      -24.8565673828,      -19.0887451172,       54.2297363281
1494295582.7695960999,       -0.7138671875,        0.2709960938,        0.0200195312,      -24.2309570312,      -19.0887451172,       54.2297363281
1494295582.7722220421,       -0.7470703125,        0.3188476562,        0.0170898438,      -24.2309570312,      -18.3105468750,       55.8624267578
1494295582.7747819424,       -0.7470703125,        0.3188476562,        0.0170898438,      -17.1203613281,      -18.3105468750,       55.8624267578
1494295582.7773389816,       -0.7470703125,        0.3188476562,        0.0170898438,      -17.1203613281,      -18.3105468750,       57.6477050781
1494295582.7799019814,       -0.7470703125,        0.3188476562,        0.0170898438,       -9.7198486328,      -17.5781250000,       57.6477050781
1494295582.7826011181,       -0.6933593750,        0.1679687500,       -0.0112304688,       -9.7198486328,      -17.5781250000,       59.3109130859
1494295582.7853019238,       -0.6933593750,        0.1679687500,       -0.0112304688,       -4.8980712891,      -16.3116455078,       59.3109130859
1494295582.7879970074,       -0.6933593750,        0.1679687500,       -0.0112304688,       -4.8980712891,      -16.3116455078,       62.4084472656
1494295582.7906949520,       -0.6933593750,        0.1679687500,       -0.0112304688,       -7.7972412109,      -15.5944824219,       62.4084472656
1494295582.7932500839,       -0.5341796875,        0.0781250000,        0.0639648438,       -7.7972412109,      -15.5944824219,       62.4084472656
1494295582.7958030701,       -0.5341796875,        0.0781250000,        0.0639648438,      -17.0593261719,      -16.2506103516,       66.1163330078
1494295582.7983601093,       -0.5341796875,        0.0781250000,        0.0639648438,      -17.0593261719,      -16.2506103516,       66.1163330078
1494295582.8009629250,       -0.5341796875,        0.0781250000,        0.0639648438,      -26.8249511719,      -17.0440673828,       68.2525634766
1494295582.8035221100,       -0.5668945312,        0.1928710938,        0.1914062500,      -26.8249511719,      -17.0440673828,       68.2525634766
1494295582.8060839176,       -0.5668945312,        0.1928710938,        0.1914062500,      -31.7993164062,      -18.0358886719,       68.8629150391
1494295582.8086390495,       -0.5668945312,        0.1928710938,        0.1914062500,      -31.7993164062,      -18.0358886719,       68.8629150391
1494295582.8113288879,       -0.5668945312,        0.1928710938,        0.1914062500,      -28.9611816406,      -18.0358886719,       68.0694580078
1494295582.8138918877,       -0.6943359375,        0.3955078125,        0.0615234375,      -28.9611816406,      -18.0358886719,       68.0694580078
1494295582.8164529800,       -0.6943359375,        0.3955078125,        0.0615234375,      -20.3857421875,      -17.3645019531,       68.3441162109
1494295582.8190140724,       -0.6943359375,        0.3955078125,        0.0615234375,      -20.3857421875,      -17.3645019531,       68.3441162109
1494295582.8217039108,       -0.6943359375,        0.3955078125,       -0.0063476562,      -10.0250244141,      -17.3187255859,       68.8171386719
1494295582.8242700100,       -0.7622070312,        0.4360351562,       -0.0063476562,      -10.0250244141,      -17.3187255859,       68.8171386719
1494295582.8268349171,       -0.7622070312,        0.4360351562,       -0.0063476562,       -2.2125244141,      -17.9748535156,       69.2901611328
1494295582.8293900490,       -0.7622070312,        0.4360351562,       -0.0063476562,       -0.7476806641,      -17.9748535156,       69.2901611328
1494295582.8320240974,       -0.7622070312,        0.1860351562,       -0.0727539062,       -0.7476806641,      -18.4173583984,       70.9533691406
1494295582.8347299099,       -0.7148437500,        0.2392578125,       -0.0727539062,        6.5917968750,      -18.4173583984,       70.9533691406
1494295582.8374269009,       -0.7148437500,        0.2392578125,       -0.0727539062,        6.5917968750,      -18.4173583984,       73.8677978516
1494295582.8402299881,       -0.7148437500,        0.2392578125,       -0.0727539062,        8.2702636719,      -19.1192626953,       73.8677978516
1494295582.8429749012,       -0.6303710938,        0.0634765625,       -0.0361328125,        8.2702636719,      -19.9737548828,       78.4759521484
1494295582.8456709385,       -0.6303710938,        0.0634765625,       -0.0361328125,        2.3193359375,      -19.9737548828,       78.4759521484
1494295582.8483710289,       -0.6303710938,        0.0634765625,       -0.0361328125,        2.3193359375,      -21.6522216797,       82.4432373047
1494295582.8510479927,       -0.6303710938,        0.0634765625,       -0.0361328125,       -8.8195800781,      -21.6522216797,       82.4432373047
1494295582.8536059856,       -0.6425781250,        0.0883789062,        0.0698242188,       -8.8195800781,      -21.6522216797,       85.0067138672
1494295582.8561730385,       -0.6425781250,        0.0883789062,        0.0698242188,      -21.3317871094,      -22.5524902344,       85.0067138672
1494295582.8587379456,       -0.6425781250,        0.0883789062,        0.0698242188,      -21.3317871094,      -22.5524902344,       86.3037109375
1494295582.8614060879,       -0.6425781250,        0.0883789062,        0.0698242188,      -31.3873291016,      -22.3693847656,       86.3037109375
1494295582.8641090393,       -0.6811523438,        0.2812500000,        0.1166992188,      -31.3873291016,      -22.3693847656,       86.3037109375
1494295582.8668060303,       -0.6811523438,        0.2812500000,        0.1166992188,      -37.5061035156,      -21.7132568359,       86.5173339844
1494295582.8695139885,       -0.6811523438,        0.2812500000,        0.1166992188,      -37.5061035156,      -21.7132568359,       86.5173339844
1494295582.8721539974,       -0.6811523438,        0.2812500000,        0.1376953125,      -39.6575927734,      -20.4315185547,       86.5020751953
1494295582.8747110367,       -0.6909179688,        0.3789062500,        0.1376953125,      -39.6575927734,      -20.4315185547,       86.5020751953
1494295582.8774120808,       -0.6909179688,        0.3789062500,        0.1376953125,      -36.2396240234,      -17.4713134766,       86.2579345703
1494295582.8799870014,       -0.6909179688,        0.3789062500,        0.1376953125,      -36.2396240234,      -17.4713134766,       86.2579345703
1494295582.8828248978,       -0.6909179688,        0.3447265625,        0.1499023438,      -30.9448242188,      -14.8468017578,       85.5560302734
1494295582.8855290413,       -0.6586914062,        0.3447265625,        0.1499023438,      -30.9448242188,      -14.8468017578,       85.5560302734
1494295582.8882279396,       -0.6586914062,        0.3447265625,        0.1499023438,      -26.2145996094,      -13.7634277344,       85.6781005859
1494295582.8909718990,       -0.6586914062,        0.3447265625,        0.1499023438,      -26.2145996094,      -13.7634277344,       85.6781005859
1494295582.8936760426,       -0.5883789062,        0.2426757812,        0.1352539062,      -22.3388671875,      -11.9018554688,       86.9293212891
1494295582.8963758945,       -0.5883789062,        0.2426757812,        0.1352539062,      -22.3388671875,      -11.9018554688,       86.9293212891
1494295582.8990769386,       -0.5883789062,        0.2426757812,        0.1352539062,      -22.4609375000,       -9.6893310547,       88.5620117188
1494295582.9017879963,       -0.5883789062,        0.2426757812,        0.1352539062,      -22.4609375000,       -9.6893310547,       88.5620117188
1494295582.9044880867,       -0.6225585938,        0.2963867188,        0.1694335938,      -24.5056152344,       -7.4462890625,       89.1723632812
1494295582.9071769714,       -0.6225585938,        0.2963867188,        0.1694335938,      -24.5056152344,       -7.4462890625,       89.1723632812
1494295582.9098660946,       -0.6225585938,        0.2963867188,        0.1694335938,      -25.9552001953,       -6.2103271484,       89.3859863281
1494295582.9125819206,       -0.6225585938,        0.2963867188,        0.0805664062,      -25.9552001953,       -6.2103271484,       89.3859863281
1494295582.9151370525,       -0.6367187500,        0.3764648438,        0.0805664062,      -25.4211425781,       -5.3405761719,       89.0045166016
1494295582.9176950455,       -0.6367187500,        0.3764648438,        0.0805664062,      -25.4211425781,       -5.3405761719,       89.0045166016
1494295582.9202539921,       -0.6367187500,        0.3764648438,        0.0805664062,      -21.9421386719,       -4.5623779297,       88.7603759766
1494295582.9228670597,       -0.6367187500,        0.3764648438,        0.1088867188,      -21.9421386719,       -4.5623779297,       88.7603759766
1494295582.9254310131,       -0.6318359375,        0.4389648438,        0.1088867188,      -18.7683105469,       -4.2419433594,       87.6922607422
1494295582.9279880524,       -0.6318359375,        0.4389648438,        0.1088867188,      -18.7683105469,       -4.2419433594,       87.6922607422
1494295582.9305419922,       -0.6318359375,        0.4389648438,        0.1088867188,      -16.6015625000,       -3.9215087891,       86.3494873047
1494295582.9332261086,       -0.6318359375,        0.4218750000,        0.0751953125,      -16.6015625000,       -3.9215087891,       86.3494873047
1494295582.9357860088,       -0.6494140625,        0.4218750000,        0.0751953125,      -12.6953125000,       -3.3264160156,       85.8001708984
1494295582.9383449554,       -0.6494140625,        0.4218750000,        0.0751953125,      -13.2904052734,       -3.3264160156,       85.8001708984
1494295582.9410619736,       -0.6494140625,        0.4218750000,        0.0751953125,       -9.3841552734,       -3.2501220703,       84.7320556641
1494295582.9437611103,       -0.6162109375,        0.4291992188,        0.0576171875,      -11.0778808594,       -3.2501220703,       84.7320556641
1494295582.9464690685,       -0.6162109375,        0.4291992188,        0.0576171875,      -11.0778808594,       -3.4942626953,       83.7554931641
1494295582.9491629601,       -0.6162109375,        0.4291992188,        0.0576171875,      -10.9100341797,       -3.4942626953,       83.7554931641
1494295582.9518630505,       -0.6162109375,        0.4291992188,        0.0576171875,      -10.9100341797,       -4.0893554688,       82.9315185547
1494295582.9545650482,       -0.5566406250,        0.4169921875,        0.0678710938,      -11.7187500000,       -4.0893554688,       82.9315185547
1494295582.9572620392,       -0.5566406250,        0.4169921875,        0.0678710938,      -11.7187500000,       -5.2337646484,       80.6732177734
1494295582.9599568844,       -0.5566406250,        0.4169921875,        0.0678710938,      -15.4266357422,       -5.2337646484,       80.6732177734
1494295582.9626638889,       -0.5566406250,        0.4169921875,        0.0678710938,      -15.4266357422,       -6.1645507812,       78.3843994141
1494295582.9653620720,       -0.5795898438,        0.4267578125,        0.0419921875,      -18.3715820312,       -6.1645507812,       78.3843994141
1494295582.9680600166,       -0.5795898438,        0.4267578125,        0.0419921875,      -18.3715820312,       -7.1105957031,       75.9582519531
1494295582.9707639217,       -0.5795898438,        0.4267578125,        0.0419921875,      -20.2178955078,       -7.1105957031,       75.9582519531
1494295582.9733231068,       -0.5795898438,        0.4824218750,        0.0576171875,      -20.2178955078,       -7.1105957031,       72.3419189453
1494295582.9758839607,       -0.5595703125,        0.4824218750,        0.0576171875,      -21.6979980469,       -7.7514648438,       72.3419189453
1494295582.9784350395,       -0.5595703125,        0.4824218750,        0.0576171875,      -21.6979980469,       -7.7514648438,       68.4356689453
1494295582.9811279774,       -0.5595703125,        0.4824218750,        0.0576171875,      -21.7895507812,       -8.4075927734,       68.7866210938
1494295582.9837040901,       -0.5595703125,        0.5903320312,        0.0932617188,      -21.7895507812,       -8.4075927734,       68.7866210938
1494295582.9863770008,       -0.5727539062,        0.5903320312,        0.0932617188,      -19.7296142578,       -8.7280273438,       65.5364990234
1494295582.9889481068,       -0.5727539062,        0.5903320312,        0.0932617188,      -19.7296142578,       -8.7280273438,       65.5364990234
1494295582.9916069508,       -0.5727539062,        0.5903320312,        0.0932617188,      -14.8315429688,       -9.5825195312,       61.1267089844
1494295582.9942979813,       -0.6230468750,        0.6396484375,        0.1025390625,      -14.8315429688,       -9.5825195312,       61.1267089844
1494295582.9972569942,       -0.6230468750,        0.6396484375,        0.1025390625,       -8.7585449219,      -11.1236572266,       55.9082031250
1494295582.9999580383,       -0.6230468750,        0.6396484375,        0.1025390625,       -8.7585449219,      -11.1236572266,       48.0957031250
1494295583.0028219223,       -0.6230468750,        0.6396484375,        0.1025390625,       -5.0811767578,      -12.1307373047,       49.8046875000
1494295583.0055210590,       -0.6010742188,        0.6157226562,        0.0971679688,       -5.0811767578,      -12.1307373047,       45.8984375000
1494295583.0082159042,       -0.6010742188,        0.6157226562,        0.0971679688,       -3.8452148438,      -11.2304687500,       43.9147949219
1494295583.0109589100,       -0.6010742188,        0.6157226562,        0.0971679688,       -3.8452148438,      -11.2304687500,       36.1022949219
1494295583.0136530399,       -0.6010742188,        0.6093750000,        0.0971679688,       -3.0212402344,      -11.2304687500,       38.7115478516
1494295583.0163440704,       -0.5693359375,        0.6093750000,        0.0971679688,       -3.0212402344,      -11.2304687500,       34.8052978516
1494295583.0190451145,       -0.5693359375,        0.6093750000,        0.0971679688,       -3.5247802734,      -11.6882324219,       32.5164794922
1494295583.0217530727,       -0.5693359375,        0.6093750000,        0.0971679688,       -3.5247802734,      -11.6882324219,       32.5164794922
1494295583.0244510174,       -0.5703125000,        0.6040039062,        0.1005859375,       -3.7536621094,      -11.2457275391,       26.3519287109
1494295583.0271489620,       -0.5703125000,        0.6040039062,        0.1005859375,       -3.7536621094,      -11.2457275391,       26.3519287109
1494295583.0298449993,       -0.5703125000,        0.6040039062,        0.1005859375,       -3.4027099609,      -10.1470947266,       20.4162597656
1494295583.0324959755,       -0.5703125000,        0.6040039062,        0.1005859375,       -3.4027099609,      -10.1470947266,       20.4162597656
1494295583.0350549221,       -0.5312500000,        0.6054687500,        0.1074218750,       -2.4719238281,      -10.2844238281,       14.8620605469
1494295583.0376141071,       -0.5312500000,        0.6054687500,        0.1074218750,       -2.4719238281,      -10.2844238281,       14.8620605469
1494295583.0401749611,       -0.5312500000,        0.6054687500,        0.1074218750,       -0.3356933594,      -10.4675292969,        8.8806152344
1494295583.0427389145,       -0.5312500000,        0.6054687500,        0.1074218750,       -0.3356933594,      -10.4675292969,        8.8806152344
1494295583.0452950001,       -0.5581054688,        0.6816406250,        0.1372070312,        2.6397705078,      -10.1623535156,        2.5939941406
1494295583.0478470325,       -0.5581054688,        0.6816406250,        0.1372070312,        2.6397705078,      -10.1623535156,        2.5939941406
1494295583.0503969193,       -0.5581054688,        0.6816406250,        0.1372070312,        7.5988769531,      -10.7574462891,       -4.4097900391
1494295583.0530679226,       -0.5581054688,        0.6816406250,        0.1372070312,        7.5988769531,      -10.7574462891,       -4.4097900391
1494295583.0556221008,       -0.5878906250,        0.6459960938,        0.1298828125,       12.7410888672,      -11.0321044922,      -11.9018554688
1494295583.0581829548,       -0.5878906250,        0.6459960938,        0.1298828125,       12.7410888672,      -11.0321044922,      -11.9018554688
1494295583.0610558987,       -0.5878906250,        0.6459960938,        0.1298828125,       16.1437988281,      -10.4827880859,      -18.3868408203
1494295583.0637590885,       -0.5878906250,        0.6459960938,        0.1181640625,       16.1437988281,      -10.4827880859,      -18.3868408203
1494295583.0664639473,       -0.5258789062,        0.6123046875,        0.1181640625,       17.3797607422,       -8.8195800781,      -24.5056152344
1494295583.0691568851,       -0.5258789062,        0.6123046875,        0.1181640625,       17.3797607422,       -8.8195800781,      -24.5056152344
1494295583.0718159676,       -0.5258789062,        0.6123046875,        0.1181640625,       17.3797607422,       -6.9427490234,      -31.2652587891
1494295583.0743858814,       -0.5258789062,        0.6411132812,        0.1259765625,       17.6086425781,       -6.9427490234,      -31.2652587891
1494295583.0769460201,       -0.5595703125,        0.6411132812,        0.1259765625,       17.6086425781,       -6.9427490234,      -38.0706787109
1494295583.0794970989,       -0.5595703125,        0.6411132812,        0.1259765625,       19.6990966797,       -4.2266845703,      -38.0706787109
1494295583.0821800232,       -0.5595703125,        0.6411132812,        0.1259765625,       19.6990966797,       -0.3204345703,      -44.2504882812
1494295583.0848779678,       -0.5747070312,        0.6074218750,        0.1494140625,       22.7355957031,       -1.9683837891,      -44.2504882812
1494295583.0875799656,       -0.5747070312,        0.6074218750,        0.1494140625,       22.7355957031,       -1.9683837891,      -50.3387451172
1494295583.0902740955,       -0.5747070312,        0.6074218750,        0.1494140625,       26.1840820312,        0.1525878906,      -50.3387451172
1494295583.0928618908,       -0.5747070312,        0.6074218750,        0.1494140625,       26.1840820312,        0.1525878906,      -57.2509765625
1494295583.0954239368,       -0.5834960938,        0.6489257812,        0.1699218750,       29.9682617188,        2.4719238281,      -57.2509765625
1494295583.0979828835,       -0.5834960938,        0.6489257812,        0.1699218750,       29.9682617188,        2.4719238281,      -57.2509765625
1494295583.1005389690,       -0.5834960938,        0.6489257812,        0.1699218750,       34.5153808594,        5.4779052734,      -64.6362304688
1494295583.1032259464,       -0.5834960938,        0.6489257812,        0.1699218750,       34.5153808594,        5.4779052734,      -64.6362304688
1494295583.1058731079,       -0.7016601562,        0.6186523438,        0.1708984375,       38.3758544922,        8.7585449219,      -71.2890625000
1494295583.1085228920,       -0.7016601562,        0.6186523438,        0.1708984375,       38.3758544922,        8.7585449219,      -71.2890625000
1494295583.1113290787,       -0.7016601562,        0.6186523438,        0.1708984375,       39.8406982422,       11.7034912109,      -78.1860351562
1494295583.1139819622,       -0.7016601562,        0.6186523438,        0.1411132812,       39.8406982422,       11.7034912109,      -78.1860351562
1494295583.1167049408,       -0.7495117188,        0.5566406250,        0.1411132812,       40.6799316406,       15.2587890625,      -84.5642089844
1494295583.1195580959,       -0.7495117188,        0.5566406250,        0.1411132812,       40.6799316406,       15.2587890625,      -92.3767089844
1494295583.1224670410,       -0.7495117188,        0.5566406250,        0.1411132812,       39.8864746094,       20.6451416016,      -90.3472900391
1494295583.1250278950,       -0.7744140625,        0.6352539062,        0.1464843750,       39.8864746094,       20.6451416016,      -90.3472900391
1494295583.1275858879,       -0.7744140625,        0.6352539062,        0.1464843750,       37.8875732422,       25.9246826172,      -97.3205566406
1494295583.1301510334,       -0.7744140625,        0.6352539062,        0.1464843750,       37.8875732422,       25.9246826172,      -97.3205566406
1494295583.1329369545,       -0.7744140625,        0.6352539062,        0.1464843750,       37.4908447266,       30.9448242188,     -104.4006347656
1494295583.1356449127,       -0.8618164062,        0.6469726562,        0.1616210938,       37.4908447266,       30.9448242188,     -104.4006347656
1494295583.1383440495,       -0.8618164062,        0.6469726562,        0.1616210938,       36.1480712891,       36.3159179688,     -112.1063232422
1494295583.1410510540,       -0.8618164062,        0.6469726562,        0.1616210938,       36.1480712891,       36.3159179688,     -112.1063232422
1494295583.1437571049,       -0.8618164062,        0.6469726562,        0.1616210938,       34.6221923828,       41.3970947266,     -120.1019287109
1494295583.1464519501,       -0.9760742188,        0.6831054688,        0.1450195312,       34.6221923828,       41.3970947266,     -120.1019287109
1494295583.1491520405,       -0.9760742188,        0.6831054688,        0.1450195312,       32.6385498047,       46.8750000000,     -126.7242431641
1494295583.1518170834,       -0.9760742188,        0.6831054688,        0.1450195312,       32.6385498047,       46.8750000000,     -126.7242431641
1494295583.1543719769,       -0.9760742188,        0.6831054688,        0.0717773438,       31.7840576172,       52.8259277344,     -133.3312988281
1494295583.1569390297,       -1.1958007812,        0.8100585938,        0.0717773438,       31.7840576172,       52.8259277344,     -133.3312988281
1494295583.1594989300,       -1.1958007812,        0.8100585938,        0.0717773438,       30.2886962891,       57.5256347656,     -139.0228271484
1494295583.1621069908,       -1.1958007812,        0.8100585938,        0.0717773438,       30.2886962891,       57.5256347656,     -139.0228271484
1494295583.1646759510,       -1.1958007812,        0.8100585938,       -0.0781250000,       32.2723388672,       61.7218017578,     -143.6157226562
1494295583.1672399044,       -1.6357421875,        0.8208007812,       -0.0781250000,       32.2723388672,       61.7218017578,     -143.6157226562
1494295583.1698040962,       -1.6357421875,        0.8208007812,       -0.0781250000,       35.9191894531,       64.8803710938,     -148.8189697266
1494295583.1724779606,       -1.6357421875,        0.8208007812,       -0.0781250000,       35.9191894531,       64.8803710938,     -148.8189697266
1494295583.1750380993,       -1.6357421875,        0.6547851562,       -0.1376953125,       35.9191894531,       67.1234130859,     -154.6936035156
1494295583.1776049137,       -1.9550781250,        0.6547851562,       -0.1376953125,       39.7033691406,       67.1234130859,     -154.6936035156
1494295583.1801619530,       -1.9550781250,        0.6547851562,       -0.1376953125,       39.7033691406,       67.1234130859,     -160.4003906250
1494295583.1829400063,       -1.9550781250,        0.6547851562,       -0.1376953125,       43.7774658203,       67.8863525391,     -160.4003906250
1494295583.1856400967,       -2.0341796875,        0.4794921875,       -0.0649414062,       43.7774658203,       67.8863525391,     -166.6412353516
1494295583.1883380413,       -2.0341796875,        0.4794921875,       -0.0649414062,       50.1098632812,       66.9250488281,     -166.6412353516
1494295583.1910490990,       -2.0341796875,        0.4794921875,       -0.0649414062,       50.1098632812,       59.1125488281,     -171.6461181641
1494295583.1937520504,       -2.0341796875,        0.4794921875,       -0.0649414062,       55.4351806641,       62.0269775391,     -171.6461181641
1494295583.1964499950,       -1.9682617188,        0.2172851562,       -0.0092773438,       55.4351806641,       54.2144775391,     -177.3223876953
1494295583.1991529465,       -1.9682617188,        0.2172851562,       -0.0092773438,       61.0198974609,       52.5054931641,     -177.3223876953
1494295583.2018609047,       -1.9682617188,        0.2172851562,       -0.0092773438,       61.0198974609,       52.5054931641,     -187.2100830078
1494295583.2045590878,       -1.9682617188,        0.2172851562,       -0.0092773438,       72.6623535156,       39.6423339844,     -187.2100830078
1494295583.2073719501,       -1.8623046875,       -0.3071289062,       -0.0004882812,       72.6623535156,       27.9235839844,     -200.6988525391
1494295583.2100739479,       -1.8623046875,       -0.3071289062,       -0.0004882812,       93.7500000000,       30.0903320312,     -200.6988525391
1494295583.2126779556,       -1.8623046875,       -0.3071289062,       -0.0004882812,       93.7500000000,       30.0903320312,     -213.8214111328
1494295583.2152369022,       -1.8623046875,       -0.5571289062,        0.1132812500,      113.6016845703,       24.9633789062,     -213.8214111328
1494295583.2177939415,       -1.4965820312,       -0.5766601562,        0.1132812500,      113.6016845703,       24.9633789062,     -213.8214111328
1494295583.2203559875,       -1.4965820312,       -0.5766601562,        0.1132812500,      122.7569580078,       18.8446044922,     -226.5930175781
1494295583.2230238914,       -1.4965820312,       -0.5766601562,        0.1132812500,      122.7569580078,       18.8446044922,     -226.5930175781
1494295583.2255830765,       -1.4965820312,       -0.3989257812,        0.0761718750,      129.6081542969,       12.6800537109,     -239.7918701172
1494295583.2281429768,       -1.0561523438,       -0.3989257812,        0.0761718750,      129.6081542969,       12.6800537109,     -239.7918701172
1494295583.2307128906,       -1.0561523438,       -0.3989257812,        0.0761718750,      133.9263916016,        9.2163085938,     -249.9389648438
1494295583.2334098816,       -1.0561523438,       -0.3989257812,        0.0761718750,      133.9263916016,        9.2163085938,     -249.9389648438
1494295583.2361099720,       -0.6562500000,        0.2539062500,       -0.0297851562,      131.9580078125,       10.1623535156,     -252.6092529297
1494295583.2389340401,       -0.6562500000,        0.2539062500,       -0.0297851562,      131.9580078125,       10.1623535156,     -252.6092529297
1494295583.2419579029,       -0.6562500000,        0.2539062500,       -0.0297851562,      124.0844726562,       15.2893066406,     -242.3553466797
1494295583.2446649075,       -0.6562500000,        0.2539062500,       -0.0297851562,      124.0844726562,       15.2893066406,     -242.3553466797
1494295583.2473649979,       -0.5585937500,        0.4687500000,       -0.0683593750,      115.4174804688,       24.5971679688,     -220.0775146484
1494295583.2500700951,       -0.5585937500,        0.4687500000,       -0.0683593750,      115.4174804688,       24.5971679688,     -220.0775146484
1494295583.2527809143,       -0.5585937500,        0.4687500000,       -0.0683593750,      104.4158935547,       34.5001220703,     -195.0225830078
1494295583.2554869652,       -0.5585937500,        0.5937500000,        0.0000000000,      104.4158935547,       34.5001220703,     -195.0225830078
1494295583.2581911087,       -0.7070312500,        0.5458984375,        0.0000000000,       88.2110595703,       43.5180664062,     -172.5311279297
1494295583.2609579563,       -0.7070312500,        0.5458984375,        0.0000000000,       88.2110595703,       43.5180664062,     -172.5311279297
1494295583.2636640072,       -0.7070312500,        0.5458984375,        0.0000000000,       60.9741210938,       48.1872558594,     -150.1312255859
1494295583.2663729191,       -0.8320312500,        0.9965820312,        0.2915039062,       60.9741210938,       48.1872558594,     -150.1312255859
1494295583.2690739632,       -0.8320312500,        0.9965820312,        0.2915039062,       19.8669433594,       49.9877929688,     -122.2534179688
1494295583.2717399597,       -0.8320312500,        0.9965820312,        0.2915039062,       19.8669433594,       49.9877929688,     -122.2534179688
1494295583.2742960453,       -0.8320312500,        0.9965820312,        0.2915039062,      -19.5922851562,       45.9136962891,      -92.8192138672
1494295583.2768659592,       -0.4174804688,        0.6645507812,        0.5156250000,      -19.5922851562,       45.9136962891,      -92.8192138672
1494295583.2794280052,       -0.4174804688,        0.6645507812,        0.5156250000,      -33.8592529297,       39.9017333984,      -75.6530761719
1494295583.2821021080,       -0.4174804688,        0.6645507812,        0.5156250000,      -33.8592529297,       39.9017333984,      -75.6530761719
1494295583.2846729755,       -0.4174804688,        0.6645507812,        0.5156250000,      -33.9355468750,       26.0925292969,      -59.1735839844
1494295583.2872309685,       -0.1357421875,        1.0156250000,        0.3247070312,      -33.9355468750,       26.0925292969,      -59.1735839844
1494295583.2897880077,       -0.1357421875,        1.0156250000,        0.3247070312,      -54.0466308594,       10.9710693359,      -34.6679687500
1494295583.2924740314,       -0.1357421875,        1.0156250000,        0.3247070312,      -54.0466308594,       10.9710693359,      -34.6679687500
1494295583.2950348854,       -0.1357421875,        1.0156250000,        0.3247070312,      -63.6749267578,        0.9002685547,      -17.5323486328
1494295583.2975969315,        0.0273437500,        0.5629882812,        0.0883789062,      -63.6749267578,        0.9002685547,      -17.5323486328
1494295583.3001511097,        0.0273437500,        0.5629882812,        0.0883789062,      -51.9561767578,       -7.6446533203,      -11.3525390625
1494295583.3029079437,        0.0273437500,        0.5629882812,        0.0883789062,      -54.4433593750,       -7.6446533203,      -11.3525390625
1494295583.3056080341,        0.0273437500,        0.5629882812,       -0.1259765625,      -54.4433593750,      -12.1459960938,       -5.3405761719
1494295583.3083050251,       -0.2465820312,        0.2138671875,       -0.1259765625,      -48.8433837891,      -12.1459960938,       -5.3405761719
1494295583.3110060692,       -0.2465820312,        0.2138671875,       -0.1259765625,      -48.8433837891,      -13.9160156250,        2.7313232422
1494295583.3137030602,       -0.2465820312,        0.2138671875,       -0.1259765625,      -48.9959716797,      -13.9160156250,        2.7313232422
1494295583.3164029121,       -0.2465820312,        0.0766601562,       -0.1801757812,      -48.9959716797,      -13.0615234375,        9.1247558594
1494295583.3191010952,       -0.2270507812,        0.0766601562,       -0.1801757812,      -50.8422851562,      -13.0615234375,        9.1247558594
1494295583.3217570782,       -0.2270507812,        0.0766601562,       -0.1801757812,      -50.8422851562,      -13.0615234375,       13.7176513672
1494295583.3243179321,       -0.2270507812,        0.0766601562,       -0.1801757812,      -53.8787841797,      -12.0697021484,       13.7176513672
1494295583.3268818855,       -0.1894531250,        0.0175781250,       -0.1430664062,      -53.8787841797,      -12.0697021484,       17.1661376953
1494295583.3294379711,       -0.1894531250,        0.0175781250,       -0.1430664062,      -56.4727783203,      -13.3514404297,       17.1661376953
1494295583.3320040703,       -0.1894531250,        0.0175781250,       -0.1430664062,      -56.4727783203,      -13.3514404297,       17.1661376953
1494295583.3345699310,       -0.1894531250,        0.0175781250,       -0.1430664062,      -57.0220947266,      -14.9536132812,       19.2260742188
1494295583.3371319771,       -0.1464843750,       -0.0146484375,       -0.0903320312,      -57.0220947266,      -14.9536132812,       19.2260742188
1494295583.3396930695,       -0.1464843750,       -0.0146484375,       -0.0903320312,      -55.9082031250,      -16.1895751953,       20.8740234375
1494295583.3424038887,       -0.1464843750,       -0.0146484375,       -0.0903320312,      -55.9082031250,      -16.1895751953,       20.8740234375
1494295583.3451011181,       -0.1464843750,       -0.0146484375,       -0.0903320312,      -52.1392822266,      -17.7459716797,       21.4233398438
1494295583.3478040695,       -0.0898437500,       -0.0195312500,       -0.0703125000,      -52.1392822266,      -17.7459716797,       21.4233398438
1494295583.3505020142,       -0.0898437500,       -0.0195312500,       -0.0703125000,      -43.8690185547,      -18.5241699219,       21.7895507812
1494295583.3533129692,       -0.0898437500,       -0.0195312500,       -0.0703125000,      -43.8690185547,      -18.5241699219,       21.7895507812
1494295583.3560149670,       -0.0898437500,       -0.0195312500,       -0.0488281250,      -33.1726074219,      -18.7683105469,       21.4080810547
1494295583.3589279652,       -0.0424804688,       -0.0703125000,       -0.0488281250,      -33.1726074219,      -18.7683105469,       21.4080810547
1494295583.3620240688,       -0.0424804688,       -0.0703125000,       -0.0488281250,      -22.6745605469,      -18.5546875000,       19.8364257812
1494295583.3647289276,       -0.0424804688,       -0.0703125000,       -0.0488281250,      -22.6745605469,      -18.5546875000,       15.9301757812
1494295583.3674271107,       -0.0258789062,       -0.1293945312,       -0.0844726562,      -14.3890380859,      -18.1579589844,       18.2800292969
1494295583.3701341152,       -0.0258789062,       -0.1293945312,       -0.0844726562,      -14.3890380859,      -18.1579589844,       18.2800292969
1494295583.3727428913,       -0.0258789062,       -0.1293945312,       -0.0844726562,       -8.9111328125,      -17.3492431641,       16.3269042969
1494295583.3753020763,       -0.0258789062,       -0.1293945312,       -0.0844726562,       -8.9111328125,      -17.3492431641,       16.3269042969
1494295583.3778591156,       -0.0268554688,       -0.1713867188,       -0.1210937500,       -6.8969726562,      -16.3421630859,       13.7634277344
1494295583.3804159164,       -0.0268554688,       -0.1713867188,       -0.1210937500,       -6.8969726562,      -16.3421630859,       13.7634277344
1494295583.3831090927,       -0.0268554688,       -0.1713867188,       -0.1210937500,       -7.0800781250,      -15.2435302734,       10.7116699219
1494295583.3858089447,       -0.0268554688,       -0.1713867188,       -0.1210937500,       -7.0800781250,      -15.2435302734,       10.7116699219
1494295583.3885049820,       -0.0410156250,       -0.1557617188,       -0.1542968750,       -8.5754394531,      -14.7705078125,        7.1411132812
1494295583.3912000656,       -0.0410156250,       -0.1557617188,       -0.1542968750,       -8.5754394531,      -14.7705078125,        7.1411132812
1494295583.3937509060,       -0.0410156250,       -0.1557617188,       -0.1542968750,       -9.8114013672,      -13.3361816406,        3.5705566406
1494295583.3963079453,       -0.0410156250,       -0.1557617188,       -0.1777343750,       -9.8114013672,      -13.3361816406,        3.5705566406
1494295583.3988640308,       -0.0375976562,       -0.1088867188,       -0.1777343750,      -10.0555419922,      -12.6495361328,        0.3051757812
1494295583.4014239311,       -0.0375976562,       -0.1088867188,       -0.1777343750,      -10.0555419922,      -12.6495361328,        0.3051757812
1494295583.4039869308,       -0.0375976562,       -0.1088867188,       -0.1777343750,       -7.1411132812,      -11.4746093750,       -2.9602050781
1494295583.4065330029,       -0.0375976562,       -0.1088867188,       -0.1967773438,       -7.1411132812,      -11.4746093750,       -2.9602050781
1494295583.4090869427,       -0.0429687500,       -0.0776367188,       -0.1967773438,       -7.1411132812,       -9.8114013672,       -6.0577392578
1494295583.4118080139,       -0.0429687500,       -0.0776367188,       -0.1967773438,       -3.6621093750,       -9.8114013672,       -6.0577392578
1494295583.4143528938,       -0.0429687500,       -0.0776367188,       -0.1967773438,       -3.6621093750,       -5.9051513672,       -9.2926025391
1494295583.4169049263,       -0.0429687500,       -0.0488281250,       -0.1738281250,        0.3967285156,       -7.4920654297,       -9.2926025391
1494295583.4194509983,       -0.0395507812,       -0.0488281250,       -0.1738281250,        0.3967285156,       -7.4920654297,      -12.6190185547
1494295583.4221420288,       -0.0395507812,       -0.0488281250,       -0.1738281250,        5.5389404297,       -6.1187744141,      -12.6190185547
1494295583.4246969223,       -0.0395507812,       -0.0488281250,       -0.1738281250,        5.5389404297,       -6.1187744141,      -16.5252685547
1494295583.4273569584,       -0.0395507812,       -0.0039062500,       -0.1533203125,       11.6882324219,       -3.7384033203,      -16.5863037109
1494295583.4299130440,       -0.0253906250,       -0.0039062500,       -0.1533203125,       11.6882324219,       -3.7384033203,      -16.5863037109
1494295583.4326100349,       -0.0253906250,       -0.0039062500,       -0.1533203125,       18.4478759766,       -2.1514892578,      -20.4010009766
1494295583.4353020191,       -0.0253906250,       -0.0039062500,       -0.1533203125,       18.4478759766,       -2.1514892578,      -20.4010009766
1494295583.4379990101,       -0.0390625000,        0.0180664062,       -0.1372070312,       24.9938964844,       -0.7476806641,      -23.8494873047
1494295583.4407041073,       -0.0390625000,        0.0180664062,       -0.1372070312,       24.9938964844,       -0.7476806641,      -23.8494873047
1494295583.4434061050,       -0.0390625000,        0.0180664062,       -0.1372070312,       31.3568115234,        0.3356933594,      -26.9470214844
1494295583.4461040497,       -0.0390625000,        0.0180664062,       -0.1372070312,       31.3568115234,        0.3356933594,      -26.9470214844
1494295583.4488039017,       -0.0512695312,        0.0439453125,       -0.1289062500,       36.3159179688,        1.1138916016,      -29.7851562500
1494295583.4515480995,       -0.0512695312,        0.0439453125,       -0.1289062500,       36.3159179688,        1.1138916016,      -29.7851562500
1494295583.4542479515,       -0.0512695312,        0.0439453125,       -0.1289062500,       41.0766601562,        1.7242431641,      -32.0434570312
1494295583.4569470882,       -0.0512695312,        0.0439453125,       -0.1123046875,       41.0766601562,        1.7242431641,      -32.0434570312
1494295583.4596459866,       -0.0673828125,        0.0883789062,       -0.1123046875,       45.3491210938,        1.7547607422,      -32.8826904297
1494295583.4623539448,       -0.0673828125,        0.0883789062,       -0.1123046875,       45.3491210938,        1.7547607422,      -32.8826904297
1494295583.4650499821,       -0.0673828125,        0.0883789062,       -0.1123046875,       48.9654541016,        1.6479492188,      -33.1726074219
1494295583.4677479267,       -0.0673828125,        0.1113281250,       -0.0976562500,       48.9654541016,        1.6479492188,      -33.1726074219
1494295583.4704461098,       -0.0844726562,        0.1113281250,       -0.0976562500,       52.3071289062,        1.4648437500,      -33.0352783203
1494295583.4730639458,       -0.0844726562,        0.1113281250,       -0.0976562500,       52.3071289062,        1.4648437500,      -33.0352783203
1494295583.4756209850,       -0.0844726562,        0.1113281250,       -0.0976562500,       54.7637939453,        1.4953613281,      -32.1655273438
1494295583.4782719612,       -0.0927734375,        0.1206054688,       -0.1020507812,       54.7637939453,        1.4953613281,      -32.1655273438
1494295583.4813110828,       -0.0927734375,        0.1206054688,       -0.1020507812,       53.8177490234,        2.0446777344,      -30.5633544922
1494295583.4840149879,       -0.0927734375,        0.1206054688,       -0.1020507812,       53.8177490234,        2.0446777344,      -30.5633544922
1494295583.4867179394,       -0.0927734375,        0.1206054688,       -0.1020507812,       51.1627197266,        2.0294189453,      -28.2897949219
1494295583.4894180298,       -0.1044921875,        0.1474609375,       -0.0932617188,       51.1627197266,        2.0294189453,      -28.2897949219
1494295583.4921619892,       -0.1044921875,        0.1474609375,       -0.0932617188,       47.5463867188,        2.1057128906,      -24.9023437500
1494295583.4948649406,       -0.1044921875,        0.1474609375,       -0.0932617188,       47.5463867188,        2.1057128906,      -24.9023437500
1494295583.4975600243,       -0.1044921875,        0.1625976562,       -0.0776367188,       43.2891845703,        2.5024414062,      -20.6604003906
1494295583.5002579689,       -0.0815429688,        0.1625976562,       -0.0776367188,       43.2891845703,        2.5024414062,      -20.6604003906
1494295583.5030789375,       -0.0815429688,        0.1625976562,       -0.0776367188,       37.9638671875,        2.9296875000,      -16.1743164062
1494295583.5057809353,       -0.0815429688,        0.1625976562,       -0.0776367188,       37.9638671875,        2.9296875000,      -16.1743164062
1494295583.5084741116,       -0.0683593750,        0.1821289062,       -0.0434570312,       33.2794189453,        2.7770996094,      -10.7421875000
1494295583.5111639500,       -0.0683593750,        0.1821289062,       -0.0434570312,       33.2794189453,        2.7770996094,      -10.7421875000
1494295583.5137159824,       -0.0683593750,        0.1821289062,       -0.0434570312,       28.2440185547,        2.7008056641,       -5.2947998047
1494295583.5162739754,       -0.0683593750,        0.1821289062,       -0.0434570312,       28.2440185547,        2.7008056641,       -5.2947998047
1494295583.5188241005,       -0.0566406250,        0.1787109375,       -0.0063476562,       23.6053466797,        1.8768310547,       -0.0762939453
1494295583.5213770866,       -0.0566406250,        0.1787109375,       -0.0063476562,       23.6053466797,        1.8768310547,       -0.0762939453
1494295583.5239400864,       -0.0566406250,        0.1787109375,       -0.0063476562,       22.3083496094,        1.6479492188,        4.7454833984
1494295583.5264921188,       -0.0566406250,        0.1787109375,       -0.0063476562,       22.3083496094,        1.6479492188,        4.7454833984
1494295583.5290451050,       -0.0805664062,        0.1572265625,       -0.0458984375,       22.3083496094,        2.0294189453,        9.5367431641
1494295583.5317530632,       -0.0805664062,        0.1572265625,       -0.0458984375,       21.4233398438,        2.0294189453,        9.5367431641
1494295583.5343079567,       -0.0805664062,        0.1572265625,       -0.0458984375,       21.4233398438,        2.5177001953,       13.7023925781
1494295583.5368750095,       -0.0805664062,        0.1572265625,       -0.0458984375,       20.2941894531,        2.5177001953,       13.7023925781
1494295583.5394310951,       -0.0996093750,        0.1586914062,       -0.1445312500,       20.2941894531,        2.5177001953,       17.4865722656
1494295583.5421528816,       -0.0996093750,        0.1586914062,       -0.1445312500,       20.1110839844,        3.3416748047,       17.4865722656
1494295583.5448560715,       -0.0996093750,        0.1586914062,       -0.1445312500,       20.1110839844,        7.2479248047,       21.7742919922
1494295583.5475509167,       -0.0996093750,        0.1586914062,       -0.2158203125,       21.6217041016,        5.4473876953,       21.7742919922
1494295583.5502500534,       -0.1147460938,        0.1469726562,       -0.2158203125,       21.6217041016,        9.3536376953,       25.3448486328
1494295583.5529670715,       -0.1147460938,        0.1469726562,       -0.2158203125,       24.6276855469,        9.2315673828,       25.3448486328
1494295583.5556600094,       -0.1147460938,        0.1469726562,       -0.2158203125,       24.6276855469,        9.2315673828,       27.6336669922
1494295583.5583620071,       -0.1147460938,        0.1040039062,       -0.2934570312,       27.0538330078,       11.2304687500,       27.6336669922
1494295583.5610580444,       -0.1245117188,        0.1040039062,       -0.2934570312,       27.0538330078,       11.2304687500,       28.7170410156
1494295583.5636150837,       -0.1245117188,        0.1040039062,       -0.2934570312,       25.9246826172,       11.6882324219,       28.7170410156
1494295583.5661799908,       -0.1245117188,        0.1040039062,       -0.2934570312,       25.9246826172,       11.6882324219,       28.7170410156
1494295583.5687410831,       -0.1191406250,        0.1245117188,       -0.2807617188,       23.8037109375,       10.3454589844,       29.7393798828
1494295583.5713469982,       -0.1191406250,        0.1245117188,       -0.2807617188,       23.8037109375,       10.3454589844,       29.7393798828
1494295583.5740220547,       -0.1191406250,        0.1245117188,       -0.2807617188,       22.3693847656,        9.7198486328,       32.4096679688
1494295583.5765900612,       -0.1191406250,        0.1245117188,       -0.2807617188,       22.3693847656,        9.7198486328,       32.4096679688
1494295583.5791471004,       -0.1914062500,        1.0400390625,       -0.5996093750,       21.3470458984,       19.1192626953,       39.6728515625
1494295583.5818181038,       -0.1914062500,        1.0400390625,       -0.5996093750,       21.3470458984,       19.1192626953,       39.6728515625
1494295583.5845119953,       -0.1914062500,        1.0400390625,       -0.5996093750,       17.4713134766,       40.8172607422,       68.4356689453
1494295583.5872120857,       -0.1914062500,        1.0400390625,       -0.5996093750,       17.4713134766,       40.8172607422,       68.4356689453
1494295583.5899128914,       -0.5961914062,        8.1835937500,        1.3046875000,      -26.2908935547,       62.4694824219,      140.3656005859
1494295583.5926320553,       -0.5961914062,        8.1835937500,        1.3046875000,      -26.2908935547,       62.4694824219,      140.3656005859
