time_stamp before, Acceleration x, Acceleration y, Acceleration z, Gyro x, Gyro y, Gyro z
1494295154.4384810925,       -0.7465820312,       -0.0014648438,        0.0014648438,      -10.0402832031,      -26.6876220703,       35.6140136719
1494295154.4449310303,       -0.7465820312,       -0.0014648438,        0.0014648438,       -9.1705322266,      -26.8096923828,       34.2254638672
1494295154.4478600025,       -0.7465820312,       -0.0014648438,        0.0014648438,       -9.1705322266,      -26.8096923828,       34.2254638672
1494295154.4505488873,       -0.7329101562,        0.0146484375,        0.0249023438,       -8.6364746094,      -27.1606445312,       33.1726074219
1494295154.4532520771,       -0.7329101562,        0.0146484375,        0.0249023438,       -8.6364746094,      -27.1606445312,       33.1726074219
1494295154.4559450150,       -0.7329101562,        0.0146484375,        0.0249023438,       -7.5073242188,      -27.6641845703,       32.4859619141
1494295154.4586279392,       -0.7329101562,        0.0146484375,        0.0249023438,       -7.5073242188,      -27.6641845703,       32.4859619141
1494295154.4613649845,       -0.7563476562,        0.0166015625,        0.0463867188,       -6.2103271484,      -27.2521972656,       31.3568115234
1494295154.4640529156,       -0.7563476562,        0.0166015625,        0.0463867188,       -6.2103271484,      -27.2521972656,       31.3568115234
1494295154.4667398930,       -0.7563476562,        0.0166015625,        0.0463867188,       -3.6621093750,      -26.2603759766,       30.0292968750
1494295154.4694280624,       -0.7563476562,        0.0166015625,        0.0463867188,       -3.6621093750,      -26.2603759766,       30.0292968750
1494295154.4721589088,       -0.7456054688,        0.0141601562,        0.0581054688,       -0.3356933594,      -24.6582031250,       28.6102294922
1494295154.4748499393,       -0.7456054688,        0.0141601562,        0.0581054688,       -0.3356933594,      -24.6582031250,       28.6102294922
1494295154.4775400162,       -0.7456054688,        0.0141601562,        0.0581054688,        2.5177001953,      -24.0325927734,       27.6641845703
1494295154.4802260399,       -0.7456054688,        0.0156250000,        0.0786132812,        2.5177001953,      -24.0325927734,       27.6641845703
1494295154.4828391075,       -0.7485351562,        0.0156250000,        0.0786132812,        4.9133300781,      -22.6440429688,       26.3671875000
1494295154.4853880405,       -0.7485351562,        0.0156250000,        0.0786132812,        4.9133300781,      -22.6440429688,       26.3671875000
1494295154.4879350662,       -0.7485351562,        0.0156250000,        0.0786132812,        7.1563720703,      -21.8048095703,       25.7110595703
1494295154.4904808998,       -0.8735351562,        0.0092773438,        0.0830078125,        7.1563720703,      -21.8048095703,       25.7110595703
1494295154.4932050705,       -0.7504882812,        0.0092773438,        0.0830078125,        9.7808837891,      -21.0266113281,       25.1922607422
1494295154.4957621098,       -0.7504882812,        0.0092773438,        0.0830078125,        9.7808837891,      -21.0266113281,       25.1922607422
1494295154.4983189106,       -0.7504882812,        0.0092773438,        0.0830078125,       12.2985839844,      -20.1110839844,       24.5361328125
1494295154.5010509491,       -0.7431640625,        0.0004882812,        0.0830078125,       12.2985839844,      -20.1110839844,       24.5361328125
1494295154.5037560463,       -0.7431640625,        0.0004882812,        0.0830078125,       14.3127441406,      -19.1040039062,       23.7274169922
1494295154.5064530373,       -0.7431640625,        0.0004882812,        0.0830078125,       14.3127441406,      -19.1040039062,       23.7274169922
1494295154.5091490746,       -0.7431640625,        0.0004882812,        0.0830078125,       15.3503417969,      -17.9901123047,       22.9797363281
1494295154.5118539333,       -0.7358398438,       -0.0058593750,        0.0922851562,       15.3503417969,      -17.9901123047,       22.9797363281
1494295154.5145509243,       -0.7358398438,       -0.0058593750,        0.0922851562,       16.6015625000,      -17.4713134766,       22.3083496094
1494295154.5174050331,       -0.7358398438,       -0.0058593750,        0.0922851562,       16.6015625000,      -17.4713134766,       22.3083496094
1494295154.5201089382,       -0.7358398438,       -0.0058593750,        0.0717773438,       18.0358886719,      -16.9677734375,       21.8200683594
1494295154.5228180885,       -0.7324218750,        0.0126953125,        0.0717773438,       18.0358886719,      -16.9677734375,       21.8200683594
1494295154.5255150795,       -0.7324218750,        0.0126953125,        0.0717773438,       19.3023681641,      -16.6168212891,       21.7285156250
1494295154.5282149315,       -0.7324218750,        0.0126953125,        0.0717773438,       19.3023681641,      -16.6168212891,       21.7285156250
1494295154.5309419632,       -0.7324218750,        0.0102539062,        0.0610351562,       21.2402343750,      -15.8843994141,       21.2860107422
1494295154.5335021019,       -0.7377929688,        0.0102539062,        0.0610351562,       21.2402343750,      -15.8843994141,       21.2860107422
1494295154.5360651016,       -0.7377929688,        0.0102539062,        0.0610351562,       21.2402343750,      -15.4113769531,       20.7519531250
1494295154.5386209488,       -0.7377929688,        0.0102539062,        0.0610351562,       22.7813720703,      -15.4113769531,       20.7519531250
1494295154.5412220955,       -0.7402343750,       -0.0009765625,        0.0571289062,       22.7813720703,      -15.1824951172,       20.2178955078
1494295154.5439190865,       -0.7402343750,       -0.0009765625,        0.0571289062,       23.5290527344,      -15.1824951172,       20.2178955078
1494295154.5466210842,       -0.7402343750,       -0.0009765625,        0.0571289062,       23.5290527344,      -14.9536132812,       19.9737548828
1494295154.5493159294,       -0.7402343750,       -0.0009765625,        0.0571289062,       24.1851806641,      -14.9536132812,       19.9737548828
1494295154.5520319939,       -0.7421875000,        0.0092773438,        0.0717773438,       24.1851806641,      -14.9078369141,       19.8364257812
1494295154.5547349453,       -0.7421875000,        0.0092773438,        0.0717773438,       25.3448486328,      -14.9078369141,       19.8364257812
1494295154.5574610233,       -0.7421875000,        0.0092773438,        0.0717773438,       25.3448486328,      -15.1062011719,       19.8364257812
1494295154.5601670742,       -0.7421875000,        0.0092773438,        0.0717773438,       26.3824462891,      -15.1062011719,       19.8364257812
1494295154.5628750324,       -0.7431640625,       -0.0019531250,        0.0800781250,       26.3824462891,      -15.1062011719,       19.6990966797
1494295154.5655689240,       -0.7431640625,       -0.0019531250,        0.0800781250,       27.5421142578,      -15.1824951172,       19.6990966797
1494295154.5682749748,       -0.7431640625,       -0.0019531250,        0.0800781250,       27.5421142578,      -15.1824951172,       19.1497802734
1494295154.5709900856,       -0.7431640625,       -0.0048828125,        0.0874023438,       29.0527343750,      -14.8773193359,       19.1497802734
1494295154.5736949444,       -0.7275390625,       -0.0048828125,        0.0874023438,       29.0527343750,      -14.8773193359,       19.5159912109
1494295154.5763928890,       -0.7275390625,       -0.0048828125,        0.0874023438,       30.5938720703,      -15.1214599609,       19.5159912109
1494295154.5792338848,       -0.7275390625,       -0.0048828125,        0.0874023438,       34.5001220703,      -15.5792236328,       19.3786621094
1494295154.5827109814,       -0.7207031250,        0.0019531250,        0.1069335938,       33.4014892578,      -15.5792236328,       19.3786621094
1494295154.5852739811,       -0.7207031250,        0.0019531250,        0.1069335938,       38.1164550781,      -14.5874023438,       18.7377929688
1494295154.5878329277,       -0.7207031250,        0.0019531250,        0.1069335938,       38.1164550781,      -14.5874023438,       18.7377929688
1494295154.5905029774,       -0.7207031250,        0.0019531250,        0.1069335938,       45.9289550781,      -13.0004882812,       18.7377929688
1494295154.5930840969,       -0.7348632812,        0.0219726562,        0.1103515625,       43.2434082031,      -13.0004882812,       18.7377929688
1494295154.5956609249,       -0.7348632812,        0.0219726562,        0.1103515625,       43.2434082031,      -13.0004882812,       18.5241699219
1494295154.5982160568,       -0.7348632812,        0.0219726562,        0.1103515625,       47.0428466797,      -11.7950439453,       18.5241699219
1494295154.6007781029,       -0.7348632812,        0.0219726562,        0.0996093750,       47.0428466797,      -11.7950439453,       19.3481445312
1494295154.6034851074,       -0.7407226562,        0.0195312500,        0.0996093750,       49.2095947266,      -11.6271972656,       19.3481445312
1494295154.6061871052,       -0.7407226562,        0.0195312500,        0.0996093750,       49.2095947266,      -11.6271972656,       19.9127197266
1494295154.6088869572,       -0.7407226562,        0.0195312500,        0.0996093750,       52.1697998047,      -11.6577148438,       19.9127197266
1494295154.6115980148,       -0.7407226562,       -0.0053710938,        0.1069335938,       52.1697998047,      -11.6577148438,       19.6228027344
1494295154.6142981052,       -0.7314453125,       -0.0053710938,        0.1069335938,       57.2509765625,      -10.6048583984,       19.6228027344
1494295154.6169970036,       -0.7314453125,       -0.0053710938,        0.1069335938,       57.2509765625,      -10.6048583984,       19.4091796875
1494295154.6197030544,       -0.7314453125,       -0.0053710938,        0.1069335938,       63.9495849609,       -8.6975097656,       19.4091796875
1494295154.6223330498,       -0.7446289062,        0.0112304688,        0.0703125000,       63.9495849609,       -8.6975097656,       19.4091796875
1494295154.6248888969,       -0.7446289062,        0.0112304688,        0.0703125000,       69.1680908203,       -7.9956054688,       18.8903808594
1494295154.6274449825,       -0.7446289062,        0.0112304688,        0.0703125000,       69.1680908203,       -7.9956054688,       18.8903808594
1494295154.6300010681,       -0.7446289062,        0.0112304688,        0.0703125000,       72.4334716797,       -8.3312988281,       18.7377929688
1494295154.6326689720,       -0.7426757812,       -0.0200195312,        0.0244140625,       72.4334716797,       -8.3312988281,       18.7377929688
1494295154.6352229118,       -0.7426757812,       -0.0200195312,        0.0244140625,       73.6694335938,       -8.7280273438,       18.4173583984
1494295154.6377749443,       -0.7426757812,       -0.0200195312,        0.0244140625,       73.6694335938,       -8.7280273438,       18.4173583984
1494295154.6403279305,       -0.7426757812,       -0.0200195312,        0.0244140625,       72.8912353516,       -9.3841552734,       18.3563232422
1494295154.6431291103,       -0.7412109375,       -0.0913085938,        0.0498046875,       72.8912353516,       -9.3841552734,       18.3563232422
1494295154.6458280087,       -0.7412109375,       -0.0913085938,        0.0498046875,       69.3511962891,       -9.4146728516,       18.7072753906
1494295154.6485230923,       -0.7412109375,       -0.0913085938,        0.0498046875,       69.3511962891,       -9.4146728516,       18.7072753906
1494295154.6512360573,       -0.7412109375,       -0.0913085938,        0.0678710938,       62.4847412109,       -9.9182128906,       18.9056396484
1494295154.6539349556,       -0.7294921875,       -0.0830078125,        0.0678710938,       62.4847412109,       -9.9182128906,       18.9056396484
1494295154.6566269398,       -0.7294921875,       -0.0830078125,        0.0678710938,       51.6662597656,      -12.0391845703,       19.6990966797
1494295154.6593220234,       -0.7294921875,       -0.0830078125,        0.0678710938,       51.6662597656,      -12.0391845703,       19.6990966797
1494295154.6620380878,       -0.7294921875,       -0.0146484375,        0.0839843750,       41.3513183594,      -13.1835937500,       21.0876464844
1494295154.6648499966,       -0.7397460938,       -0.0146484375,        0.0839843750,       41.3513183594,      -13.1835937500,       21.0876464844
1494295154.6675539017,       -0.7397460938,       -0.0146484375,        0.0839843750,       34.3170166016,      -12.8936767578,       21.9879150391
1494295154.6702580452,       -0.7397460938,       -0.0146484375,        0.0839843750,       34.3170166016,      -12.8936767578,       21.9879150391
1494295154.6728560925,       -0.7622070312,        0.0722656250,        0.0800781250,       29.9987792969,      -12.3901367188,       22.7355957031
1494295154.6754200459,       -0.7622070312,        0.0722656250,        0.0800781250,       29.9987792969,      -12.3901367188,       22.7355957031
1494295154.6779770851,       -0.7622070312,        0.0722656250,        0.0800781250,       27.9083251953,      -11.7950439453,       22.4456787109
1494295154.6805379391,       -0.7622070312,        0.0722656250,        0.0800781250,       27.9083251953,      -11.7950439453,       22.4456787109
1494295154.6831839085,       -0.7456054688,        0.0937500000,        0.0869140625,       28.3660888672,      -10.4370117188,       21.9268798828
1494295154.6857409477,       -0.7456054688,        0.0937500000,        0.0869140625,       28.3660888672,      -10.4370117188,       21.9268798828
1494295154.6882989407,       -0.7456054688,        0.0937500000,        0.0869140625,       28.3660888672,       -9.6282958984,       21.1791992188
1494295154.6909389496,       -0.7456054688,        0.0937500000,        0.0869140625,       29.6173095703,       -9.6282958984,       21.1791992188
1494295154.6936368942,       -0.7358398438,        0.0859375000,        0.1049804688,       29.6173095703,       -8.7890625000,       20.9503173828
1494295154.6963350773,       -0.7358398438,        0.0859375000,        0.1049804688,       30.4565429688,       -8.7890625000,       20.9503173828
1494295154.6991350651,       -0.7358398438,        0.0859375000,        0.1049804688,       34.3627929688,       -7.1563720703,       20.7366943359
1494295154.7018470764,       -0.7358398438,        0.0859375000,        0.1132812500,       31.5856933594,       -7.1563720703,       20.7366943359
1494295154.7045478821,       -0.7236328125,        0.0639648438,        0.1132812500,       31.5856933594,       -5.8441162109,       20.2636718750
1494295154.7072520256,       -0.7236328125,        0.0639648438,        0.1132812500,       31.3262939453,       -5.8441162109,       20.2636718750
1494295154.7099459171,       -0.7236328125,        0.0639648438,        0.1132812500,       31.3262939453,       -4.6997070312,       20.0195312500
1494295154.7126541138,       -0.7211914062,        0.0346679688,        0.1166992188,       29.3731689453,       -4.6997070312,       20.0195312500
1494295154.7153549194,       -0.7211914062,        0.0346679688,        0.1166992188,       29.3731689453,       -4.6081542969,       20.4010009766
1494295154.7180569172,       -0.7211914062,        0.0346679688,        0.1166992188,       26.7333984375,       -4.6081542969,       20.4010009766
1494295154.7207610607,       -0.7211914062,        0.0346679688,        0.1166992188,       26.7333984375,       -4.6081542969,       20.6146240234
1494295154.7233259678,       -0.7148437500,        0.0141601562,        0.0981445312,       23.2391357422,       -4.5318603516,       20.6146240234
1494295154.7258830070,       -0.7148437500,        0.0141601562,        0.0981445312,       23.2391357422,       -4.5318603516,       20.9045410156
1494295154.7284429073,       -0.7148437500,        0.0141601562,        0.0981445312,       19.1192626953,       -3.9367675781,       20.9045410156
1494295154.7310080528,       -0.7148437500,        0.0141601562,        0.0981445312,       19.1192626953,       -3.9367675781,       20.9045410156
1494295154.7335619926,       -0.7167968750,        0.0190429688,        0.0932617188,       16.0675048828,       -3.3264160156,       21.3012695312
1494295154.7361190319,       -0.7167968750,        0.0190429688,        0.0932617188,       16.0675048828,       -3.3264160156,       21.3012695312
1494295154.7387909889,       -0.7167968750,        0.0190429688,        0.0932617188,       14.3890380859,       -2.8381347656,       21.7590332031
1494295154.7414619923,       -0.7167968750,        0.0190429688,        0.0932617188,       14.3890380859,       -2.8381347656,       21.7590332031
1494295154.7440209389,       -0.7221679688,        0.0659179688,        0.1025390625,       14.3432617188,       -2.6397705078,       21.5911865234
1494295154.7465820312,       -0.7221679688,        0.0659179688,        0.1025390625,       14.3432617188,       -2.6397705078,       21.5911865234
1494295154.7491450310,       -0.7221679688,        0.0659179688,        0.1025390625,       15.0451660156,       -2.8991699219,       22.0794677734
1494295154.7518980503,       -0.7221679688,        0.0659179688,        0.1064453125,       15.0451660156,       -2.8991699219,       22.0794677734
1494295154.7545959949,       -0.7397460938,        0.0634765625,        0.1064453125,       16.2658691406,       -2.2735595703,       22.0947265625
1494295154.7572939396,       -0.7397460938,        0.0634765625,        0.1064453125,       16.2658691406,       -2.2735595703,       22.0947265625
1494295154.7599849701,       -0.7397460938,        0.0634765625,        0.1064453125,       17.0288085938,       -1.7089843750,       22.0642089844
1494295154.7626819611,       -0.7397460938,        0.0576171875,        0.1054687500,       17.0288085938,       -1.7089843750,       22.0642089844
1494295154.7653810978,       -0.7265625000,        0.0576171875,        0.1054687500,       16.2200927734,       -1.5411376953,       22.4914550781
1494295154.7680749893,       -0.7265625000,        0.0576171875,        0.1054687500,       16.2200927734,       -1.5411376953,       22.4914550781
1494295154.7707829475,       -0.7265625000,        0.0576171875,        0.1054687500,       15.6097412109,       -1.3427734375,       22.7813720703
1494295154.7733409405,       -0.7216796875,        0.0561523438,        0.1010742188,       15.6097412109,       -1.3427734375,       22.7813720703
1494295154.7758970261,       -0.7216796875,        0.0561523438,        0.1010742188,       15.1519775391,       -1.0375976562,       23.2238769531
1494295154.7784550190,       -0.7216796875,        0.0561523438,        0.1010742188,       15.1519775391,       -1.0375976562,       23.2238769531
1494295154.7810289860,       -0.7216796875,        0.0561523438,        0.1010742188,       14.0228271484,       -1.4343261719,       23.6968994141
1494295154.7838931084,       -0.7221679688,        0.0493164062,        0.0966796875,       14.0228271484,       -1.4343261719,       23.6968994141
1494295154.7864511013,       -0.7221679688,        0.0493164062,        0.0966796875,       14.0228271484,       -1.3732910156,       24.7497558594
1494295154.7890050411,       -0.7221679688,        0.0493164062,        0.0966796875,       12.5579833984,       -1.3732910156,       24.7497558594
1494295154.7916820049,       -0.7221679688,        0.0493164062,        0.0966796875,       12.5579833984,       -1.9073486328,       25.0701904297
1494295154.7943370342,       -0.7275390625,        0.0224609375,        0.1186523438,       11.7492675781,       -1.9073486328,       25.0701904297
1494295154.7969870567,       -0.7275390625,        0.0224609375,        0.1186523438,       11.7492675781,       -2.0141601562,       25.8026123047
1494295154.8000268936,       -0.7275390625,        0.0224609375,        0.1186523438,       11.2915039062,       -2.0141601562,       25.8026123047
1494295154.8026649952,       -0.7275390625,        0.0224609375,        0.1025390625,       11.2915039062,       -2.2277832031,       27.1148681641
1494295154.8052289486,       -0.7207031250,        0.0400390625,        0.1025390625,        9.8724365234,       -2.2277832031,       27.1148681641
1494295154.8077869415,       -0.7207031250,        0.0400390625,        0.1025390625,        9.8724365234,       -2.2277832031,       28.0456542969
1494295154.8104500771,       -0.7207031250,        0.0400390625,        0.1025390625,        9.3231201172,       -2.8228759766,       28.0456542969
1494295154.8131780624,       -0.7207031250,        0.0439453125,        0.0942382812,        9.3231201172,       -2.8228759766,       29.2510986328
1494295154.8158719540,       -0.7236328125,        0.0439453125,        0.0942382812,        8.7585449219,       -3.3569335938,       29.2510986328
1494295154.8185670376,       -0.7236328125,        0.0439453125,        0.0942382812,        8.7585449219,       -3.3569335938,       30.7159423828
1494295154.8212330341,       -0.7236328125,        0.0439453125,        0.0942382812,        7.8887939453,       -3.2958984375,       30.7159423828
1494295154.8237919807,       -0.7304687500,        0.0439453125,        0.0996093750,        7.8887939453,       -3.2958984375,       31.7382812500
1494295154.8263449669,       -0.7304687500,        0.0439453125,        0.0996093750,        7.8430175781,       -3.0364990234,       31.7382812500
1494295154.8289051056,       -0.7304687500,        0.0439453125,        0.0996093750,        7.8430175781,       -3.0364990234,       31.7382812500
1494295154.8314979076,       -0.7304687500,        0.0439453125,        0.0996093750,        8.5144042969,       -2.9754638672,       33.2031250000
1494295154.8340549469,       -0.7377929688,        0.0493164062,        0.0756835938,        8.5144042969,       -2.9754638672,       33.2031250000
1494295154.8366069794,       -0.7377929688,        0.0493164062,        0.0756835938,        9.0332031250,       -3.1585693359,       34.8358154297
1494295154.8391559124,       -0.7377929688,        0.0493164062,        0.0756835938,        9.0332031250,       -3.1585693359,       34.8358154297
1494295154.8418509960,       -0.7377929688,        0.0493164062,        0.0756835938,        9.7351074219,       -3.0517578125,       35.9802246094
1494295154.8444039822,       -0.7446289062,        0.0483398438,        0.0820312500,        9.7351074219,       -3.0517578125,       35.9802246094
1494295154.8469550610,       -0.7446289062,        0.0483398438,        0.0820312500,        8.9111328125,       -2.8228759766,       37.5061035156
1494295154.8495049477,       -0.7446289062,        0.0483398438,        0.0820312500,        8.9111328125,       -2.8228759766,       37.5061035156
1494295154.8522748947,       -0.7446289062,        0.0483398438,        0.0820312500,        8.1176757812,       -2.8533935547,       39.5507812500
1494295154.8549730778,       -0.7431640625,        0.0366210938,        0.0947265625,        8.1176757812,       -2.8533935547,       39.5507812500
1494295154.8576669693,       -0.7431640625,        0.0366210938,        0.0947265625,        7.1716308594,       -3.0364990234,       41.5496826172
1494295154.8603570461,       -0.7431640625,        0.0366210938,        0.0947265625,        7.1716308594,       -3.0364990234,       41.5496826172
1494295154.8630630970,       -0.7431640625,        0.0366210938,        0.0859375000,        6.0882568359,       -3.3874511719,       42.9840087891
1494295154.8657529354,       -0.7368164062,        0.0532226562,        0.0859375000,        6.0882568359,       -3.3874511719,       42.9840087891
1494295154.8684420586,       -0.7368164062,        0.0532226562,        0.0859375000,        5.2947998047,       -3.5858154297,       44.4183349609
1494295154.8711268902,       -0.7368164062,        0.0532226562,        0.0859375000,        5.2947998047,       -3.5858154297,       44.4183349609
1494295154.8736720085,       -0.7368164062,        0.0639648438,        0.1010742188,        4.8675537109,       -4.1809082031,       45.7000732422
1494295154.8762280941,       -0.7490234375,        0.0639648438,        0.1010742188,        4.8675537109,       -4.1809082031,       45.7000732422
1494295154.8787779808,       -0.7490234375,        0.0639648438,        0.1010742188,        4.8675537109,       -4.3334960938,       46.7834472656
1494295154.8814110756,       -0.7490234375,        0.0639648438,        0.1010742188,        4.5013427734,       -4.3334960938,       46.7834472656
1494295154.8842151165,       -0.7436523438,        0.0805664062,        0.0996093750,        4.5013427734,       -4.3945312500,       48.4313964844
1494295154.8869020939,       -0.7436523438,        0.0805664062,        0.0996093750,        4.5623779297,       -4.3945312500,       48.4313964844
1494295154.8895909786,       -0.7436523438,        0.0805664062,        0.0996093750,        4.5623779297,       -4.1503906250,       49.8962402344
1494295154.8922870159,       -0.7436523438,        0.0805664062,        0.0996093750,        4.4555664062,       -4.1503906250,       49.8962402344
1494295154.8949799538,       -0.7597656250,        0.0903320312,        0.1044921875,        4.4555664062,       -3.7078857422,       51.0559082031
1494295154.8976750374,       -0.7597656250,        0.0903320312,        0.1044921875,        4.5471191406,       -3.7078857422,       51.0559082031
1494295154.9003739357,       -0.7597656250,        0.0903320312,        0.1044921875,        4.5471191406,       -3.7078857422,       52.1240234375
1494295154.9030809402,       -0.7597656250,        0.0903320312,        0.1044921875,        5.7525634766,       -3.2501220703,       52.1240234375
1494295154.9057719707,       -0.7646484375,        0.0917968750,        0.1040039062,        5.7525634766,       -3.0975341797,       53.4515380859
1494295154.9086549282,       -0.7646484375,        0.0917968750,        0.1040039062,        6.7749023438,       -3.0975341797,       53.4515380859
1494295154.9115839005,       -0.7646484375,        0.0917968750,        0.1040039062,        6.7749023438,       -3.4332275391,       54.6875000000
1494295154.9142820835,       -0.7568359375,        0.0942382812,        0.1054687500,        7.4920654297,       -3.4332275391,       54.6875000000
1494295154.9169778824,       -0.7568359375,        0.0942382812,        0.1054687500,       11.3983154297,       -3.1585693359,       56.2744140625
1494295154.9196739197,       -0.7568359375,        0.0942382812,        0.1054687500,        8.8195800781,       -3.1585693359,       56.2744140625
1494295154.9222950935,       -0.7568359375,        0.0942382812,        0.1054687500,        8.8195800781,       -3.0670166016,       57.9681396484
1494295154.9248430729,       -0.7568359375,        0.0976562500,        0.0639648438,        9.0026855469,       -3.0670166016,       57.9681396484
1494295154.9273970127,       -0.7568359375,        0.0976562500,        0.0639648438,        9.0026855469,       -3.0670166016,       59.9060058594
1494295154.9299499989,       -0.7568359375,        0.0976562500,        0.0639648438,        8.2702636719,       -2.8686523438,       59.9060058594
1494295154.9326300621,       -0.7568359375,        0.0976562500,        0.0639648438,        8.2702636719,       -2.8686523438,       61.0198974609
1494295154.9353249073,       -0.7836914062,        0.0898437500,        0.0488281250,        7.6751708984,       -2.8686523438,       61.0198974609
1494295154.9380199909,       -0.7836914062,        0.0898437500,        0.0488281250,        7.6751708984,       -2.8686523438,       62.3931884766
1494295154.9407179356,       -0.7836914062,        0.0898437500,        0.0488281250,        6.2561035156,       -2.8076171875,       62.3931884766
1494295154.9432699680,       -0.7836914062,        0.0898437500,        0.0488281250,        6.2561035156,       -2.8076171875,       62.3931884766
1494295154.9458200932,       -0.8076171875,        0.1079101562,        0.0507812500,        4.2572021484,       -2.0294189453,       63.8580322266
1494295154.9483718872,       -0.8076171875,        0.1079101562,        0.0507812500,        4.2572021484,       -2.0294189453,       63.8580322266
1494295154.9509639740,       -0.8076171875,        0.1079101562,        0.0507812500,        3.7384033203,       -1.0986328125,       65.5364990234
1494295154.9535140991,       -0.8076171875,        0.1079101562,        0.0507812500,        3.7384033203,       -1.0986328125,       65.5364990234
1494295154.9560709000,       -0.8178710938,        0.1542968750,        0.0698242188,        4.0588378906,       -0.8239746094,       66.4520263672
1494295154.9587318897,       -0.8178710938,        0.1542968750,        0.0698242188,        4.0588378906,       -0.8239746094,       66.4520263672
1494295154.9614601135,       -0.8178710938,        0.1542968750,        0.0698242188,        5.0048828125,       -1.0833740234,       66.9860839844
1494295154.9640130997,       -0.8178710938,        0.1542968750,        0.0839843750,        5.0048828125,       -1.0833740234,       66.9860839844
1494295154.9665710926,       -0.8349609375,        0.1723632812,        0.0839843750,        7.1411132812,       -1.0528564453,       67.9168701172
1494295154.9691259861,       -0.8349609375,        0.1723632812,        0.0839843750,        7.1411132812,       -1.0528564453,       67.9168701172
1494295154.9718229771,       -0.8349609375,        0.1723632812,        0.0839843750,       10.0708007812,       -0.6408691406,       68.7255859375
1494295154.9743840694,       -0.8349609375,        0.1777343750,        0.0825195312,       10.0708007812,       -0.6408691406,       68.7255859375
1494295154.9769411087,       -0.8623046875,        0.1777343750,        0.0825195312,       13.9770507812,       -0.6561279297,       69.5495605469
1494295154.9794969559,       -0.8623046875,        0.1777343750,        0.0825195312,       12.1765136719,       -0.6561279297,       69.5495605469
1494295154.9821779728,       -0.8623046875,        0.1777343750,        0.0825195312,       12.1765136719,       -1.0375976562,       70.1141357422
1494295154.9848759174,       -0.8706054688,        0.1630859375,        0.0722656250,       14.1754150391,       -1.0375976562,       70.1141357422
1494295154.9875729084,       -0.8706054688,        0.1630859375,        0.0722656250,       14.1754150391,       -1.1138916016,       71.3806152344
1494295154.9902698994,       -0.8706054688,        0.1630859375,        0.0722656250,       16.0522460938,       -1.1138916016,       71.3806152344
1494295154.9929790497,       -0.8706054688,        0.1630859375,        0.0722656250,       16.0522460938,       -0.9155273438,       72.6470947266
1494295154.9956789017,       -0.8896484375,        0.1552734375,        0.0791015625,       17.5170898438,       -0.9155273438,       72.6470947266
1494295154.9983780384,       -0.8896484375,        0.1552734375,        0.0791015625,       17.5170898438,       -0.7629394531,       73.6389160156
1494295155.0010709763,       -0.8896484375,        0.1552734375,        0.0791015625,       18.3868408203,       -0.7629394531,       73.6389160156
1494295155.0037651062,       -0.8896484375,        0.1552734375,        0.0791015625,       18.3868408203,       -0.7629394531,       74.4018554688
1494295155.0064589977,       -0.9028320312,        0.1635742188,        0.0820312500,       19.9584960938,       -0.5187988281,       74.4018554688
1494295155.0091559887,       -0.9028320312,        0.1635742188,        0.0820312500,       19.9584960938,       -0.5187988281,       75.9429931641
1494295155.0118670464,       -0.9028320312,        0.1635742188,        0.0820312500,       20.9960937500,       -0.5035400391,       75.9429931641
1494295155.0145668983,       -0.9028320312,        0.1635742188,        0.0805664062,       20.9960937500,       -0.5035400391,       77.3010253906
1494295155.0172669888,       -0.9199218750,        0.1635742188,        0.0805664062,       22.2473144531,       -0.1220703125,       77.3010253906
1494295155.0199611187,       -0.9199218750,        0.1635742188,        0.0805664062,       22.2473144531,       -0.1220703125,       78.4759521484
1494295155.0225739479,       -0.9199218750,        0.1635742188,        0.0805664062,       23.8647460938,        0.8697509766,       78.4759521484
1494295155.0251350403,       -0.9501953125,        0.1401367188,        0.0966796875,       23.8647460938,        0.8697509766,       79.8492431641
1494295155.0278179646,       -0.9501953125,        0.1401367188,        0.0966796875,       25.8178710938,        1.4495849609,       79.8492431641
1494295155.0304930210,       -0.9501953125,        0.1401367188,        0.0966796875,       25.8178710938,        1.4495849609,       81.1614990234
1494295155.0334761143,       -0.9501953125,        0.1401367188,        0.0966796875,       27.0843505859,        2.3498535156,       81.1614990234
1494295155.0361781120,       -0.9594726562,        0.1147460938,        0.1000976562,       27.0843505859,        2.3498535156,       82.7941894531
1494295155.0388760567,       -0.9594726562,        0.1147460938,        0.1000976562,       28.4729003906,        3.2806396484,       82.7941894531
1494295155.0415849686,       -0.9594726562,        0.1147460938,        0.1000976562,       28.4729003906,        3.2806396484,       84.8541259766
1494295155.0442750454,       -0.9594726562,        0.1147460938,        0.1000976562,       30.6854248047,        3.0670166016,       84.8541259766
1494295155.0469648838,       -0.9584960938,        0.1064453125,        0.0927734375,       30.6854248047,        3.0670166016,       87.3718261719
1494295155.0496549606,       -0.9584960938,        0.1064453125,        0.0927734375,       33.6608886719,        2.9907226562,       87.3718261719
1494295155.0523629189,       -0.9584960938,        0.1064453125,        0.0927734375,       33.6608886719,        2.9907226562,       89.7369384766
1494295155.0550599098,       -0.9584960938,        0.0893554688,        0.0678710938,       36.4379882812,        2.8381347656,       89.7369384766
1494295155.0577569008,       -0.9565429688,        0.0893554688,        0.0678710938,       36.4379882812,        2.8381347656,       92.3461914062
1494295155.0604560375,       -0.9565429688,        0.0893554688,        0.0678710938,       37.8875732422,        3.4790039062,       92.3461914062
1494295155.0630381107,       -0.9565429688,        0.0893554688,        0.0678710938,       37.8875732422,        3.4790039062,       92.3461914062
1494295155.0655961037,       -0.9824218750,        0.0175781250,        0.0546875000,       38.9251708984,        4.2572021484,       95.2606201172
1494295155.0681478977,       -0.9824218750,        0.0175781250,        0.0546875000,       38.9251708984,        4.2572021484,       95.2606201172
1494295155.0707070827,       -0.9824218750,        0.0175781250,        0.0546875000,       39.8712158203,        4.4555664062,       98.6633300781
1494295155.0732638836,       -0.9824218750,        0.0175781250,        0.0546875000,       39.8712158203,        4.4555664062,       98.6633300781
1494295155.0758180618,       -1.0004882812,       -0.0004882812,        0.0712890625,       39.8712158203,        3.7231445312,      101.8676757812
1494295155.0783729553,       -1.0004882812,       -0.0004882812,        0.0712890625,       39.8712158203,        3.7231445312,      101.8676757812
1494295155.0810918808,       -1.0004882812,       -0.0004882812,        0.0712890625,       39.5660400391,        1.9073486328,      105.4992675781
1494295155.0836479664,       -1.0004882812,       -0.0004882812,        0.0712890625,       39.5660400391,        1.9073486328,      105.4992675781
1494295155.0862009525,       -1.0371093750,       -0.0253906250,        0.0493164062,       42.6788330078,       -0.2288818359,      107.9406738281
1494295155.0887520313,       -1.0371093750,       -0.0253906250,        0.0493164062,       42.6788330078,       -0.2288818359,      107.9406738281
1494295155.0914719105,       -1.0371093750,       -0.0253906250,        0.0493164062,       47.5616455078,       -1.3427734375,      111.2213134766
1494295155.0941469669,       -1.0371093750,       -0.0253906250,        0.0493164062,       47.5616455078,       -1.3427734375,      111.2213134766
1494295155.0968298912,       -1.0722656250,        0.0058593750,        0.0527343750,       50.0183105469,       -3.2043457031,      113.7695312500
1494295155.0995080471,       -1.0722656250,        0.0058593750,        0.0527343750,       50.0183105469,       -3.2043457031,      113.7695312500
1494295155.1021850109,       -1.0722656250,        0.0058593750,        0.0527343750,       56.8847656250,       -5.7983398438,      115.5700683594
1494295155.1049499512,       -1.0722656250,        0.0058593750,        0.0483398438,       56.8847656250,       -5.7983398438,      115.5700683594
1494295155.1076059341,       -1.0996093750,       -0.0205078125,        0.0483398438,       64.8345947266,       -8.0871582031,      116.8060302734
1494295155.1102559566,       -1.0996093750,       -0.0205078125,        0.0483398438,       64.8345947266,       -8.0871582031,      116.8060302734
1494295155.1129798889,       -1.0996093750,       -0.0205078125,        0.0483398438,       72.6470947266,       -9.9487304688,      117.5842285156
1494295155.1156709194,       -1.2246093750,       -0.0200195312,        0.0512695312,       73.1811523438,       -9.9487304688,      117.5842285156
1494295155.1183669567,       -1.1484375000,       -0.0200195312,        0.0512695312,       84.8999023438,      -11.1236572266,      117.7978515625
1494295155.1210620403,       -1.1484375000,       -0.0200195312,        0.0512695312,       83.0230712891,      -11.1236572266,      117.7978515625
1494295155.1236200333,       -1.1484375000,       -0.0200195312,        0.0512695312,       83.0230712891,      -11.1236572266,      117.3858642578
1494295155.1261808872,       -1.2070312500,       -0.0527343750,        0.0273437500,       94.7723388672,      -11.4746093750,      117.3858642578
1494295155.1287450790,       -1.2070312500,       -0.0527343750,        0.0273437500,       94.7723388672,      -11.4746093750,      116.4398193359
1494295155.1314189434,       -1.2070312500,       -0.0527343750,        0.0273437500,      105.8044433594,      -10.5438232422,      116.4398193359
1494295155.1341190338,       -1.2070312500,       -0.0527343750,        0.0273437500,      105.8044433594,      -10.5438232422,      115.6921386719
1494295155.1368141174,       -1.1899414062,       -0.1381835938,       -0.0156250000,      115.6463623047,       -8.3465576172,      115.6921386719
1494295155.1395080090,       -1.1899414062,       -0.1381835938,       -0.0156250000,      115.6463623047,       -8.3465576172,      116.3024902344
1494295155.1422150135,       -1.1899414062,       -0.1381835938,       -0.0156250000,      119.5678710938,       -4.3182373047,      116.3024902344
1494295155.1449089050,       -1.1899414062,       -0.1381835938,       -0.0156250000,      119.5678710938,       -4.3182373047,      118.8812255859
1494295155.1477489471,       -1.0507812500,       -0.1005859375,        0.0009765625,      116.6839599609,        0.0152587891,      118.8812255859
1494295155.1508569717,       -1.0507812500,       -0.1005859375,        0.0009765625,      116.6839599609,        3.9062500000,      124.4354248047
1494295155.1535611153,       -1.0507812500,       -0.1005859375,        0.0009765625,      108.8256835938,        3.9062500000,      124.4354248047
1494295155.1562590599,       -0.9438476562,        0.0595703125,        0.0742187500,      108.8256835938,        6.2561035156,      132.3089599609
1494295155.1589579582,       -0.9438476562,        0.0595703125,        0.0742187500,       95.3521728516,        6.2561035156,      132.3089599609
1494295155.1616680622,       -0.9438476562,        0.0595703125,        0.0742187500,       95.3521728516,        6.5917968750,      139.4348144531
1494295155.1643629074,       -0.9438476562,        0.0595703125,        0.0742187500,       76.5686035156,        6.5917968750,      139.4348144531
1494295155.1670570374,       -0.9804687500,        0.1303710938,        0.1894531250,       76.5686035156,        6.5917968750,      144.7143554688
1494295155.1697540283,       -0.9804687500,        0.1303710938,        0.1894531250,       56.2133789062,        6.3476562500,      144.7143554688
1494295155.1723821163,       -0.9804687500,        0.1303710938,        0.1894531250,       56.2133789062,        6.3476562500,      146.7742919922
1494295155.1749379635,       -0.9804687500,        0.1303710938,        0.1894531250,       39.1998291016,        5.6304931641,      146.7742919922
1494295155.1774919033,       -1.0190429688,        0.1489257812,        0.2607421875,       39.1998291016,        5.6304931641,      146.7742919922
1494295155.1801550388,       -1.0190429688,        0.1489257812,        0.2607421875,       28.1066894531,        4.1656494141,      146.6369628906
1494295155.1827239990,       -1.0190429688,        0.1489257812,        0.2607421875,       28.1066894531,        4.1656494141,      146.6369628906
1494295155.1852810383,       -1.0190429688,        0.1489257812,        0.2607421875,       24.0325927734,        3.5400390625,      145.6146240234
1494295155.1878309250,       -1.0014648438,        0.3007812500,        0.2270507812,       24.0325927734,        3.5400390625,      145.6146240234
1494295155.1903820038,       -1.0014648438,        0.3007812500,        0.2270507812,       28.5491943359,        4.5928955078,      144.4091796875
1494295155.1929440498,       -1.0014648438,        0.3007812500,        0.2270507812,       28.5491943359,        4.5928955078,      144.4091796875
1494295155.1954989433,       -1.0014648438,        0.3007812500,        0.2270507812,       38.2385253906,        6.4544677734,      144.3328857422
1494295155.1980559826,       -0.9091796875,        0.4868164062,        0.1269531250,       38.2385253906,        6.4544677734,      144.3328857422
1494295155.2006080151,       -0.9091796875,        0.4868164062,        0.1269531250,       44.8150634766,        5.9356689453,      143.5241699219
1494295155.2032070160,       -0.9091796875,        0.4868164062,        0.1269531250,       44.8150634766,        5.9356689453,      143.5241699219
1494295155.2057631016,       -0.9091796875,        0.4868164062,        0.1430664062,       43.9758300781,        4.0893554688,      140.8538818359
1494295155.2083210945,       -0.8193359375,        0.5048828125,        0.1430664062,       43.9758300781,        4.0893554688,      140.8538818359
1494295155.2110440731,       -0.8193359375,        0.5048828125,        0.1430664062,       39.8101806641,        1.9073486328,      136.6882324219
1494295155.2137420177,       -0.8193359375,        0.5048828125,        0.1430664062,       39.8101806641,        1.9073486328,      136.6882324219
1494295155.2164421082,       -0.8193359375,        0.3979492188,        0.1601562500,       35.6292724609,       -0.2593994141,      131.4697265625
1494295155.2191390991,       -0.7226562500,        0.3979492188,        0.1601562500,       35.6292724609,       -0.2593994141,      131.4697265625
1494295155.2217988968,       -0.7226562500,        0.3979492188,        0.1601562500,       31.7230224609,       -2.1209716797,      124.2980957031
1494295155.2243499756,       -0.7226562500,        0.3979492188,        0.1601562500,       31.7687988281,       -2.1209716797,      124.2980957031
1494295155.2269089222,       -0.5981445312,        0.2373046875,        0.1767578125,       31.7687988281,       -2.1209716797,      115.2801513672
1494295155.2294631004,       -0.5981445312,        0.2373046875,        0.1767578125,       28.0151367188,       -3.6163330078,      115.2801513672
1494295155.2321031094,       -0.5981445312,        0.2373046875,        0.1767578125,       28.0151367188,       -3.6163330078,      105.1025390625
1494295155.2348029613,       -0.5981445312,        0.2373046875,        0.1767578125,       25.5279541016,       -4.0130615234,      105.1025390625
1494295155.2375030518,       -0.4799804688,        0.1694335938,        0.1293945312,       25.5279541016,       -4.0130615234,       95.2758789062
1494295155.2402000427,       -0.4799804688,        0.1694335938,        0.1293945312,       23.8800048828,       -3.6468505859,       95.2758789062
1494295155.2429039478,       -0.4799804688,        0.1694335938,        0.1293945312,       23.8800048828,       -3.6468505859,       87.0971679688
1494295155.2455990314,       -0.4799804688,        0.1694335938,        0.1293945312,       21.8658447266,       -5.2490234375,       87.0971679688
1494295155.2482929230,       -0.3437500000,        0.2446289062,        0.1337890625,       21.8658447266,       -5.2490234375,       78.4759521484
1494295155.2511110306,       -0.3437500000,        0.2446289062,        0.1337890625,       19.5770263672,       -8.9111328125,       78.4759521484
1494295155.2538099289,       -0.3437500000,        0.2446289062,        0.1337890625,       19.5770263672,       -8.9111328125,       68.9697265625
1494295155.2565081120,       -0.3437500000,        0.3696289062,        0.2241210938,       17.4255371094,      -14.2974853516,       68.9697265625
1494295155.2592089176,       -0.2480468750,        0.2524414062,        0.2241210938,       17.4255371094,      -14.2974853516,       58.9294433594
1494295155.2619531155,       -0.2480468750,        0.2524414062,        0.2241210938,       13.6260986328,      -22.4456787109,       58.9294433594
1494295155.2646510601,       -0.2480468750,        0.2524414062,        0.2241210938,       13.6260986328,      -22.4456787109,       46.9818115234
1494295155.2674570084,       -0.2768554688,        0.0351562500,        0.1879882812,       10.8337402344,      -28.3050537109,       46.9818115234
1494295155.2701530457,       -0.2768554688,        0.0351562500,        0.1879882812,       10.8337402344,      -28.3050537109,       32.5927734375
1494295155.2731699944,       -0.2768554688,        0.0351562500,        0.1879882812,       10.6658935547,      -28.1829833984,       32.5927734375
1494295155.2757320404,       -0.2768554688,        0.0351562500,        0.1879882812,       10.6658935547,      -28.1829833984,       16.9982910156
1494295155.2782900333,       -0.3388671875,       -0.2036132812,        0.0576171875,       14.3890380859,      -21.7590332031,       16.9982910156
1494295155.2809319496,       -0.3388671875,       -0.2036132812,        0.0576171875,       14.3890380859,      -21.7590332031,        2.8991699219
1494295155.2836329937,       -0.3388671875,       -0.2036132812,        0.0576171875,       18.9361572266,      -13.9007568359,        2.8991699219
1494295155.2863268852,       -0.3388671875,       -0.2036132812,        0.0576171875,       18.9361572266,      -13.9007568359,       -4.9133300781
1494295155.2890241146,       -0.2978515625,       -0.2573242188,        0.0185546875,       20.4620361328,       -8.4838867188,       -7.5531005859
1494295155.2917640209,       -0.2978515625,       -0.2573242188,        0.0185546875,       20.4620361328,       -8.4838867188,      -19.2718505859
1494295155.2944619656,       -0.2978515625,       -0.2573242188,        0.0185546875,       18.6614990234,       -5.6457519531,      -16.5405273438
1494295155.2971570492,       -0.2978515625,       -0.1831054688,       -0.0205078125,       18.6614990234,       -5.6457519531,      -24.3530273438
1494295155.2998569012,       -0.2651367188,       -0.1831054688,       -0.0205078125,       14.0533447266,       -4.9438476562,      -24.5666503906
1494295155.3024690151,       -0.2651367188,       -0.1831054688,       -0.0205078125,       14.0533447266,       -4.9438476562,      -24.5666503906
1494295155.3050301075,       -0.2651367188,       -0.1831054688,       -0.0205078125,        6.9732666016,       -5.0048828125,      -32.0739746094
1494295155.3075809479,       -0.2573242188,       -0.0849609375,       -0.0493164062,        6.9732666016,       -5.0048828125,      -32.0739746094
1494295155.3101360798,       -0.2573242188,       -0.0849609375,       -0.0493164062,       -1.0223388672,       -5.0811767578,      -40.0543212891
1494295155.3126969337,       -0.2573242188,       -0.0849609375,       -0.0493164062,       -1.0223388672,       -5.0811767578,      -40.0543212891
1494295155.3152461052,       -0.2573242188,       -0.0849609375,       -0.0493164062,       -8.3007812500,       -5.6762695312,      -49.1638183594
1494295155.3177978992,       -0.2685546875,       -0.0185546875,       -0.0371093750,       -8.3007812500,       -5.6762695312,      -49.1638183594
1494295155.3203499317,       -0.2685546875,       -0.0185546875,       -0.0371093750,      -14.2822265625,       -6.3323974609,      -58.4716796875
1494295155.3230199814,       -0.2685546875,       -0.0185546875,       -0.0371093750,      -14.2822265625,       -6.3323974609,      -58.4716796875
1494295155.3256850243,       -0.2685546875,       -0.0185546875,       -0.0371093750,      -18.4326171875,       -6.3934326172,      -68.1610107422
1494295155.3282480240,       -0.2597656250,        0.0170898438,       -0.0371093750,      -18.4326171875,       -6.3934326172,      -68.1610107422
1494295155.3308970928,       -0.2597656250,        0.0170898438,       -0.0371093750,      -20.7824707031,       -5.9204101562,      -77.5756835938
1494295155.3336091042,       -0.2597656250,        0.0170898438,       -0.0371093750,      -20.7824707031,       -5.9204101562,      -77.5756835938
1494295155.3363010883,       -0.2597656250,        0.0170898438,       -0.0371093750,      -22.7050781250,       -4.9591064453,      -87.3565673828
1494295155.3389990330,       -0.2783203125,        0.0117187500,       -0.0395507812,      -22.7050781250,       -4.9591064453,      -87.3565673828
1494295155.3417439461,       -0.2783203125,        0.0117187500,       -0.0395507812,      -23.4527587891,       -4.1961669922,      -97.8240966797
1494295155.3444399834,       -0.2783203125,        0.0117187500,       -0.0395507812,      -23.4527587891,       -4.1961669922,      -97.8240966797
1494295155.3471379280,       -0.2783203125,       -0.1132812500,       -0.0522460938,      -24.2614746094,       -2.6550292969,     -107.8338623047
1494295155.3498339653,       -0.2924804688,       -0.0195312500,       -0.0522460938,      -24.2614746094,       -2.6550292969,     -107.8338623047
1494295155.3525691032,       -0.2924804688,       -0.0195312500,       -0.0522460938,      -24.5819091797,       -1.1291503906,     -117.7520751953
1494295155.3552639484,       -0.2924804688,       -0.0195312500,       -0.0522460938,      -24.5819091797,       -1.1291503906,     -117.7520751953
1494295155.3579680920,       -0.3344726562,       -0.0634765625,       -0.0488281250,      -25.6805419922,        0.3814697266,     -126.7852783203
1494295155.3606770039,       -0.3344726562,       -0.0634765625,       -0.0488281250,      -25.6805419922,        0.3814697266,     -126.7852783203
1494295155.3632349968,       -0.3344726562,       -0.0634765625,       -0.0488281250,      -25.6805419922,        2.2735595703,     -136.0168457031
1494295155.3657879829,       -0.3344726562,       -0.0634765625,       -0.0488281250,      -26.8402099609,        2.2735595703,     -136.0168457031
1494295155.3683400154,       -0.3706054688,       -0.0590820312,       -0.0522460938,      -26.8402099609,        2.2735595703,     -145.1416015625
1494295155.3709650040,       -0.3706054688,       -0.0590820312,       -0.0522460938,      -28.3050537109,        3.4637451172,     -145.1416015625
1494295155.3736510277,       -0.3706054688,       -0.0590820312,       -0.0522460938,      -28.3050537109,        3.4637451172,     -152.8320312500
1494295155.3763461113,       -0.3706054688,       -0.0590820312,       -0.0522460938,      -30.2276611328,        4.9438476562,     -152.8320312500
1494295155.3790318966,       -0.4165039062,       -0.0278320312,       -0.0244140625,      -30.2276611328,        4.9438476562,     -160.2478027344
1494295155.3817620277,       -0.4165039062,       -0.0278320312,       -0.0244140625,      -32.5317382812,        6.1492919922,     -160.2478027344
1494295155.3844490051,       -0.4165039062,       -0.0278320312,       -0.0244140625,      -32.5317382812,        6.1492919922,     -167.2363281250
1494295155.3872029781,       -0.4165039062,       -0.0278320312,        0.0312500000,      -35.7818603516,        6.3476562500,     -167.2363281250
1494295155.3899190426,       -0.4560546875,        0.0063476562,        0.0312500000,      -35.7818603516,        6.3476562500,     -174.2248535156
1494295155.3927230835,       -0.4560546875,        0.0063476562,        0.0312500000,      -38.2080078125,        5.7067871094,     -174.2248535156
1494295155.3953909874,       -0.4560546875,        0.0063476562,        0.0312500000,      -38.2080078125,        5.7067871094,     -181.1828613281
1494295155.3982989788,       -0.5043945312,        0.0385742188,        0.0541992188,      -41.9921875000,        4.8065185547,     -181.1828613281
1494295155.4011209011,       -0.5043945312,        0.0385742188,        0.0541992188,      -41.9921875000,        0.9002685547,     -187.3168945312
1494295155.4038240910,       -0.5043945312,        0.0385742188,        0.0541992188,      -46.7376708984,        3.7689208984,     -187.3168945312
1494295155.4065279961,       -0.5043945312,        0.0385742188,        0.0541992188,      -46.7376708984,        3.7689208984,     -193.2525634766
1494295155.4092299938,       -0.5732421875,        0.0722656250,        0.0532226562,      -50.4913330078,        3.0517578125,     -193.2525634766
1494295155.4119720459,       -0.5732421875,        0.0722656250,        0.0532226562,      -50.4913330078,        3.0517578125,     -199.3408203125
1494295155.4146690369,       -0.5732421875,        0.0722656250,        0.0532226562,      -52.9327392578,        1.9836425781,     -199.3408203125
1494295155.4173629284,       -0.5732421875,        0.0722656250,        0.0532226562,      -52.9327392578,        1.9836425781,     -204.7729492188
1494295155.4200611115,       -0.6513671875,        0.1118164062,        0.0502929688,      -53.4820556641,        1.6784667969,     -204.7729492188
1494295155.4226651192,       -0.6513671875,        0.1118164062,        0.0502929688,      -53.4820556641,        1.6784667969,     -209.5642089844
1494295155.4252231121,       -0.6513671875,        0.1118164062,        0.0502929688,      -52.7954101562,        1.9226074219,     -209.5642089844
1494295155.4277839661,       -0.6513671875,        0.1118164062,        0.0493164062,      -52.7954101562,        1.9226074219,     -213.4704589844
1494295155.4303450584,       -0.7329101562,        0.1596679688,        0.0493164062,      -49.7436523438,        3.1280517578,     -213.5772705078
1494295155.4329199791,       -0.7329101562,        0.1596679688,        0.0493164062,      -49.7436523438,        3.1280517578,     -213.5772705078
1494295155.4354801178,       -0.7329101562,        0.1596679688,        0.0493164062,      -44.0216064453,        5.0964355469,     -216.8273925781
1494295155.4380381107,       -0.7329101562,        0.1596679688,        0.0737304688,      -44.0216064453,        5.0964355469,     -216.8273925781
1494295155.4405910969,       -0.8061523438,        0.2006835938,        0.0737304688,      -37.7655029297,        7.8125000000,     -219.8791503906
1494295155.4432749748,       -0.8061523438,        0.2006835938,        0.0737304688,      -37.7655029297,        7.8125000000,     -219.8791503906
1494295155.4458339214,       -0.8061523438,        0.2006835938,        0.0737304688,      -33.7371826172,       11.0626220703,     -222.4273681641
1494295155.4483981133,       -0.8061523438,        0.2563476562,        0.1015625000,      -33.7371826172,       11.0626220703,     -222.4273681641
1494295155.4510869980,       -0.8535156250,        0.2563476562,        0.1015625000,      -31.4483642578,       12.7716064453,     -225.9979248047
1494295155.4536509514,       -0.8535156250,        0.2563476562,        0.1015625000,      -31.4483642578,       12.7716064453,     -225.9979248047
1494295155.4562160969,       -0.8535156250,        0.2563476562,        0.1015625000,      -29.8767089844,       13.7634277344,     -230.2398681641
1494295155.4587728977,       -0.8989257812,        0.2592773438,        0.1503906250,      -29.8767089844,       13.7634277344,     -230.2398681641
1494295155.4614000320,       -0.8989257812,        0.2592773438,        0.1503906250,      -27.8472900391,       14.7857666016,     -234.4512939453
1494295155.4640998840,       -0.8989257812,        0.2592773438,        0.1503906250,      -27.8472900391,       14.7857666016,     -234.4512939453
1494295155.4667971134,       -0.8989257812,        0.2592773438,        0.1503906250,      -23.9410400391,       15.7775878906,     -238.1744384766
1494295155.4694919586,       -0.9331054688,        0.2524414062,        0.1499023438,      -25.9246826172,       15.7775878906,     -238.1744384766
1494295155.4723119736,       -0.9331054688,        0.2524414062,        0.1499023438,      -24.0783691406,       16.5252685547,     -241.6229248047
1494295155.4750120640,       -0.9331054688,        0.2524414062,        0.1499023438,      -24.0783691406,       16.5252685547,     -241.6229248047
1494295155.4777119160,       -0.9331054688,        0.2524414062,        0.1499023438,      -21.4080810547,       16.9219970703,     -244.4610595703
1494295155.4804110527,       -0.9755859375,        0.2480468750,        0.1464843750,      -21.4080810547,       16.9219970703,     -244.4610595703
1494295155.4830369949,       -0.9755859375,        0.2480468750,        0.1464843750,      -17.5018310547,       17.4102783203,     -246.2463378906
1494295155.4855980873,       -0.9755859375,        0.2480468750,        0.1464843750,      -19.2413330078,       17.4102783203,     -246.2463378906
1494295155.4881598949,       -0.9755859375,        0.2480468750,        0.1596679688,      -19.2413330078,       17.4102783203,     -247.3449707031
1494295155.4907150269,       -1.0053710938,        0.2670898438,        0.1596679688,      -18.0053710938,       17.8985595703,     -247.3449707031
1494295155.4934129715,       -1.0053710938,        0.2670898438,        0.1596679688,      -18.0053710938,       17.8985595703,     -247.6501464844
1494295155.4961090088,       -1.0053710938,        0.2670898438,        0.1596679688,      -17.1813964844,       17.3492431641,     -247.6501464844
1494295155.4987990856,       -1.0053710938,        0.2875976562,        0.1665039062,      -17.1813964844,       17.3492431641,     -247.5738525391
1494295155.5014998913,       -1.0029296875,        0.2875976562,        0.1665039062,      -17.3034667969,       16.1437988281,     -247.5738525391
1494295155.5040540695,       -1.0029296875,        0.2875976562,        0.1665039062,      -17.3034667969,       16.1437988281,     -247.5738525391
1494295155.5066061020,       -1.0029296875,        0.2875976562,        0.1665039062,      -18.7835693359,       14.7399902344,     -247.4365234375
1494295155.5093080997,       -1.0322265625,        0.2861328125,        0.1728515625,      -18.7835693359,       14.7399902344,     -247.4670410156
1494295155.5123579502,       -1.0322265625,        0.2861328125,        0.1728515625,      -21.3317871094,       13.0462646484,     -247.4670410156
1494295155.5150549412,       -1.0322265625,        0.2861328125,        0.1728515625,      -21.3317871094,       13.0462646484,     -247.4212646484
1494295155.5177578926,       -1.0322265625,        0.2861328125,        0.1728515625,      -24.6734619141,       11.2304687500,     -247.4212646484
1494295155.5204598904,       -1.0610351562,        0.2744140625,        0.1660156250,      -24.6734619141,       11.2304687500,     -247.2076416016
1494295155.5231709480,       -1.0610351562,        0.2744140625,        0.1660156250,      -27.8320312500,        9.1247558594,     -247.2076416016
1494295155.5258710384,       -1.0610351562,        0.2744140625,        0.1660156250,      -27.8320312500,        9.1247558594,     -247.1313476562
1494295155.5285658836,       -1.0610351562,        0.2744140625,        0.1499023438,      -30.7464599609,        7.1105957031,     -247.1313476562
1494295155.5312669277,       -1.0839843750,        0.2626953125,        0.1499023438,      -30.7464599609,        7.1105957031,     -247.1313476562
1494295155.5339651108,       -1.0839843750,        0.2626953125,        0.1499023438,      -32.3791503906,        5.4016113281,     -246.8414306641
1494295155.5366609097,       -1.0839843750,        0.2626953125,        0.1499023438,      -32.3791503906,        5.4016113281,     -246.8414306641
1494295155.5393550396,       -1.0839843750,        0.2597656250,        0.1459960938,      -33.0505371094,        3.9672851562,     -246.9635009766
1494295155.5420050621,       -1.1005859375,        0.2597656250,        0.1459960938,      -33.0505371094,        3.9672851562,     -246.9635009766
1494295155.5445640087,       -1.1005859375,        0.2597656250,        0.1459960938,      -33.2946777344,        2.5177001953,     -246.0937500000
1494295155.5472350121,       -1.1005859375,        0.2597656250,        0.1459960938,      -33.2946777344,        2.5177001953,     -246.0937500000
1494295155.5497949123,       -1.0966796875,        0.2490234375,        0.1313476562,      -33.8592529297,        1.3885498047,     -244.5678710938
1494295155.5523569584,       -1.0966796875,        0.2490234375,        0.1313476562,      -33.8592529297,        1.3885498047,     -244.5678710938
1494295155.5549190044,       -1.0966796875,        0.2490234375,        0.1313476562,      -34.9121093750,        0.5187988281,     -242.5231933594
1494295155.5574738979,       -1.0966796875,        0.2490234375,        0.1313476562,      -34.9121093750,        0.5187988281,     -242.5231933594
1494295155.5600318909,       -1.1225585938,        0.2539062500,        0.1376953125,      -35.7360839844,       -0.9613037109,     -239.7766113281
1494295155.5626471043,       -1.1225585938,        0.2539062500,        0.1376953125,      -35.7360839844,       -0.9613037109,     -239.7766113281
1494295155.5652039051,       -1.1225585938,        0.2539062500,        0.1376953125,      -36.8804931641,       -1.9226074219,     -236.8011474609
1494295155.5677640438,       -1.1225585938,        0.2539062500,        0.1376953125,      -36.8804931641,       -1.9226074219,     -236.8011474609
1494295155.5703160763,       -1.1367187500,        0.2753906250,        0.1494140625,      -37.8875732422,       -2.7160644531,     -233.2916259766
1494295155.5730969906,       -1.1367187500,        0.2753906250,        0.1494140625,      -37.8875732422,       -2.7160644531,     -233.2916259766
1494295155.5757861137,       -1.1367187500,        0.2753906250,        0.1494140625,      -37.9180908203,       -2.9449462891,     -229.8431396484
1494295155.5784780979,       -1.1367187500,        0.2753906250,        0.1494140625,      -37.9180908203,       -2.9449462891,     -229.8431396484
1494295155.5811789036,       -1.1586914062,        0.2905273438,        0.1503906250,      -36.6363525391,       -3.0059814453,     -225.6622314453
1494295155.5838689804,       -1.1586914062,        0.2905273438,        0.1503906250,      -36.6363525391,       -3.0059814453,     -225.6622314453
1494295155.5865640640,       -1.1586914062,        0.2905273438,        0.1503906250,      -36.6363525391,       -2.5329589844,     -221.6186523438
1494295155.5892601013,       -1.1586914062,        0.2905273438,        0.1411132812,      -35.4919433594,       -2.5329589844,     -221.6186523438
1494295155.5919640064,       -1.1767578125,        0.3056640625,        0.1411132812,      -31.5856933594,       -1.1138916016,     -217.2698974609
1494295155.5946540833,       -1.1767578125,        0.3056640625,        0.1411132812,      -34.2254638672,       -1.1138916016,     -217.2698974609
1494295155.5973489285,       -1.1767578125,        0.3056640625,        0.1411132812,      -34.2254638672,       -0.0457763672,     -213.1347656250
1494295155.6000430584,       -1.1464843750,        0.3212890625,        0.1225585938,      -31.9671630859,       -0.0457763672,     -213.1347656250
1494295155.6026759148,       -1.1464843750,        0.3212890625,        0.1225585938,      -31.9671630859,        1.2054443359,     -208.4960937500
1494295155.6052238941,       -1.1464843750,        0.3212890625,        0.1225585938,      -28.8696289062,        1.2054443359,     -208.4960937500
1494295155.6077740192,       -1.1464843750,        0.3212890625,        0.1225585938,      -28.8696289062,        1.2054443359,     -202.7893066406
1494295155.6103260517,       -1.0795898438,        0.3691406250,        0.1455078125,      -25.3753662109,        2.4719238281,     -202.7893066406
1494295155.6130080223,       -1.0795898438,        0.3691406250,        0.1455078125,      -25.3753662109,        2.4719238281,     -195.9991455078
1494295155.6156969070,       -1.0795898438,        0.3691406250,        0.1455078125,      -21.1486816406,        2.9296875000,     -195.9991455078
1494295155.6183869839,       -1.0795898438,        0.3691406250,        0.1455078125,      -21.1486816406,        2.9296875000,     -187.5000000000
1494295155.6211979389,       -0.9912109375,        0.3735351562,        0.1811523438,      -17.4713134766,        2.8533935547,     -187.5000000000
1494295155.6238939762,       -0.9912109375,        0.3735351562,        0.1811523438,      -17.4713134766,        2.8533935547,     -177.3681640625
1494295155.6265890598,       -0.9912109375,        0.3735351562,        0.1811523438,      -15.7165527344,        0.8850097656,     -177.3681640625
1494295155.6294860840,       -0.9912109375,        0.3735351562,        0.1982421875,      -15.7165527344,        0.8850097656,     -166.7633056641
1494295155.6323618889,       -0.9086914062,        0.3764648438,        0.1982421875,      -15.3045654297,       -2.3345947266,     -166.7633056641
1494295155.6350629330,       -0.9086914062,        0.3764648438,        0.1982421875,      -15.3045654297,       -6.2408447266,     -156.0516357422
1494295155.6377530098,       -0.9086914062,        0.3764648438,        0.1982421875,      -16.0522460938,       -7.2784423828,     -156.0516357422
1494295155.6404490471,       -0.8564453125,        0.4624023438,        0.1806640625,      -16.0522460938,      -15.0909423828,     -144.7753906250
1494295155.6431889534,       -0.8564453125,        0.4624023438,        0.1806640625,      -17.1966552734,      -12.4359130859,     -144.7753906250
1494295155.6458909512,       -0.8564453125,        0.4624023438,        0.1806640625,      -17.1966552734,      -12.4359130859,     -132.8887939453
1494295155.6485879421,       -0.8564453125,        0.4624023438,        0.1806640625,      -15.9301757812,      -17.3645019531,     -132.8887939453
1494295155.6512639523,       -0.8369140625,        0.5585937500,        0.1362304688,      -15.9301757812,      -17.3645019531,     -120.8953857422
1494295155.6538269520,       -0.8369140625,        0.5585937500,        0.1362304688,      -12.6190185547,      -21.5301513672,     -120.8953857422
1494295155.6563849449,       -0.8369140625,        0.5585937500,        0.1362304688,      -12.6190185547,      -21.5301513672,     -120.8953857422
1494295155.6589450836,       -0.8369140625,        0.5585937500,        0.1362304688,       -8.5296630859,      -23.4680175781,     -108.3374023438
1494295155.6615469456,       -0.8369140625,        0.5761718750,        0.1040039062,       -8.5296630859,      -23.4680175781,     -108.3374023438
1494295155.6641070843,       -0.8369140625,        0.5761718750,        0.1040039062,       -3.8146972656,      -23.6663818359,      -94.9554443359
1494295155.6666629314,       -0.8369140625,        0.5761718750,        0.1040039062,       -3.8146972656,      -23.6663818359,      -94.9554443359
1494295155.6692190170,       -0.8369140625,        0.5761718750,        0.1040039062,        1.0986328125,      -22.3693847656,      -80.8105468750
1494295155.6717829704,       -0.8090820312,        0.5795898438,        0.0874023438,        1.0986328125,      -22.3693847656,      -80.8105468750
1494295155.6743409634,       -0.8090820312,        0.5795898438,        0.0874023438,        5.7983398438,      -21.0266113281,      -65.7653808594
1494295155.6768960953,       -0.8090820312,        0.5795898438,        0.0874023438,        5.7983398438,      -21.0266113281,      -65.7653808594
1494295155.6794469357,       -0.8090820312,        0.5795898438,        0.0874023438,        9.7961425781,      -20.6298828125,      -50.9490966797
1494295155.6821410656,       -0.7519531250,        0.5737304688,        0.0766601562,        9.7961425781,      -20.6298828125,      -50.9490966797
1494295155.6847050190,       -0.7519531250,        0.5737304688,        0.0766601562,       12.1459960938,      -20.7519531250,      -36.2854003906
1494295155.6872649193,       -0.7519531250,        0.5737304688,        0.0766601562,       12.1459960938,      -20.7519531250,      -36.2854003906
1494295155.6898190975,       -0.7519531250,        0.5737304688,        0.0595703125,       12.1459960938,      -21.2249755859,      -20.8282470703
1494295155.6926820278,       -0.7182617188,        0.5576171875,        0.0595703125,       12.6647949219,      -21.2249755859,      -20.8282470703
1494295155.6953849792,       -0.7182617188,        0.5576171875,        0.0595703125,        8.7585449219,      -21.9573974609,       -5.4168701172
1494295155.6980769634,       -0.7182617188,        0.5576171875,        0.0595703125,       10.5743408203,      -21.9573974609,       -5.4168701172
1494295155.7007799149,       -0.7075195312,        0.5043945312,        0.0268554688,        6.6680908203,      -23.5900878906,        8.9263916016
1494295155.7033350468,       -0.7075195312,        0.5043945312,        0.0268554688,        5.9051513672,      -23.5900878906,        8.9263916016
1494295155.7058880329,       -0.7075195312,        0.5043945312,        0.0268554688,        5.9051513672,      -23.5900878906,       23.9105224609
1494295155.7084441185,       -0.7075195312,        0.5043945312,        0.0268554688,       -0.6713867188,      -24.5513916016,       23.9105224609
1494295155.7110340595,       -0.7060546875,        0.4594726562,        0.0170898438,       -0.6713867188,      -24.5513916016,       37.7197265625
1494295155.7137351036,       -0.7060546875,        0.4594726562,        0.0170898438,       -7.9803466797,      -25.5279541016,       37.7197265625
1494295155.7164340019,       -0.7060546875,        0.4594726562,        0.0170898438,       -7.9803466797,      -25.5279541016,       50.7965087891
1494295155.7191329002,       -0.7060546875,        0.4594726562,        0.0170898438,      -17.3492431641,      -26.2451171875,       50.7965087891
1494295155.7217979431,       -0.7124023438,        0.4521484375,        0.0019531250,      -17.3492431641,      -26.2451171875,       62.5152587891
1494295155.7243559361,       -0.7124023438,        0.4521484375,        0.0019531250,      -26.9317626953,      -27.2521972656,       63.5070800781
1494295155.7269148827,       -0.7124023438,        0.4521484375,        0.0019531250,      -26.9317626953,      -27.2521972656,       63.5070800781
1494295155.7294800282,       -0.7124023438,        0.4521484375,        0.0019531250,      -35.4156494141,      -28.0914306641,       75.1190185547
1494295155.7321910858,       -0.7260742188,        0.4516601562,       -0.0092773438,      -35.4156494141,      -28.0914306641,       75.1190185547
1494295155.7348940372,       -0.7260742188,        0.4516601562,       -0.0092773438,      -43.0755615234,      -29.5715332031,       85.4492187500
1494295155.7375969887,       -0.7260742188,        0.4516601562,       -0.0092773438,      -43.0755615234,      -29.5715332031,       85.4492187500
1494295155.7402920723,       -0.7260742188,        0.4516601562,       -0.0048828125,      -48.7670898438,      -30.5480957031,       94.6044921875
1494295155.7430090904,       -0.7387695312,        0.4643554688,       -0.0048828125,      -48.7670898438,      -30.5480957031,       94.6044921875
1494295155.7457060814,       -0.7387695312,        0.4643554688,       -0.0048828125,      -52.7954101562,      -31.2805175781,      102.5085449219
1494295155.7485799789,       -0.7387695312,        0.4643554688,       -0.0048828125,      -52.7954101562,      -31.2805175781,      106.4147949219
1494295155.7515521049,       -0.7607421875,        0.2900390625,        0.0546875000,      -58.1970214844,      -32.9742431641,      108.0627441406
1494295155.7541129589,       -0.7607421875,        0.2900390625,        0.0546875000,      -58.1970214844,      -32.9742431641,      108.0627441406
1494295155.7566709518,       -0.7607421875,        0.2900390625,        0.0546875000,      -61.3861083984,      -34.2407226562,      108.1695556641
1494295155.7592279911,       -0.7607421875,        0.2900390625,        0.0546875000,      -61.3861083984,      -34.2407226562,      108.1695556641
1494295155.7618598938,       -0.8916015625,       -0.1040039062,       -0.2456054688,      -56.1218261719,      -26.2756347656,      108.2611083984
1494295155.7645668983,       -0.8916015625,       -0.1040039062,       -0.2456054688,      -56.1218261719,      -26.2756347656,      108.2611083984
1494295155.7673790455,       -0.8916015625,       -0.1040039062,       -0.2456054688,      -69.9768066406,      -16.4794921875,      107.6812744141
1494295155.7700839043,       -0.8916015625,       -0.1040039062,       -0.2456054688,      -69.9768066406,      -16.4794921875,      107.6812744141
1494295155.7727971077,       -0.8588867188,       -1.1030273438,       -0.0644531250,      -98.8159179688,      -12.9699707031,       94.3603515625
1494295155.7754969597,       -0.8588867188,       -1.1030273438,       -0.0644531250,      -98.8159179688,      -12.9699707031,       94.3603515625
1494295155.7781939507,       -0.8588867188,       -1.1030273438,       -0.0644531250,     -103.6529541016,       -5.9051513672,       67.2912597656
1494295155.7809209824,       -0.8588867188,       -2.1030273438,       -0.2714843750,     -103.6529541016,       -5.9051513672,       67.2912597656
1494295155.7834870815,       -0.8896484375,       -2.0424804688,       -0.2714843750,      -92.2546386719,        1.2969970703,       39.5355224609
1494295155.7860410213,       -0.8896484375,       -2.0424804688,       -0.2714843750,      -92.2546386719,        1.2969970703,       39.5355224609
1494295155.7885930538,       -0.8896484375,       -2.0424804688,       -0.2714843750,      -98.6785888672,        2.3498535156,       28.4118652344
1494295155.7911820412,       -0.8896484375,       -1.1523437500,       -0.3261718750,      -98.6785888672,        2.3498535156,       28.4118652344
1494295155.7937359810,       -1.0380859375,       -1.1523437500,       -0.3261718750,     -126.2207031250,        0.1220703125,       42.3736572266
1494295155.7962899208,       -1.0380859375,       -1.1523437500,       -0.3261718750,     -126.2207031250,        0.1220703125,       42.3736572266
1494295155.7988469601,       -1.0380859375,       -1.1523437500,       -0.3261718750,     -169.1894531250,      -11.7034912109,       69.4732666016
1494295155.8015069962,       -0.9130859375,        0.3247070312,        0.0532226562,     -170.9136962891,      -11.7034912109,       69.4732666016
1494295155.8040750027,       -0.9980468750,        0.3247070312,        0.0532226562,     -170.9136962891,      -28.0609130859,       94.0551757812
1494295155.8066380024,       -0.9980468750,        0.3247070312,        0.0532226562,     -210.8917236328,      -28.0609130859,       94.0551757812
1494295155.8091979027,       -0.9980468750,        0.3247070312,        0.0532226562,     -210.8917236328,      -39.7796630859,      110.3668212891
1494295155.8119120598,       -1.0058593750,        1.0053710938,        0.2128906250,     -220.6115722656,      -41.9769287109,      110.3668212891
1494295155.8146119118,       -1.0058593750,        1.0053710938,        0.2128906250,     -220.6115722656,      -41.9769287109,      117.7215576172
1494295155.8173100948,       -1.0058593750,        1.0053710938,        0.2128906250,     -197.8454589844,      -47.2412109375,      117.7215576172
1494295155.8200080395,       -1.0058593750,        1.0053710938,        0.2128906250,     -197.8454589844,      -47.2412109375,      116.3940429688
1494295155.8227550983,       -1.1118164062,        0.7309570312,       -0.2187500000,     -148.9715576172,      -40.4052734375,      116.3940429688
1494295155.8254520893,       -1.1118164062,        0.7309570312,       -0.2187500000,     -148.9715576172,      -40.4052734375,      110.4278564453
1494295155.8281500340,       -1.1118164062,        0.7309570312,       -0.2187500000,      -91.2933349609,      -29.1442871094,      110.4278564453
1494295155.8309009075,       -1.1118164062,        0.7309570312,       -0.3437500000,      -91.2933349609,      -29.1442871094,      104.4158935547
1494295155.8336050510,       -1.0629882812,        0.4169921875,       -0.3027343750,      -50.3845214844,      -22.8118896484,      104.4158935547
1494295155.8363060951,       -1.0629882812,        0.4169921875,       -0.3027343750,      -50.3845214844,      -22.8118896484,      100.2655029297
1494295155.8390069008,       -1.0629882812,        0.4169921875,       -0.3027343750,      -31.7535400391,      -21.8811035156,      100.2655029297
1494295155.8418030739,       -0.9379882812,        0.3193359375,       -0.0722656250,      -31.7535400391,      -21.8811035156,       96.7407226562
1494295155.8443698883,       -0.8754882812,        0.3193359375,       -0.0722656250,      -23.1781005859,      -21.6522216797,       96.7407226562
1494295155.8469290733,       -0.8754882812,        0.3193359375,       -0.0722656250,      -23.1781005859,      -21.6522216797,       96.7407226562
1494295155.8494861126,       -0.8754882812,        0.3193359375,       -0.0722656250,      -20.1416015625,      -20.7824707031,       94.1772460938
1494295155.8521819115,       -0.7631835938,        0.0664062500,        0.0771484375,      -20.1416015625,      -20.7824707031,       94.1772460938
1494295155.8548738956,       -0.7631835938,        0.0664062500,        0.0771484375,      -23.0865478516,      -20.2331542969,       91.3391113281
1494295155.8575620651,       -0.7631835938,        0.0664062500,        0.0771484375,      -23.0865478516,      -20.2331542969,       91.3391113281
1494295155.8602530956,       -0.7631835938,        0.0664062500,        0.0771484375,      -31.1584472656,      -20.9197998047,       88.6993408203
1494295155.8629701138,       -0.6762695312,       -0.0512695312,        0.1767578125,      -31.1584472656,      -20.9197998047,       88.6993408203
1494295155.8656730652,       -0.6762695312,       -0.0512695312,        0.1767578125,      -41.0614013672,      -23.0865478516,       86.1663818359
1494295155.8685560226,       -0.6762695312,       -0.0512695312,        0.1767578125,      -41.0614013672,      -23.0865478516,       86.1663818359
1494295155.8716349602,       -0.6762695312,        0.0737304688,        0.1840820312,      -46.4477539062,      -25.6347656250,       83.6791992188
1494295155.8743400574,       -0.6210937500,        0.0434570312,        0.1840820312,      -46.4477539062,      -25.6347656250,       80.7800292969
1494295155.8770439625,       -0.6210937500,        0.0434570312,        0.1840820312,      -44.7998046875,      -28.3050537109,       80.7800292969
1494295155.8797430992,       -0.6210937500,        0.0434570312,        0.1840820312,      -44.7998046875,      -28.3050537109,       77.4078369141
1494295155.8824520111,       -0.6362304688,        0.1787109375,        0.2080078125,      -37.1246337891,      -30.2734375000,       77.4078369141
1494295155.8851480484,       -0.6362304688,        0.1787109375,        0.2080078125,      -37.1246337891,      -30.2734375000,       73.1964111328
1494295155.8878500462,       -0.6362304688,        0.1787109375,        0.2080078125,      -26.8707275391,      -30.6243896484,       73.1964111328
1494295155.8905489445,       -0.6362304688,        0.1787109375,        0.2080078125,      -26.8707275391,      -30.6243896484,       69.1680908203
1494295155.8932600021,       -0.7050781250,        0.1987304688,        0.2563476562,      -15.7165527344,      -30.1055908203,       69.1680908203
1494295155.8959639072,       -0.7050781250,        0.1987304688,        0.2563476562,      -15.7165527344,      -30.1055908203,       65.2618408203
1494295155.8986630440,       -0.7050781250,        0.1987304688,        0.2563476562,       -6.1798095703,      -29.5562744141,       65.7043457031
1494295155.9013500214,       -0.7050781250,        0.1987304688,        0.1313476562,       -6.1798095703,      -29.5562744141,       65.7043457031
1494295155.9039039612,       -0.7709960938,        0.1528320312,        0.2392578125,        1.8768310547,      -28.1372070312,       63.3087158203
1494295155.9064619541,       -0.7709960938,        0.1528320312,        0.2392578125,        1.8768310547,      -28.1372070312,       63.3087158203
1494295155.9090158939,       -0.7709960938,        0.1528320312,        0.2392578125,       11.0168457031,      -25.8483886719,       60.6536865234
1494295155.9115900993,       -0.7709960938,        0.1528320312,        0.2392578125,       11.0168457031,      -25.8483886719,       60.6536865234
1494295155.9142560959,       -0.8164062500,        0.1547851562,        0.1875000000,       17.5323486328,      -23.5748291016,       58.9141845703
1494295155.9168190956,       -0.8164062500,        0.1547851562,        0.1875000000,       17.5323486328,      -23.5748291016,       58.9141845703
1494295155.9193749428,       -0.8164062500,        0.1547851562,        0.1875000000,       20.3857421875,      -21.3928222656,       58.2580566406
1494295155.9220650196,       -0.8164062500,        0.1547851562,        0.0874023438,       20.3857421875,      -21.3928222656,       58.2580566406
1494295155.9246249199,       -0.8583984375,        0.1630859375,        0.0874023438,       25.3448486328,      -18.7835693359,       57.8460693359
1494295155.9271860123,       -0.8583984375,        0.1630859375,        0.0874023438,       25.3448486328,      -18.7835693359,       57.8460693359
1494295155.9297409058,       -0.8583984375,        0.1630859375,        0.0874023438,       32.3638916016,      -14.6484375000,       56.7169189453
1494295155.9325149059,       -0.8583984375,        0.1113281250,        0.0073242188,       32.3638916016,      -14.6484375000,       56.7169189453
1494295155.9352190495,       -0.8632812500,        0.1113281250,        0.0073242188,       34.6679687500,      -10.4522705078,       54.3518066406
1494295155.9379210472,       -0.8632812500,        0.1113281250,        0.0073242188,       34.6679687500,      -10.4522705078,       54.3518066406
1494295155.9406239986,       -0.8632812500,        0.1113281250,        0.0073242188,       32.6843261719,       -7.6751708984,       51.1627197266
1494295155.9433650970,       -0.7529296875,        0.0224609375,        0.0219726562,       32.6843261719,       -7.6751708984,       51.1627197266
1494295155.9460589886,       -0.7529296875,        0.0224609375,        0.0219726562,       30.7769775391,       -6.1187744141,       48.5992431641
1494295155.9487531185,       -0.7529296875,        0.0224609375,        0.0219726562,       30.7769775391,       -6.1187744141,       48.5992431641
1494295155.9514319897,       -0.7529296875,        0.0224609375,        0.0219726562,       29.2053222656,       -5.6304931641,       47.6226806641
1494295155.9539909363,       -0.7368164062,        0.0346679688,        0.0253906250,       29.2053222656,       -5.6304931641,       47.6226806641
1494295155.9565460682,       -0.7368164062,        0.0346679688,        0.0253906250,       29.2053222656,       -5.9814453125,       47.1649169922
1494295155.9590990543,       -0.7368164062,        0.0346679688,        0.0253906250,       26.1688232422,       -5.9814453125,       47.1649169922
1494295155.9617600441,       -0.7368164062,        0.0346679688,        0.0253906250,       26.1688232422,       -5.9814453125,       46.0357666016
1494295155.9644560814,       -0.7602539062,        0.0244140625,        0.0273437500,       22.2320556641,       -6.1492919922,       46.0357666016
1494295155.9671530724,       -0.7602539062,        0.0244140625,        0.0273437500,       22.2320556641,       -6.1492919922,       44.6166992188
1494295155.9698491096,       -0.7602539062,        0.0244140625,        0.0273437500,       18.3105468750,       -5.7830810547,       44.6166992188
1494295155.9725549221,       -0.7602539062,        0.0195312500,        0.0400390625,       18.3105468750,       -5.7830810547,       42.9229736328
1494295155.9752500057,       -0.7309570312,        0.0195312500,        0.0400390625,       14.6026611328,       -6.6528320312,       42.9229736328
1494295155.9779479504,       -0.7309570312,        0.0195312500,        0.0400390625,       14.6026611328,      -10.5590820312,       41.2445068359
1494295155.9806609154,       -0.7309570312,        0.0195312500,        0.0400390625,       11.9476318359,       -9.0637207031,       41.2445068359
1494295155.9833579063,       -0.7133789062,        0.0185546875,        0.0556640625,       11.9476318359,       -9.0637207031,       39.9322509766
1494295155.9860529900,       -0.7133789062,        0.0185546875,        0.0556640625,       10.3912353516,      -12.3596191406,       39.9322509766
1494295155.9889450073,       -0.7133789062,        0.0185546875,        0.0556640625,       10.3912353516,      -12.3596191406,       38.3758544922
1494295155.9920079708,       -0.7133789062,        0.0185546875,        0.0556640625,       10.0860595703,      -13.5345458984,       38.3758544922
1494295155.9945709705,       -0.7294921875,        0.0146484375,        0.0644531250,       10.0860595703,      -13.5498046875,       37.0483398438
1494295155.9971289635,       -0.7294921875,        0.0146484375,        0.0644531250,       11.2457275391,      -13.5498046875,       37.0483398438
1494295155.9996850491,       -0.7294921875,        0.0146484375,        0.0644531250,       11.2457275391,      -13.5498046875,       35.8734130859
1494295156.0023820400,       -0.7294921875,        0.0146484375,        0.0800781250,       13.0310058594,      -13.0004882812,       35.8734130859
1494295156.0050840378,       -0.7338867188,        0.0424804688,        0.0800781250,       13.0310058594,      -13.0004882812,       34.3322753906
1494295156.0077860355,       -0.7338867188,        0.0424804688,        0.0800781250,       15.8843994141,      -12.3596191406,       34.3322753906
1494295156.0104849339,       -0.7338867188,        0.0424804688,        0.0800781250,       15.8843994141,      -12.3596191406,       32.2570800781
1494295156.0131940842,       -0.7338867188,        0.0454101562,        0.0844726562,       19.3328857422,      -10.3302001953,       32.2570800781
1494295156.0158929825,       -0.7324218750,        0.0454101562,        0.0844726562,       19.3328857422,      -10.3302001953,       30.0903320312
1494295156.0185880661,       -0.7324218750,        0.0454101562,        0.0844726562,       24.3835449219,       -8.3618164062,       30.0903320312
1494295156.0212590694,       -0.7324218750,        0.0454101562,        0.0844726562,       24.3835449219,       -8.3618164062,       30.0903320312
1494295156.0238189697,       -0.7407226562,        0.0917968750,        0.0922851562,       28.1372070312,       -6.3781738281,       28.3508300781
1494295156.0263810158,       -0.7407226562,        0.0917968750,        0.0922851562,       28.1372070312,       -6.3781738281,       28.3508300781
1494295156.0289409161,       -0.7407226562,        0.0917968750,        0.0922851562,       31.2805175781,       -5.0506591797,       27.1606445312
1494295156.0315420628,       -0.7407226562,        0.0917968750,        0.0922851562,       31.2805175781,       -5.0506591797,       27.1606445312
1494295156.0340979099,       -0.7480468750,        0.0590820312,        0.0849609375,       34.5306396484,       -3.4179687500,       26.2451171875
1494295156.0366530418,       -0.7480468750,        0.0590820312,        0.0849609375,       34.5306396484,       -3.4179687500,       26.2451171875
1494295156.0392119884,       -0.7480468750,        0.0590820312,        0.0849609375,       36.4990234375,       -1.0833740234,       25.3143310547
1494295156.0419139862,       -0.7480468750,        0.0590820312,        0.0849609375,       36.4990234375,       -1.0833740234,       25.3143310547
1494295156.0444738865,       -0.7382812500,        0.0039062500,        0.0834960938,       36.6821289062,       -0.1220703125,       24.5208740234
1494295156.0470380783,       -0.7382812500,        0.0039062500,        0.0834960938,       36.6821289062,       -0.1220703125,       24.5208740234
1494295156.0496020317,       -0.7382812500,        0.0039062500,        0.0834960938,       36.0260009766,        0.0762939453,       23.5900878906
1494295156.0523309708,       -0.7382812500,        0.0039062500,        0.0834960938,       36.0260009766,        0.0762939453,       23.5900878906
1494295156.0550279617,       -0.7128906250,        0.0014648438,        0.0942382812,       34.5611572266,       -0.7019042969,       23.3459472656
1494295156.0577270985,       -0.7128906250,        0.0014648438,        0.0942382812,       34.5611572266,       -0.7019042969,       23.3459472656
1494295156.0604250431,       -0.7128906250,        0.0014648438,        0.0942382812,       32.4554443359,       -1.1291503906,       23.3306884766
1494295156.0632770061,       -0.7128906250,       -0.1235351562,        0.0654296875,       32.4554443359,       -1.1291503906,       23.3306884766
1494295156.0659759045,       -0.7221679688,       -0.0112304688,        0.0654296875,       31.0821533203,       -1.0681152344,       22.9034423828
1494295156.0686750412,       -0.7221679688,       -0.0112304688,        0.0654296875,       31.0821533203,       -1.0681152344,       22.9034423828
1494295156.0713839531,       -0.7221679688,       -0.0112304688,        0.0654296875,       28.5949707031,       -0.9765625000,       22.7508544922
1494295156.0740749836,       -0.7250976562,       -0.0068359375,        0.0375976562,       28.5949707031,       -0.9765625000,       22.7508544922
1494295156.0767700672,       -0.7250976562,       -0.0068359375,        0.0375976562,       24.4750976562,       -1.5411376953,       22.8576660156
1494295156.0794661045,       -0.7250976562,       -0.0068359375,        0.0375976562,       24.4750976562,       -1.5411376953,       22.8576660156
1494295156.0821011066,       -0.7250976562,       -0.0068359375,        0.0375976562,       19.4396972656,       -2.4261474609,       23.1628417969
1494295156.0846560001,       -0.7382812500,       -0.0014648438,        0.0576171875,       19.4396972656,       -2.4261474609,       23.1628417969
1494295156.0872139931,       -0.7382812500,       -0.0014648438,        0.0576171875,       19.4396972656,       -2.9907226562,       24.1394042969
1494295156.0897700787,       -0.7382812500,       -0.0014648438,        0.0576171875,       15.7775878906,       -2.9907226562,       24.1394042969
1494295156.0924289227,       -0.7382812500,       -0.0014648438,        0.0576171875,       15.7775878906,       -2.9907226562,       24.8565673828
1494295156.0949900150,       -0.7465820312,       -0.0166015625,        0.0532226562,       14.0838623047,       -2.4108886719,       24.8565673828
1494295156.0975461006,       -0.7465820312,       -0.0166015625,        0.0532226562,       14.0838623047,       -2.4108886719,       25.8178710938
1494295156.1001060009,       -0.7465820312,       -0.0166015625,        0.0532226562,       13.1683349609,       -1.5869140625,       25.8178710938
1494295156.1028299332,       -0.7465820312,       -0.0166015625,        0.0532226562,       13.1683349609,       -1.5869140625,       25.8178710938
1494295156.1054871082,       -0.7358398438,       -0.0229492188,        0.0629882812,       12.1612548828,       -1.3427734375,       26.5502929688
1494295156.1083190441,       -0.7358398438,       -0.0229492188,        0.0629882812,       12.1612548828,       -1.3427734375,       27.7404785156
1494295156.1110959053,       -0.7358398438,       -0.0229492188,        0.0629882812,       10.9863281250,       -1.1291503906,       27.7404785156
1494295156.1138079166,       -0.7358398438,        0.0087890625,        0.1074218750,       10.9863281250,       -1.1291503906,       28.3203125000
1494295156.1165039539,       -0.7319335938,        0.0087890625,        0.1074218750,       10.4827880859,       -1.2207031250,       28.3203125000
1494295156.1192030907,       -0.7319335938,        0.0087890625,        0.1074218750,       10.4827880859,       -1.2207031250,       28.9916992188
1494295156.1219470501,       -0.7319335938,        0.0087890625,        0.1074218750,       10.6506347656,       -1.3885498047,       28.9916992188
1494295156.1246440411,       -0.7265625000,        0.0078125000,        0.1079101562,       10.6506347656,       -1.3885498047,       29.4799804688
1494295156.1273450851,       -0.7265625000,        0.0078125000,        0.1079101562,       11.4288330078,       -1.1749267578,       29.4799804688
1494295156.1300420761,       -0.7265625000,        0.0078125000,        0.1079101562,       11.4288330078,       -1.1749267578,       30.1666259766
1494295156.1327879429,       -0.7265625000,        0.0078125000,        0.1079101562,       12.5274658203,       -0.4882812500,       30.1666259766
1494295156.1355900764,       -0.7250976562,        0.0224609375,        0.0791015625,       12.5274658203,       -0.4882812500,       30.5175781250
1494295156.1382949352,       -0.7250976562,        0.0224609375,        0.0791015625,       12.1002197266,       -0.5950927734,       30.5175781250
1494295156.1410009861,       -0.7250976562,        0.0224609375,        0.0791015625,       12.1002197266,       -0.5950927734,       30.5175781250
1494295156.1435620785,       -0.7250976562,        0.0224609375,        0.0791015625,       11.0015869141,       -0.8850097656,       30.7159423828
1494295156.1461191177,       -0.7314453125,        0.0419921875,        0.0615234375,       11.0015869141,       -0.8850097656,       30.7159423828
1494295156.1486749649,       -0.7314453125,        0.0419921875,        0.0615234375,       10.6658935547,       -1.8615722656,       31.0363769531
1494295156.1512370110,       -0.7314453125,        0.0419921875,        0.0615234375,       10.6658935547,       -1.8615722656,       31.0363769531
1494295156.1537981033,       -0.7314453125,        0.0419921875,        0.0625000000,       10.1013183594,       -1.9989013672,       31.8908691406
1494295156.1563549042,       -0.7412109375,        0.0166015625,        0.0625000000,       10.1013183594,       -1.9989013672,       31.8908691406
1494295156.1589100361,       -0.7412109375,        0.0166015625,        0.0625000000,        9.0789794922,       -1.8157958984,       32.6232910156
1494295156.1616389751,       -0.7412109375,        0.0166015625,        0.0625000000,        9.0789794922,       -1.8157958984,       32.6232910156
1494295156.1641960144,       -0.7412109375,        0.0166015625,        0.0600585938,        6.8664550781,       -1.8920898438,       32.8674316406
1494295156.1667430401,       -0.7441406250,        0.0117187500,        0.0600585938,        6.8664550781,       -1.8920898438,       32.8674316406
1494295156.1692979336,       -0.7441406250,        0.0117187500,        0.0600585938,        3.8757324219,       -2.7770996094,       33.1268310547
1494295156.1720700264,       -0.7441406250,        0.0117187500,        0.0600585938,        3.8757324219,       -2.7770996094,       33.1268310547
1494295156.1747570038,       -0.7441406250,        0.0361328125,        0.0502929688,        1.8463134766,       -2.9144287109,       33.7066650391
1494295156.1774499416,       -0.7382812500,        0.0361328125,        0.0502929688,        1.8463134766,       -2.9144287109,       33.7066650391
1494295156.1801381111,       -0.7382812500,        0.0361328125,        0.0502929688,        0.8850097656,       -3.0975341797,       33.9508056641
1494295156.1828360558,       -0.7382812500,        0.0361328125,        0.0502929688,        0.8850097656,       -3.0975341797,       33.9508056641
1494295156.1855280399,       -0.7470703125,        0.0419921875,        0.0600585938,       -0.2136230469,       -3.1433105469,       34.6679687500
1494295156.1882190704,       -0.7470703125,        0.0419921875,        0.0600585938,       -0.2136230469,       -3.1433105469,       34.6679687500
1494295156.1909379959,       -0.7470703125,        0.0419921875,        0.0600585938,       -0.2136230469,       -3.1585693359,       34.3322753906
1494295156.1934900284,       -0.7470703125,        0.0419921875,        0.0600585938,       -0.2136230469,       -3.1585693359,       34.3322753906
1494295156.1960411072,       -0.7431640625,        0.0903320312,        0.0634765625,       -0.2136230469,       -3.5400390625,       33.9813232422
1494295156.1985940933,       -0.7431640625,        0.0903320312,        0.0634765625,        0.3814697266,       -3.5400390625,       33.9813232422
1494295156.2011969090,       -0.7431640625,        0.0903320312,        0.0634765625,        0.3814697266,       -3.5400390625,       34.0728759766
1494295156.2038950920,       -0.7431640625,        0.0903320312,        0.0634765625,        1.3122558594,       -3.7689208984,       34.0728759766
1494295156.2065820694,       -0.7465820312,        0.1137695312,        0.0620117188,        1.3122558594,       -3.7689208984,       34.1644287109
1494295156.2093880177,       -0.7465820312,        0.1137695312,        0.0620117188,        2.5024414062,       -3.5858154297,       34.1644287109
1494295156.2120859623,       -0.7465820312,        0.1137695312,        0.0620117188,        2.5024414062,       -3.5858154297,       33.7982177734
1494295156.2147769928,       -0.7465820312,        0.1015625000,        0.0751953125,        3.9062500000,       -3.4332275391,       33.7982177734
1494295156.2174699306,       -0.7436523438,        0.1015625000,        0.0751953125,        3.9062500000,       -3.4332275391,       33.4320068359
1494295156.2201609612,       -0.7436523438,        0.1015625000,        0.0751953125,        5.0506591797,       -3.5858154297,       33.4320068359
1494295156.2228600979,       -0.7436523438,        0.1015625000,        0.0751953125,        5.0506591797,       -3.5858154297,       32.7606201172
1494295156.2255499363,       -0.7431640625,        0.0869140625,        0.0708007812,        5.4321289062,       -3.2806396484,       32.7606201172
1494295156.2283558846,       -0.7431640625,        0.0869140625,        0.0708007812,        5.4321289062,       -3.2806396484,       32.5927734375
1494295156.2314310074,       -0.7431640625,        0.0869140625,        0.0708007812,        5.6457519531,       -3.1585693359,       32.5927734375
1494295156.2341289520,       -0.7431640625,        0.0869140625,        0.0708007812,        5.6457519531,       -3.0364990234,       32.4859619141
1494295156.2368280888,       -0.7436523438,        0.0908203125,        0.0771484375,        5.9356689453,       -3.0364990234,       32.4859619141
1494295156.2395219803,       -0.7436523438,        0.0908203125,        0.0771484375,        5.9356689453,       -2.9907226562,       32.5622558594
1494295156.2421538830,       -0.7436523438,        0.0908203125,        0.0771484375,        5.8135986328,       -2.9907226562,       32.5622558594
1494295156.2447071075,       -0.7436523438,        0.0908203125,        0.0737304688,        5.8135986328,       -2.9907226562,       32.2875976562
1494295156.2472569942,       -0.7358398438,        0.0976562500,        0.0737304688,        5.2947998047,       -2.8381347656,       32.2875976562
1494295156.2498130798,       -0.7358398438,        0.0976562500,        0.0737304688,        5.2947998047,       -2.8381347656,       32.2875976562
1494295156.2524750233,       -0.7358398438,        0.0976562500,        0.0737304688,        5.1269531250,       -2.8228759766,       32.2570800781
1494295156.2551651001,       -0.7358398438,        0.0952148438,        0.0644531250,        5.1269531250,       -2.8228759766,       32.2570800781
1494295156.2578608990,       -0.7426757812,        0.0952148438,        0.0644531250,        5.1574707031,       -2.8381347656,       32.4707031250
1494295156.2605528831,       -0.7426757812,        0.0952148438,        0.0644531250,        5.1574707031,       -2.8381347656,       32.4707031250
1494295156.2631299496,       -0.7426757812,        0.0952148438,        0.0644531250,        4.9133300781,       -2.7008056641,       32.0739746094
1494295156.2656810284,       -0.7490234375,        0.1162109375,        0.0610351562,        4.9133300781,       -2.7008056641,       32.0739746094
1494295156.2682340145,       -0.7490234375,        0.1162109375,        0.0610351562,        5.9661865234,       -2.1972656250,       32.2875976562
1494295156.2707901001,       -0.7490234375,        0.1162109375,        0.0610351562,        5.9661865234,       -2.1972656250,       32.2875976562
1494295156.2733418941,       -0.7490234375,        0.1162109375,        0.0610351562,        6.7901611328,       -2.4566650391,       32.9132080078
1494295156.2758929729,       -0.7431640625,        0.0996093750,        0.0712890625,        6.7901611328,       -2.4566650391,       32.9132080078
1494295156.2784450054,       -0.7431640625,        0.0996093750,        0.0712890625,        7.3547363281,       -2.3651123047,       33.0657958984
1494295156.2811009884,       -0.7431640625,        0.0996093750,        0.0712890625,        7.3547363281,       -2.3651123047,       33.0657958984
1494295156.2837750912,       -0.7431640625,        0.0996093750,        0.0712890625,        7.1868896484,       -2.0904541016,       33.2336425781
1494295156.2863280773,       -0.7402343750,        0.0898437500,        0.0703125000,        7.1868896484,       -2.0904541016,       33.2336425781
1494295156.2888851166,       -0.7402343750,        0.0898437500,        0.0703125000,        6.6528320312,       -1.9683837891,       33.9965820312
1494295156.2914679050,       -0.7402343750,        0.0898437500,        0.0703125000,        6.6528320312,       -1.9683837891,       33.9965820312
1494295156.2940208912,       -0.7402343750,        0.0898437500,        0.0703125000,        6.6528320312,       -2.4108886719,       34.3933105469
1494295156.2965779305,       -0.7392578125,        0.1030273438,        0.0776367188,        6.1035156250,       -2.4108886719,       34.3933105469
1494295156.2991321087,       -0.7392578125,        0.1030273438,        0.0776367188,        6.1035156250,       -2.4108886719,       34.9731445312
1494295156.3017859459,       -0.7392578125,        0.1030273438,        0.0776367188,        6.8054199219,       -2.0294189453,       34.9731445312
1494295156.3044788837,       -0.7392578125,        0.1030273438,        0.0776367188,        6.8054199219,       -2.0294189453,       35.8581542969
1494295156.3071720600,       -0.7368164062,        0.1000976562,        0.0771484375,        6.5917968750,       -2.4414062500,       35.8581542969
1494295156.3098690510,       -0.7368164062,        0.1000976562,        0.0771484375,        6.5917968750,       -2.4414062500,       36.6516113281
1494295156.3125779629,       -0.7368164062,        0.1000976562,        0.0771484375,        6.5612792969,       -2.3498535156,       36.6516113281
1494295156.3152770996,       -0.7368164062,        0.1000976562,        0.0712890625,        6.5612792969,       -2.3498535156,       37.3840332031
1494295156.3179669380,       -0.7524414062,        0.0976562500,        0.0712890625,        5.8898925781,       -2.6397705078,       37.3840332031
1494295156.3206679821,       -0.7524414062,        0.0976562500,        0.0712890625,        5.8898925781,       -2.6397705078,       38.5284423828
1494295156.3232190609,       -0.7524414062,        0.0976562500,        0.0712890625,        5.2337646484,       -2.8991699219,       38.5284423828
1494295156.3257749081,       -0.7524414062,        0.0957031250,        0.0766601562,        5.2337646484,       -2.8991699219,       38.5284423828
1494295156.3283269405,       -0.7504882812,        0.0957031250,        0.0766601562,        4.6691894531,       -2.8381347656,       39.7186279297
1494295156.3309590816,       -0.7504882812,        0.0957031250,        0.0766601562,        4.6691894531,       -2.8381347656,       39.7186279297
1494295156.3336560726,       -0.7504882812,        0.0957031250,        0.0766601562,        5.3405761719,       -2.8533935547,       40.8782958984
1494295156.3363471031,       -0.7568359375,        0.0864257812,        0.0825195312,        5.3405761719,       -2.8533935547,       40.8782958984
1494295156.3390350342,       -0.7568359375,        0.0864257812,        0.0825195312,        5.6457519531,       -2.9754638672,       42.3126220703
1494295156.3417220116,       -0.7568359375,        0.0864257812,        0.0825195312,        5.6457519531,       -2.9754638672,       42.3126220703
1494295156.3442740440,       -0.7568359375,        0.0864257812,        0.0825195312,        5.3405761719,       -3.2501220703,       43.9147949219
1494295156.3468639851,       -0.7592773438,        0.0839843750,        0.0791015625,        5.3405761719,       -3.2501220703,       43.9147949219
1494295156.3494849205,       -0.7592773438,        0.0839843750,        0.0791015625,        4.9133300781,       -3.6010742188,       45.7611083984
1494295156.3525741100,       -0.7592773438,        0.0839843750,        0.0791015625,        4.9133300781,       -3.6010742188,       45.7611083984
1494295156.3553769588,       -0.7592773438,        0.0839843750,        0.0708007812,        4.2572021484,       -4.3182373047,       47.1496582031
1494295156.3580749035,       -0.7690429688,        0.0800781250,        0.0708007812,        4.2572021484,       -4.3182373047,       47.1496582031
1494295156.3607819080,       -0.7690429688,        0.0800781250,        0.0708007812,        3.3569335938,       -4.1351318359,       49.1638183594
1494295156.3634810448,       -0.7690429688,        0.0800781250,        0.0708007812,        3.3569335938,       -4.1351318359,       49.1638183594
1494295156.3661780357,       -0.7690429688,        0.0927734375,        0.0576171875,        3.2196044922,       -4.1503906250,       51.0559082031
1494295156.3688719273,       -0.7807617188,        0.0927734375,        0.0576171875,        3.2196044922,       -4.1503906250,       51.0559082031
1494295156.3715779781,       -0.7807617188,        0.0927734375,        0.0576171875,        2.3040771484,       -4.7149658203,       52.9632568359
1494295156.3742740154,       -0.7807617188,        0.0927734375,        0.0576171875,        2.3040771484,       -4.7149658203,       52.9632568359
1494295156.3769700527,       -0.8012695312,        0.1079101562,        0.0522460938,        3.3111572266,       -5.2795410156,       54.4128417969
1494295156.3796660900,       -0.8012695312,        0.1079101562,        0.0522460938,        3.3111572266,       -5.2795410156,       54.4128417969
1494295156.3822879791,       -0.8012695312,        0.1079101562,        0.0522460938,        3.1585693359,       -5.0811767578,       56.0150146484
1494295156.3848390579,       -0.8012695312,        0.1079101562,        0.0522460938,        3.1585693359,       -5.0811767578,       56.0150146484
1494295156.3873920441,       -0.8129882812,        0.0991210938,        0.0424804688,        2.9602050781,       -5.2337646484,       57.6934814453
1494295156.3899409771,       -0.8129882812,        0.0991210938,        0.0424804688,        2.9602050781,       -5.2337646484,       57.6934814453
1494295156.3925099373,       -0.8129882812,        0.0991210938,        0.0424804688,        2.2583007812,       -5.6457519531,       59.3872070312
1494295156.3950669765,       -0.8129882812,        0.0991210938,        0.0424804688,        2.2583007812,       -5.6457519531,       59.3872070312
1494295156.3976190090,       -0.8110351562,        0.1108398438,        0.0654296875,        2.2583007812,       -5.9967041016,       60.9893798828
1494295156.4001719952,       -0.8110351562,        0.1108398438,        0.0654296875,        2.0599365234,       -5.9967041016,       60.9893798828
1494295156.4028389454,       -0.8110351562,        0.1108398438,        0.0654296875,        2.0599365234,       -6.4086914062,       62.6983642578
1494295156.4053919315,       -0.8110351562,        0.1108398438,        0.0654296875,        2.2735595703,       -6.4086914062,       62.6983642578
1494295156.4079461098,       -0.8295898438,        0.1269531250,        0.0732421875,        2.2735595703,       -6.4086914062,       64.3310546875
1494295156.4104990959,       -0.8295898438,        0.1269531250,        0.0732421875,        3.5552978516,       -6.3018798828,       64.3310546875
1494295156.4133079052,       -0.8295898438,        0.1269531250,        0.0732421875,        3.5552978516,       -6.3018798828,       66.1773681641
1494295156.4159998894,       -0.8295898438,        0.1269531250,        0.0722656250,        4.1809082031,       -5.9967041016,       66.1773681641
1494295156.4186890125,       -0.8344726562,        0.1342773438,        0.0722656250,        4.1809082031,       -5.9967041016,       67.5506591797
1494295156.4213950634,       -0.8344726562,        0.1342773438,        0.0722656250,        5.2642822266,       -6.1187744141,       67.5506591797
1494295156.4240899086,       -0.8344726562,        0.1342773438,        0.0722656250,        5.2642822266,       -6.1187744141,       69.1986083984
1494295156.4267859459,       -0.8344726562,        0.1245117188,        0.0717773438,        6.5307617188,       -6.2713623047,       69.1986083984
1494295156.4295918941,       -0.8198242188,        0.1245117188,        0.0717773438,        6.5307617188,       -6.2713623047,       70.8770751953
1494295156.4322099686,       -0.8198242188,        0.1245117188,        0.0717773438,        6.3323974609,       -6.2408447266,       70.8770751953
1494295156.4347639084,       -0.8198242188,        0.1245117188,        0.0717773438,        6.3323974609,       -6.2408447266,       70.8770751953
1494295156.4373168945,       -0.8295898438,        0.1279296875,        0.0839843750,        6.1798095703,       -6.2561035156,       72.7844238281
1494295156.4398670197,       -0.8295898438,        0.1279296875,        0.0839843750,        6.1798095703,       -6.2561035156,       72.7844238281
1494295156.4424688816,       -0.8295898438,        0.1279296875,        0.0839843750,        5.9509277344,       -6.6528320312,       74.6002197266
1494295156.4450240135,       -0.8295898438,        0.1279296875,        0.0839843750,        5.9509277344,       -6.6528320312,       74.6002197266
1494295156.4475779533,       -0.8471679688,        0.1562500000,        0.0830078125,        6.5002441406,       -6.5460205078,       76.3397216797
1494295156.4501330853,       -0.8471679688,        0.1562500000,        0.0830078125,        6.5002441406,       -6.5460205078,       76.3397216797
1494295156.4528191090,       -0.8471679688,        0.1562500000,        0.0830078125,        7.3242187500,       -6.5307617188,       77.3468017578
1494295156.4555139542,       -0.8471679688,        0.1562500000,        0.0830078125,        7.3242187500,       -6.5307617188,       77.3468017578
1494295156.4582099915,       -0.8652343750,        0.1782226562,        0.0883789062,        9.4909667969,       -6.9274902344,       78.4301757812
1494295156.4609460831,       -0.8652343750,        0.1782226562,        0.0883789062,        9.4909667969,       -6.9274902344,       78.4301757812
1494295156.4636380672,       -0.8652343750,        0.1782226562,        0.0883789062,       11.7797851562,       -6.9885253906,       79.6508789062
1494295156.4663350582,       -0.8652343750,        0.1782226562,        0.0756835938,       11.7797851562,       -6.9885253906,       79.6508789062
1494295156.4692139626,       -0.8686523438,        0.1821289062,        0.0756835938,       14.4348144531,       -6.4086914062,       81.2072753906
1494295156.4722929001,       -0.8686523438,        0.1821289062,        0.0756835938,       14.4348144531,       -6.4086914062,       81.2072753906
1494295156.4748508930,       -0.8686523438,        0.1821289062,        0.0756835938,       17.1051025391,       -6.5612792969,       82.7789306641
1494295156.4774088860,       -0.8676757812,        0.1699218750,        0.0659179688,       17.1051025391,       -6.5612792969,       82.7789306641
1494295156.4799630642,       -0.8676757812,        0.1699218750,        0.0659179688,       19.1650390625,       -6.5002441406,       84.3353271484
1494295156.4826450348,       -0.8676757812,        0.1699218750,        0.0659179688,       19.1650390625,       -6.5002441406,       84.3353271484
1494295156.4853439331,       -0.8676757812,        0.1699218750,        0.0659179688,       20.5535888672,       -6.4392089844,       86.3342285156
1494295156.4880459309,       -0.8730468750,        0.1469726562,        0.0551757812,       20.5535888672,       -6.4392089844,       86.3342285156
1494295156.4907488823,       -0.8730468750,        0.1469726562,        0.0551757812,       21.5606689453,       -6.6833496094,       88.2720947266
1494295156.4934470654,       -0.8730468750,        0.1469726562,        0.0551757812,       21.5606689453,       -6.6833496094,       88.2720947266
1494295156.4961419106,       -0.8730468750,        0.1469726562,        0.0551757812,       23.7274169922,       -7.1411132812,       89.4470214844
1494295156.4988439083,       -0.8813476562,        0.1259765625,        0.0551757812,       23.7274169922,       -7.1411132812,       89.4470214844
1494295156.5015120506,       -0.8813476562,        0.1259765625,        0.0551757812,       23.3459472656,       -7.6446533203,       91.8121337891
1494295156.5041770935,       -0.8813476562,        0.1259765625,        0.0551757812,       23.3459472656,       -7.6446533203,       91.8121337891
1494295156.5067400932,       -0.8813476562,        0.1259765625,        0.0732421875,       22.2320556641,       -7.8430175781,       94.3450927734
1494295156.5093040466,       -0.9179687500,        0.1269531250,        0.0732421875,       22.2320556641,       -7.8430175781,       94.3450927734
1494295156.5119121075,       -0.9179687500,        0.1269531250,        0.0732421875,       26.1383056641,       -7.3699951172,       96.7254638672
1494295156.5144670010,       -0.9179687500,        0.1269531250,        0.0732421875,       23.8494873047,       -7.3699951172,       96.7254638672
1494295156.5170300007,       -0.9179687500,        0.1269531250,        0.0869140625,       23.8494873047,       -7.3699951172,       99.0905761719
1494295156.5195910931,       -0.9707031250,        0.0668945312,        0.0869140625,       25.0396728516,       -7.3547363281,       99.0905761719
1494295156.5223720074,       -0.9707031250,        0.0668945312,        0.0869140625,       25.0396728516,       -7.3547363281,      101.5777587891
1494295156.5249290466,       -0.9707031250,        0.0668945312,        0.0869140625,       25.5737304688,       -7.7362060547,      101.5777587891
1494295156.5274889469,       -0.9707031250,        0.0996093750,        0.1152343750,       25.5737304688,       -7.7362060547,      101.5777587891
1494295156.5300490856,       -0.9702148438,        0.0996093750,        0.1152343750,       27.4963378906,       -9.1705322266,      103.8818359375
1494295156.5328819752,       -0.9702148438,        0.0996093750,        0.1152343750,       27.4963378906,       -9.1705322266,      106.2164306641
1494295156.5355830193,       -0.9702148438,        0.0996093750,        0.1152343750,       31.8603515625,      -11.3372802734,      106.2164306641
1494295156.5382859707,       -0.9858398438,        0.1196289062,        0.0869140625,       31.8603515625,      -11.3372802734,      108.9477539062
1494295156.5409998894,       -0.9858398438,        0.1196289062,        0.0869140625,       38.0401611328,      -13.7634277344,      108.9477539062
1494295156.5437009335,       -0.9858398438,        0.1196289062,        0.0869140625,       38.0401611328,      -13.7634277344,      112.8540039062
1494295156.5464000702,       -0.9858398438,        0.1196289062,        0.0869140625,       43.9147949219,      -15.3350830078,      111.4501953125
1494295156.5491070747,       -1.0234375000,        0.0795898438,        0.0747070312,       43.9147949219,      -15.3350830078,      115.3564453125
1494295156.5518119335,       -1.0234375000,        0.0795898438,        0.0747070312,       50.3845214844,      -16.5405273438,      113.5559082031
1494295156.5545079708,       -1.0234375000,        0.0795898438,        0.0747070312,       50.3845214844,      -16.5405273438,      113.5559082031
1494295156.5572071075,       -1.0234375000,        0.0795898438,        0.0585937500,       56.2133789062,      -17.7001953125,      115.9362792969
1494295156.5599029064,       -1.0883789062,        0.0185546875,        0.0585937500,       56.2133789062,      -17.7001953125,      115.9362792969
1494295156.5625178814,       -1.0883789062,        0.0185546875,        0.0585937500,       61.5844726562,      -19.1040039062,      117.5842285156
1494295156.5650749207,       -1.0883789062,        0.0185546875,        0.0585937500,       61.5844726562,      -19.1040039062,      117.5842285156
1494295156.5676341057,       -1.0883789062,        0.0185546875,        0.0864257812,       68.1610107422,      -21.4538574219,      118.8049316406
1494295156.5701971054,       -1.1464843750,        0.0219726562,        0.0864257812,       68.1610107422,      -21.4538574219,      118.8049316406
1494295156.5728549957,       -1.1464843750,        0.0219726562,        0.0864257812,       76.8890380859,      -23.3001708984,      119.9035644531
1494295156.5755259991,       -1.1464843750,        0.0219726562,        0.0864257812,       76.8890380859,      -23.3001708984,      119.9035644531
1494295156.5780880451,       -1.1464843750,        0.0498046875,        0.1064453125,       88.9434814453,      -25.3906250000,      120.3002929688
1494295156.5807020664,       -1.2143554688,        0.0498046875,        0.1064453125,       88.9434814453,      -25.3906250000,      120.3002929688
1494295156.5834009647,       -1.2143554688,        0.0498046875,        0.1064453125,      103.5156250000,      -27.1148681641,      120.1477050781
1494295156.5860929489,       -1.2143554688,        0.0498046875,        0.1064453125,      103.5156250000,      -27.1148681641,      120.1477050781
1494295156.5888729095,       -1.2802734375,        0.0058593750,        0.0732421875,      119.0490722656,      -27.0233154297,      119.9493408203
1494295156.5918920040,       -1.2802734375,        0.0058593750,        0.0732421875,      119.0490722656,      -27.0233154297,      119.9493408203
1494295156.5945940018,       -1.2802734375,        0.0058593750,        0.0732421875,      133.1024169922,      -24.9481201172,      120.0408935547
