time_stamp before, Acceleration x, Acceleration y, Acceleration z, Gyro x, Gyro y, Gyro z
1494295195.1984539032,       -0.9428710938,        0.2211914062,       -0.0825195312,      -92.6055908203,      -26.0009765625,       99.0600585938
1494295195.2047619820,       -0.8881835938,        0.2211914062,       -0.0825195312,      -63.5375976562,      -26.0009765625,       99.0600585938
1494295195.2076420784,       -0.8881835938,        0.2211914062,       -0.0825195312,      -42.9687500000,      -24.5513916016,       93.8568115234
1494295195.2102010250,       -0.8881835938,        0.2211914062,       -0.2075195312,      -42.9687500000,      -24.5513916016,       93.8568115234
1494295195.2129380703,       -0.7910156250,        0.2114257812,       -0.1953125000,      -29.4342041016,      -21.9116210938,       91.4154052734
1494295195.2156009674,       -0.7910156250,        0.2114257812,       -0.1953125000,      -29.4342041016,      -21.9116210938,       91.4154052734
1494295195.2185330391,       -0.7910156250,        0.2114257812,       -0.1953125000,      -20.7366943359,      -19.8822021484,       88.5925292969
1494295195.2212440968,       -0.6660156250,        0.1323242188,       -0.1689453125,      -20.7366943359,      -19.8822021484,       88.5925292969
1494295195.2239389420,       -0.7343750000,        0.1323242188,       -0.1689453125,      -15.4876708984,      -18.4478759766,       85.0372314453
1494295195.2266349792,       -0.7343750000,        0.1323242188,       -0.1689453125,      -15.4876708984,      -18.4478759766,       85.0372314453
1494295195.2293250561,       -0.7343750000,        0.1323242188,       -0.1689453125,      -10.4370117188,      -17.3797607422,       80.9020996094
1494295195.2320311069,       -0.6166992188,        0.0312500000,       -0.0053710938,      -10.4370117188,      -17.3797607422,       80.9020996094
1494295195.2347300053,       -0.6166992188,        0.0312500000,       -0.0053710938,       -2.3651123047,      -16.6015625000,       76.2634277344
1494295195.2374300957,       -0.6166992188,        0.0312500000,       -0.0053710938,       -2.3651123047,      -16.6015625000,       76.2634277344
1494295195.2401270866,       -0.6166992188,        0.0312500000,       -0.0053710938,        9.7351074219,      -16.2353515625,       70.7855224609
1494295195.2428259850,       -0.5751953125,        0.1572265625,        0.1352539062,        9.7351074219,      -16.2353515625,       70.7855224609
1494295195.2455129623,       -0.5751953125,        0.1572265625,        0.1352539062,       21.9116210938,      -17.5323486328,       65.3991699219
1494295195.2482089996,       -0.5751953125,        0.1572265625,        0.1352539062,       21.9116210938,      -17.5323486328,       65.3991699219
1494295195.2509560585,       -0.5751953125,        0.1572265625,        0.1669921875,       29.7241210938,      -18.2647705078,       60.3790283203
1494295195.2535169125,       -0.6606445312,        0.2773437500,        0.1669921875,       29.7088623047,      -18.2647705078,       60.3790283203
1494295195.2560710907,       -0.6606445312,        0.2773437500,        0.1669921875,       29.7088623047,      -18.2647705078,       57.0678710938
1494295195.2586350441,       -0.6606445312,        0.2773437500,        0.1669921875,       31.6619873047,      -19.5159912109,       57.0678710938
1494295195.2613170147,       -0.6606445312,        0.1362304688,        0.1684570312,       31.6619873047,      -19.5159912109,       55.2368164062
1494295195.2638809681,       -0.7626953125,        0.1362304688,        0.1684570312,       26.7333984375,      -21.1181640625,       55.2368164062
1494295195.2664411068,       -0.7626953125,        0.1362304688,        0.1684570312,       26.7333984375,      -21.1181640625,       51.3305664062
1494295195.2689990997,       -0.7626953125,        0.1362304688,        0.1684570312,       17.3645019531,      -22.3846435547,       54.6112060547
1494295195.2717010975,       -0.7626953125,       -0.0317382812,        0.0996093750,       17.3645019531,      -22.3846435547,       54.6112060547
1494295195.2744040489,       -0.8544921875,       -0.0317382812,        0.0996093750,        6.2866210938,      -22.7661132812,       54.4586181641
1494295195.2772660255,       -0.8544921875,       -0.0317382812,        0.0996093750,        6.2866210938,      -22.7661132812,       54.5043945312
1494295195.2799661160,       -0.8544921875,       -0.0317382812,        0.0996093750,       -6.0119628906,      -22.7203369141,       54.5043945312
1494295195.2826750278,       -0.8593750000,       -0.0468750000,        0.0727539062,       -6.0119628906,      -22.7203369141,       54.5043945312
1494295195.2853760719,       -0.8593750000,       -0.0468750000,        0.0727539062,      -17.5323486328,      -22.9034423828,       54.5959472656
1494295195.2880790234,       -0.8593750000,       -0.0468750000,        0.0727539062,      -17.5323486328,      -22.9034423828,       54.5959472656
1494295195.2907869816,       -0.8593750000,       -0.0468750000,        0.0727539062,      -25.6195068359,      -23.1933593750,       54.4128417969
1494295195.2934920788,       -0.7626953125,       -0.0224609375,        0.0830078125,      -25.6195068359,      -23.1933593750,       54.4128417969
1494295195.2961859703,       -0.7626953125,       -0.0224609375,        0.0830078125,      -29.7851562500,      -23.1933593750,       53.2684326172
1494295195.2988810539,       -0.7626953125,       -0.0224609375,        0.0830078125,      -29.7851562500,      -23.1933593750,       53.2684326172
1494295195.3015611172,       -0.7626953125,        0.1025390625,        0.1274414062,      -30.3955078125,      -23.4222412109,       51.6510009766
1494295195.3041200638,       -0.7187500000,        0.0454101562,        0.1274414062,      -30.3955078125,      -23.4222412109,       51.6510009766
1494295195.3066849709,       -0.7187500000,        0.0454101562,        0.1274414062,      -27.9388427734,      -23.3154296875,       49.9267578125
1494295195.3092389107,       -0.7187500000,        0.0454101562,        0.1274414062,      -27.9388427734,      -23.3154296875,       49.9267578125
1494295195.3119370937,       -0.7187500000,        0.0913085938,        0.1162109375,      -23.6968994141,      -22.8729248047,       48.0041503906
1494295195.3145029545,       -0.7436523438,        0.0913085938,        0.1162109375,      -23.6968994141,      -22.8729248047,       48.0041503906
1494295195.3170630932,       -0.7436523438,        0.0913085938,        0.1162109375,      -19.0582275391,      -22.2167968750,       46.3104248047
1494295195.3196239471,       -0.7436523438,        0.0913085938,        0.1162109375,      -19.0582275391,      -22.2167968750,       46.3104248047
1494295195.3223431110,       -0.7607421875,        0.1215820312,        0.0844726562,      -13.2446289062,      -21.2554931641,       44.1741943359
1494295195.3250029087,       -0.7607421875,        0.1215820312,        0.0844726562,      -13.2446289062,      -21.2554931641,       44.1741943359
1494295195.3277719021,       -0.7607421875,        0.1215820312,        0.0844726562,       -7.5378417969,      -20.4010009766,       42.6940917969
1494295195.3304688931,       -0.7607421875,        0.1215820312,        0.0844726562,       -7.5378417969,      -20.4010009766,       42.6940917969
1494295195.3330879211,       -0.7670898438,        0.1308593750,        0.0527343750,       -2.1667480469,      -18.4936523438,       40.9088134766
1494295195.3356521130,       -0.7670898438,        0.1308593750,        0.0527343750,       -2.1667480469,      -18.4936523438,       40.9088134766
1494295195.3390359879,       -0.7670898438,        0.1308593750,        0.0527343750,        3.8909912109,      -17.2424316406,       39.2608642578
1494295195.3416559696,       -0.7670898438,        0.1308593750,        0.0263671875,        3.8909912109,      -17.2424316406,       39.2608642578
1494295195.3443520069,       -0.7661132812,        0.1250000000,        0.0263671875,        9.2315673828,      -16.2200927734,       37.0635986328
1494295195.3470499516,       -0.7661132812,        0.1250000000,        0.0263671875,        9.2315673828,      -16.2200927734,       37.0635986328
1494295195.3498620987,       -0.7661132812,        0.1250000000,        0.0263671875,       14.1601562500,      -15.2893066406,       34.8358154297
1494295195.3525750637,       -0.7709960938,        0.1157226562,        0.0341796875,       14.1601562500,      -15.2893066406,       34.8358154297
1494295195.3552730083,       -0.7709960938,        0.1157226562,        0.0341796875,       17.0898437500,      -14.9841308594,       32.7911376953
1494295195.3579740524,       -0.7709960938,        0.1157226562,        0.0341796875,       17.0898437500,      -14.9841308594,       32.7911376953
1494295195.3606839180,       -0.7709960938,        0.1157226562,        0.0341796875,       18.6309814453,      -15.7318115234,       30.6549072266
1494295195.3632540703,       -0.7553710938,        0.1005859375,        0.0566406250,       18.6309814453,      -15.7318115234,       30.6549072266
1494295195.3658099174,       -0.7553710938,        0.1005859375,        0.0566406250,       19.3328857422,      -16.4642333984,       29.5257568359
1494295195.3683619499,       -0.7553710938,        0.1005859375,        0.0566406250,       19.3328857422,      -16.4642333984,       29.5257568359
1494295195.3709650040,       -0.7553710938,        0.1005859375,        0.0566406250,       19.4854736328,      -17.1813964844,       27.8167724609
1494295195.3735239506,       -0.7622070312,        0.0698242188,        0.0688476562,       19.4854736328,      -17.1813964844,       27.8167724609
1494295195.3760840893,       -0.7622070312,        0.0698242188,        0.0688476562,       19.4854736328,      -16.9372558594,       26.6723632812
1494295195.3786439896,       -0.7622070312,        0.0698242188,        0.0688476562,       19.4702148438,      -16.9372558594,       26.6723632812
1494295195.3813879490,       -0.7622070312,        0.0698242188,        0.0688476562,       19.4702148438,      -16.7999267578,       25.5279541016
1494295195.3839559555,       -0.7514648438,        0.0390625000,        0.0498046875,       19.1192626953,      -16.7999267578,       25.5279541016
1494295195.3865079880,       -0.7514648438,        0.0390625000,        0.0498046875,       19.1192626953,      -16.7999267578,       23.9410400391
1494295195.3890669346,       -0.7514648438,        0.0390625000,        0.0498046875,       18.9514160156,      -16.9677734375,       23.9410400391
1494295195.3917810917,       -0.7514648438,        0.0390625000,        0.0498046875,       18.9514160156,      -16.9677734375,       22.6593017578
1494295195.3944759369,       -0.7490234375,        0.0493164062,        0.0498046875,       19.6228027344,      -17.0898437500,       22.6593017578
1494295195.3971779346,       -0.7490234375,        0.0493164062,        0.0498046875,       19.6228027344,      -17.0898437500,       22.1710205078
1494295195.3998780251,       -0.7490234375,        0.0493164062,        0.0498046875,       20.9503173828,      -16.8762207031,       22.1710205078
1494295195.4025900364,       -0.7490234375,        0.0517578125,        0.0541992188,       20.9503173828,      -16.8762207031,       21.5454101562
1494295195.4052948952,       -0.7407226562,        0.0517578125,        0.0541992188,       23.2238769531,      -16.1437988281,       21.5454101562
1494295195.4079909325,       -0.7407226562,        0.0517578125,        0.0541992188,       23.2238769531,      -16.1437988281,       20.5688476562
1494295195.4106960297,       -0.7407226562,        0.0517578125,        0.0541992188,       24.7650146484,      -15.6250000000,       20.5688476562
1494295195.4134008884,       -0.7363281250,        0.0327148438,        0.0727539062,       24.7650146484,      -15.6250000000,       19.4854736328
1494295195.4161000252,       -0.7363281250,        0.0327148438,        0.0727539062,       26.1383056641,      -15.4571533203,       19.4854736328
1494295195.4188039303,       -0.7363281250,        0.0327148438,        0.0727539062,       26.1383056641,      -15.4571533203,       19.0124511719
1494295195.4215281010,       -0.7363281250,        0.0327148438,        0.0727539062,       27.7709960938,      -14.5874023438,       19.0124511719
1494295195.4242041111,       -0.7207031250,        0.0302734375,        0.0864257812,       27.7709960938,      -14.5874023438,       19.0124511719
1494295195.4267699718,       -0.7207031250,        0.0302734375,        0.0864257812,       29.9224853516,      -14.3280029297,       18.6920166016
1494295195.4293301105,       -0.7207031250,        0.0302734375,        0.0864257812,       29.9224853516,      -14.3280029297,       18.6920166016
1494295195.4320158958,       -0.7207031250,        0.0302734375,        0.0864257812,       32.7606201172,      -14.8315429688,       18.4936523438
1494295195.4347159863,       -0.7099609375,        0.0214843750,        0.0688476562,       32.7606201172,      -14.8315429688,       18.4936523438
1494295195.4374120235,       -0.7099609375,        0.0214843750,        0.0688476562,       35.6292724609,      -14.8620605469,       17.7459716797
1494295195.4401180744,       -0.7099609375,        0.0214843750,        0.0688476562,       35.6292724609,      -14.8620605469,       17.7459716797
1494295195.4428288937,       -0.7099609375,       -0.0048828125,        0.0649414062,       38.8641357422,      -14.5568847656,       17.1356201172
1494295195.4455280304,       -0.7050781250,       -0.0048828125,        0.0649414062,       38.8641357422,      -14.5568847656,       17.1356201172
1494295195.4482510090,       -0.7050781250,       -0.0048828125,        0.0649414062,       41.9464111328,      -13.8244628906,       16.4031982422
1494295195.4509670734,       -0.7050781250,       -0.0048828125,        0.0649414062,       41.9464111328,      -13.8244628906,       16.4031982422
1494295195.4536740780,       -0.6894531250,       -0.0258789062,        0.0722656250,       45.1965332031,      -13.3666992188,       16.1437988281
1494295195.4563739300,       -0.6894531250,       -0.0258789062,        0.0722656250,       45.1965332031,      -13.3666992188,       16.1437988281
1494295195.4590730667,       -0.6894531250,       -0.0258789062,        0.0722656250,       47.9278564453,      -14.0075683594,       15.9759521484
1494295195.4617838860,       -0.6894531250,       -0.0258789062,        0.0722656250,       47.9278564453,      -14.0075683594,       15.9759521484
1494295195.4644839764,       -0.7026367188,        0.0151367188,        0.0874023438,       49.8199462891,      -15.1062011719,       16.4031982422
1494295195.4671800137,       -0.7026367188,        0.0151367188,        0.0874023438,       49.8199462891,      -15.1062011719,       16.4031982422
1494295195.4698820114,       -0.7026367188,        0.0151367188,        0.0874023438,       51.9866943359,      -15.4266357422,       17.7459716797
1494295195.4725921154,       -0.7026367188,        0.0151367188,        0.0844726562,       51.9866943359,      -15.4266357422,       17.7459716797
1494295195.4752919674,       -0.7543945312,        0.0112304688,        0.0844726562,       54.5959472656,      -14.6636962891,       18.7835693359
1494295195.4779949188,       -0.7543945312,        0.0112304688,        0.0844726562,       54.5959472656,      -14.6636962891,       18.7835693359
1494295195.4807059765,       -0.7543945312,        0.0112304688,        0.0844726562,       55.4809570312,      -13.2446289062,       19.7753906250
1494295195.4832730293,       -0.7543945312,       -0.0361328125,        0.1079101562,       55.4809570312,      -13.2446289062,       19.7753906250
1494295195.4858300686,       -0.7553710938,       -0.0361328125,        0.1079101562,       54.5043945312,      -11.8255615234,       20.4162597656
1494295195.4883909225,       -0.7553710938,       -0.0361328125,        0.1079101562,       54.5043945312,      -11.8255615234,       20.4162597656
1494295195.4910840988,       -0.7553710938,       -0.0361328125,        0.1079101562,       52.0172119141,      -11.0778808594,       21.8963623047
1494295195.4936459064,       -0.6303710938,       -0.0527343750,        0.1113281250,       52.0172119141,      -11.0778808594,       21.8963623047
1494295195.4962038994,       -0.7290039062,       -0.0527343750,        0.1113281250,       48.4161376953,      -10.7269287109,       23.5595703125
1494295195.4988739491,       -0.7290039062,       -0.0527343750,        0.1113281250,       48.4161376953,      -10.7269287109,       23.5595703125
1494295195.5015709400,       -0.7290039062,       -0.0527343750,        0.1113281250,       44.9371337891,      -10.6048583984,       24.5056152344
1494295195.5042700768,       -0.7324218750,       -0.0341796875,        0.1064453125,       44.9371337891,      -10.6048583984,       24.5056152344
1494295195.5069670677,       -0.7324218750,       -0.0341796875,        0.1064453125,       41.1834716797,       -9.5672607422,       25.1617431641
1494295195.5096640587,       -0.7324218750,       -0.0341796875,        0.1064453125,       41.1834716797,       -9.5672607422,       25.1617431641
1494295195.5123760700,       -0.7324218750,       -0.0341796875,        0.1064453125,       37.9028320312,       -8.6364746094,       25.8789062500
1494295195.5150749683,       -0.7426757812,        0.0014648438,        0.0913085938,       37.9028320312,       -8.6364746094,       25.8789062500
1494295195.5177750587,       -0.7426757812,        0.0014648438,        0.0913085938,       35.9497070312,       -8.2702636719,       27.0233154297
1494295195.5204710960,       -0.7426757812,        0.0014648438,        0.0913085938,       35.9497070312,       -8.2702636719,       27.0233154297
1494295195.5231850147,       -0.7426757812,        0.0014648438,        0.0742187500,       34.9731445312,       -8.4838867188,       28.5186767578
1494295195.5258929729,       -0.7314453125,        0.0239257812,        0.0742187500,       34.9731445312,       -8.4838867188,       28.5186767578
1494295195.5285890102,       -0.7314453125,        0.0239257812,        0.0742187500,       36.8652343750,       -7.5836181641,       29.0985107422
1494295195.5312609673,       -0.7314453125,        0.0239257812,        0.0742187500,       36.8652343750,       -7.5836181641,       29.0985107422
1494295195.5338149071,       -0.7314453125,        0.0395507812,        0.0717773438,       36.8652343750,       -6.5460205078,       28.8848876953
1494295195.5363700390,       -0.7446289062,        0.0395507812,        0.0717773438,       37.8112792969,       -6.5460205078,       28.8848876953
1494295195.5389189720,       -0.7446289062,        0.0395507812,        0.0717773438,       37.8112792969,       -6.5460205078,       29.4494628906
1494295195.5417380333,       -0.7446289062,        0.0395507812,        0.0717773438,       36.4227294922,       -6.4239501953,       29.4494628906
1494295195.5443949699,       -0.7407226562,        0.0249023438,        0.0717773438,       36.4227294922,       -6.4239501953,       30.5023193359
1494295195.5472750664,       -0.7407226562,        0.0249023438,        0.0717773438,       34.6679687500,       -6.8511962891,       30.5023193359
1494295195.5503211021,       -0.7407226562,        0.0249023438,        0.0717773438,       32.3791503906,       -6.7901611328,       31.5856933594
1494295195.5530290604,       -0.7407226562,        0.0249023438,        0.0717773438,       32.3791503906,       -6.7901611328,       31.5856933594
1494295195.5557219982,       -0.7387695312,        0.0097656250,        0.0747070312,       29.2816162109,       -7.1258544922,       32.8063964844
1494295195.5584099293,       -0.7387695312,        0.0097656250,        0.0747070312,       29.2816162109,       -7.1258544922,       32.8063964844
1494295195.5611469746,       -0.7387695312,        0.0097656250,        0.0747070312,       29.2816162109,       -6.8969726562,       33.6914062500
1494295195.5638380051,       -0.7387695312,        0.0229492188,        0.0913085938,       27.4658203125,       -6.8969726562,       33.6914062500
1494295195.5665330887,       -0.7495117188,        0.0229492188,        0.0913085938,       23.5595703125,       -6.2103271484,       34.2407226562
1494295195.5692310333,       -0.7495117188,        0.0229492188,        0.0913085938,       26.7944335938,       -6.2103271484,       34.2407226562
1494295195.5720739365,       -0.7495117188,        0.0229492188,        0.0913085938,       26.5655517578,       -5.8746337891,       35.4766845703
1494295195.5747671127,       -0.7524414062,        0.0625000000,        0.1147460938,       26.5655517578,       -5.8746337891,       35.4766845703
1494295195.5774641037,       -0.7524414062,        0.0625000000,        0.1147460938,       30.4718017578,       -6.1035156250,       36.7279052734
1494295195.5801560879,       -0.7524414062,        0.0625000000,        0.1147460938,       27.6336669922,       -6.1035156250,       36.7279052734
1494295195.5827610493,       -0.7524414062,        0.0625000000,        0.1147460938,       27.6336669922,       -5.8746337891,       36.7889404297
1494295195.5853140354,       -0.7431640625,        0.0507812500,        0.0937500000,       29.8919677734,       -5.8746337891,       36.7889404297
1494295195.5878710747,       -0.7431640625,        0.0507812500,        0.0937500000,       29.8919677734,       -5.8746337891,       37.3992919922
1494295195.5904340744,       -0.7431640625,        0.0507812500,        0.0937500000,       31.4483642578,       -5.5847167969,       37.3992919922
1494295195.5931611061,       -0.7431640625,        0.0507812500,        0.0937500000,       31.4483642578,       -5.5847167969,       39.2456054688
1494295195.5957078934,       -0.7568359375,        0.0219726562,        0.0981445312,       32.4096679688,       -5.0811767578,       39.2456054688
1494295195.5982689857,       -0.7568359375,        0.0219726562,        0.0981445312,       32.4096679688,       -5.0811767578,       39.2456054688
1494295195.6007890701,       -0.7568359375,        0.0219726562,        0.0981445312,       32.5927734375,       -4.1046142578,       41.6412353516
1494295195.6034901142,       -0.7568359375,        0.0219726562,        0.0981445312,       32.5927734375,       -4.1046142578,       41.6412353516
1494295195.6061820984,       -0.7475585938,        0.0112304688,        0.1049804688,       31.0516357422,       -2.8533935547,       43.6401367188
1494295195.6088769436,       -0.7475585938,        0.0112304688,        0.1049804688,       31.0516357422,       -2.8533935547,       43.6401367188
1494295195.6115829945,       -0.7475585938,        0.0112304688,        0.1049804688,       29.2816162109,       -2.0751953125,       45.9136962891
1494295195.6142790318,       -0.7475585938,       -0.0048828125,        0.0703125000,       29.2816162109,       -2.0751953125,       45.9136962891
1494295195.6169710159,       -0.7509765625,       -0.0048828125,        0.0703125000,       27.2521972656,       -1.3427734375,       48.9501953125
1494295195.6196660995,       -0.7509765625,       -0.0048828125,        0.0703125000,       27.2521972656,       -1.3427734375,       48.9501953125
1494295195.6222879887,       -0.7509765625,       -0.0048828125,        0.0703125000,       25.0396728516,       -0.6561279297,       52.6885986328
1494295195.6248500347,       -0.7460937500,       -0.0429687500,        0.0727539062,       25.0396728516,       -0.6561279297,       52.6885986328
1494295195.6274011135,       -0.7460937500,       -0.0429687500,        0.0727539062,       22.0031738281,       -0.2136230469,       56.6253662109
1494295195.6299569607,       -0.7460937500,       -0.0429687500,        0.0727539062,       22.0031738281,       -0.2136230469,       56.6253662109
1494295195.6326279640,       -0.7460937500,       -0.0429687500,        0.0727539062,       17.7917480469,       -0.4730224609,       60.0280761719
1494295195.6353209019,       -0.7465820312,       -0.0625000000,        0.1005859375,       17.7917480469,       -0.4730224609,       60.0280761719
1494295195.6380140781,       -0.7465820312,       -0.0625000000,        0.1005859375,       12.9394531250,       -0.5645751953,       63.8122558594
1494295195.6407189369,       -0.7465820312,       -0.0625000000,        0.1005859375,       12.9394531250,       -0.5645751953,       63.8122558594
1494295195.6434099674,       -0.7465820312,       -0.0625000000,        0.1005859375,        9.3383789062,       -0.1373291016,       67.2454833984
1494295195.6462140083,       -0.7636718750,       -0.0273437500,        0.0786132812,        9.3383789062,       -0.1373291016,       67.2454833984
1494295195.6489109993,       -0.7636718750,       -0.0273437500,        0.0786132812,        6.0729980469,        0.3204345703,       70.7550048828
1494295195.6516149044,       -0.7636718750,       -0.0273437500,        0.0786132812,        6.0729980469,        0.3204345703,       70.7550048828
1494295195.6543169022,       -0.7636718750,       -0.0273437500,        0.0751953125,        3.6468505859,       -0.3204345703,       73.8220214844
1494295195.6572170258,       -0.7919921875,        0.0551757812,        0.0751953125,        3.6468505859,       -0.3204345703,       73.8220214844
1494295195.6599109173,       -0.7919921875,        0.0551757812,        0.0751953125,        2.8991699219,       -0.4272460938,       76.7669677734
1494295195.6628019810,       -0.7919921875,        0.0551757812,        0.0751953125,        2.8991699219,       -0.4272460938,       76.7669677734
1494295195.6654949188,       -0.8193359375,        0.0898437500,        0.0942382812,        3.6773681641,       -0.3662109375,       79.1778564453
1494295195.6681869030,       -0.8193359375,        0.0898437500,        0.0942382812,        3.6773681641,       -0.3662109375,       79.1778564453
1494295195.6709229946,       -0.8193359375,        0.0898437500,        0.0942382812,        5.9509277344,       -0.4730224609,       82.2601318359
1494295195.6734769344,       -0.8193359375,        0.0898437500,        0.0942382812,        5.9509277344,       -0.4730224609,       82.2601318359
1494295195.6760239601,       -0.8271484375,        0.0849609375,        0.0859375000,        8.0413818359,       -1.2817382812,       85.0524902344
1494295195.6785728931,       -0.8271484375,        0.0849609375,        0.0859375000,        8.0413818359,       -1.2817382812,       85.0524902344
1494295195.6811909676,       -0.8271484375,        0.0849609375,        0.0859375000,        9.4299316406,       -2.1362304688,       87.9974365234
1494295195.6838850975,       -0.8271484375,        0.0849609375,        0.0859375000,        9.4299316406,       -2.1362304688,       87.9974365234
1494295195.6865799427,       -0.8686523438,        0.0600585938,        0.0722656250,       10.7116699219,       -1.5411376953,       91.0491943359
1494295195.6892800331,       -0.8686523438,        0.0600585938,        0.0722656250,       10.7116699219,       -1.5411376953,       91.0491943359
1494295195.6919300556,       -0.8686523438,        0.0600585938,        0.0722656250,        9.3383789062,       -1.1291503906,       94.2230224609
1494295195.6944859028,       -0.8686523438,        0.0600585938,        0.0722656250,        9.3383789062,       -1.1291503906,       94.2230224609
1494295195.6970379353,       -0.9121093750,        0.0781250000,        0.0346679688,        9.3383789062,       -0.9460449219,       98.1597900391
1494295195.6995940208,       -0.9121093750,        0.0781250000,        0.0346679688,        8.5906982422,       -0.9460449219,       98.1597900391
1494295195.7021629810,       -0.9121093750,        0.0781250000,        0.0346679688,        8.5906982422,       -0.9460449219,      101.8066406250
1494295195.7047169209,       -0.9121093750,        0.0781250000,        0.0502929688,        8.3007812500,       -1.7547607422,      101.8066406250
1494295195.7072679996,       -0.9653320312,        0.0258789062,        0.0502929688,        8.3007812500,       -1.7547607422,      101.8066406250
1494295195.7098228931,       -0.9653320312,        0.0258789062,        0.0502929688,       10.0708007812,       -1.5716552734,      104.5379638672
1494295195.7125101089,       -0.9653320312,        0.0258789062,        0.0502929688,       10.0708007812,       -1.5716552734,      104.5379638672
1494295195.7150659561,       -0.9653320312,        0.0258789062,        0.0053710938,       10.1776123047,       -1.2359619141,      107.8491210938
1494295195.7176239491,       -1.0488281250,        0.0664062500,        0.0053710938,       10.1776123047,       -1.2359619141,      107.8491210938
1494295195.7202908993,       -1.0488281250,        0.0664062500,        0.0053710938,        9.5520019531,       -1.1138916016,      111.9995117188
1494295195.7229919434,       -1.0488281250,        0.0664062500,        0.0053710938,        9.5520019531,       -1.1138916016,      111.9995117188
1494295195.7255458832,       -1.0488281250,        0.0800781250,        0.0175781250,        9.5367431641,       -2.2735595703,      115.5242919922
1494295195.7280969620,       -1.0380859375,        0.0800781250,        0.0175781250,        9.5367431641,       -2.2735595703,      115.5242919922
1494295195.7306840420,       -1.0380859375,        0.0800781250,        0.0175781250,       10.9558105469,       -2.1362304688,      118.8507080078
1494295195.7333779335,       -1.0380859375,        0.0800781250,        0.0175781250,       10.9558105469,       -2.1362304688,      118.8507080078
1494295195.7360820770,       -1.0522460938,        0.0551757812,        0.0092773438,       12.4816894531,       -0.7781982422,      122.7569580078
1494295195.7387819290,       -1.0522460938,        0.0551757812,        0.0092773438,       12.4816894531,       -0.7781982422,      122.7569580078
1494295195.7414810658,       -1.0522460938,        0.0551757812,        0.0092773438,       12.5885009766,       -0.4425048828,      125.8239746094
1494295195.7441871166,       -1.0522460938,        0.0551757812,        0.0092773438,       12.5885009766,       -0.4425048828,      125.8239746094
1494295195.7468850613,       -1.0693359375,        0.0693359375,        0.0581054688,       12.8021240234,       -0.5950927734,      128.4179687500
1494295195.7495779991,       -1.0693359375,        0.0693359375,        0.0581054688,       12.8021240234,       -0.5950927734,      128.4179687500
1494295195.7521979809,       -1.0693359375,        0.0693359375,        0.0581054688,       14.7705078125,       -0.5798339844,      131.2866210938
1494295195.7547559738,       -1.0693359375,        0.0693359375,        0.0581054688,       14.7705078125,       -0.5798339844,      131.2866210938
1494295195.7573089600,       -1.0761718750,        0.0659179688,        0.0717773438,       18.0511474609,       -1.1138916016,      133.8348388672
1494295195.7598590851,       -1.0761718750,        0.0659179688,        0.0717773438,       18.0511474609,       -1.1138916016,      133.8348388672
1494295195.7624759674,       -1.0761718750,        0.0659179688,        0.0717773438,       21.9573974609,       -1.4648437500,      136.0321044922
1494295195.7650411129,       -1.0761718750,        0.0659179688,        0.0717773438,       21.3317871094,       -1.4648437500,      136.0321044922
1494295195.7675950527,       -1.1240234375,        0.0444335938,        0.0751953125,       21.3317871094,       -1.4648437500,      138.4429931641
1494295195.7701470852,       -1.1240234375,        0.0444335938,        0.0751953125,       23.3917236328,       -2.4108886719,      138.4429931641
1494295195.7728340626,       -1.1240234375,        0.0444335938,        0.0751953125,       23.3917236328,       -2.4108886719,      141.6931152344
1494295195.7755289078,       -1.1240234375,       -0.0805664062,        0.0712890625,       24.7650146484,       -3.3721923828,      141.6931152344
1494295195.7784490585,       -1.1821289062,       -0.0444335938,        0.0712890625,       24.7650146484,       -3.3721923828,      144.8059082031
1494295195.7815120220,       -1.1821289062,       -0.0444335938,        0.0712890625,       26.7944335938,       -3.6163330078,      144.8059082031
1494295195.7840659618,       -1.1821289062,       -0.0444335938,        0.0712890625,       26.7944335938,       -7.5225830078,      148.5900878906
1494295195.7866261005,       -1.2509765625,       -0.1494140625,        0.1079101562,       27.0996093750,       -4.1198730469,      148.5900878906
1494295195.7891809940,       -1.2509765625,       -0.1494140625,        0.1079101562,       27.0996093750,       -4.1198730469,      152.6794433594
1494295195.7919239998,       -1.2509765625,       -0.1494140625,        0.1079101562,       26.4587402344,       -6.0577392578,      152.6794433594
1494295195.7946300507,       -1.2509765625,       -0.1494140625,        0.1079101562,       26.4587402344,       -6.0577392578,      156.6772460938
1494295195.7973239422,       -1.2700195312,       -0.2250976562,        0.1665039062,       27.2064208984,       -9.1094970703,      156.6772460938
1494295195.8000199795,       -1.2700195312,       -0.2250976562,        0.1665039062,       27.2064208984,       -9.1094970703,      160.3546142578
1494295195.8027539253,       -1.2700195312,       -0.2250976562,        0.1665039062,       30.4870605469,      -13.3666992188,      160.3546142578
1494295195.8054549694,       -1.2700195312,       -0.2250976562,        0.1909179688,       30.4870605469,      -13.3666992188,      163.3453369141
1494295195.8081591129,       -1.2944335938,       -0.1733398438,        0.1909179688,       38.2232666016,      -19.0429687500,      163.3453369141
1494295195.8109009266,       -1.2944335938,       -0.1733398438,        0.1909179688,       38.2232666016,      -19.0429687500,      165.4357910156
1494295195.8134679794,       -1.2944335938,       -0.1733398438,        0.1909179688,       50.6896972656,      -23.9562988281,      165.4357910156
1494295195.8160231113,       -1.2944335938,       -0.1459960938,        0.2255859375,       50.6896972656,      -23.9562988281,      165.4357910156
1494295195.8185820580,       -1.3935546875,       -0.1459960938,        0.2255859375,       67.6422119141,      -27.6947021484,      166.2139892578
1494295195.8211860657,       -1.3935546875,       -0.1459960938,        0.2255859375,       67.6422119141,      -27.6947021484,      166.2139892578
1494295195.8237459660,       -1.3935546875,       -0.1459960938,        0.2255859375,       89.1876220703,      -30.2581787109,      166.7022705078
1494295195.8263070583,       -1.6435546875,       -0.2182617188,        0.2197265625,       89.1876220703,      -30.2581787109,      166.7022705078
1494295195.8288760185,       -1.6552734375,       -0.2182617188,        0.2197265625,      114.1357421875,      -30.7617187500,      166.1376953125
1494295195.8315660954,       -1.6552734375,       -0.2182617188,        0.2197265625,      114.1357421875,      -30.7617187500,      166.1376953125
1494295195.8341360092,       -1.6552734375,       -0.2182617188,        0.2197265625,      145.3857421875,      -27.4200439453,      164.1845703125
1494295195.8366990089,       -1.7763671875,       -0.4038085938,        0.2148437500,      145.3857421875,      -27.4200439453,      164.1845703125
1494295195.8392570019,       -1.7763671875,       -0.4038085938,        0.2148437500,      177.0629882812,      -22.1099853516,      162.5976562500
1494295195.8419070244,       -1.7763671875,       -0.4038085938,        0.2148437500,      177.0629882812,      -22.1099853516,      162.5976562500
1494295195.8446071148,       -1.7763671875,       -0.4038085938,        0.2148437500,      199.9511718750,      -15.3198242188,      165.0695800781
1494295195.8473079205,       -1.5390625000,       -0.3032226562,        0.1879882812,      199.9511718750,      -15.3198242188,      165.0695800781
1494295195.8500070572,       -1.5390625000,       -0.3032226562,        0.1879882812,      201.2939453125,       -9.8724365234,      172.2869873047
1494295195.8527460098,       -1.5390625000,       -0.3032226562,        0.1879882812,      201.2939453125,       -9.8724365234,      172.2869873047
1494295195.8554480076,       -1.5390625000,       -0.3032226562,        0.1879882812,      177.9785156250,       -8.4838867188,      182.5561523438
1494295195.8581459522,       -1.3769531250,       -0.0961914062,        0.2851562500,      177.9785156250,       -8.4838867188,      182.5561523438
1494295195.8608698845,       -1.3769531250,       -0.0961914062,        0.2851562500,      144.1192626953,       -9.0332031250,      192.8253173828
1494295195.8634269238,       -1.3769531250,       -0.0961914062,        0.2851562500,      144.1192626953,       -9.0332031250,      192.8253173828
1494295195.8660900593,       -1.3769531250,       -0.0961914062,        0.2695312500,      114.2578125000,       -8.3007812500,      196.9757080078
1494295195.8686439991,       -1.3754882812,       -0.1601562500,        0.2695312500,      114.2578125000,       -8.3007812500,      196.9757080078
1494295195.8712120056,       -1.3754882812,       -0.1601562500,        0.2695312500,      114.2578125000,       -6.2713623047,      194.1986083984
1494295195.8737668991,       -1.3754882812,       -0.1601562500,        0.2695312500,       92.9870605469,       -6.2713623047,      194.1986083984
1494295195.8763239384,       -1.3754882812,       -0.1601562500,        0.2666015625,       92.9870605469,       -6.2713623047,      187.8356933594
1494295195.8788790703,       -1.2958984375,       -0.1376953125,        0.2666015625,       80.7800292969,       -5.1269531250,      187.8356933594
1494295195.8815529346,       -1.2958984375,       -0.1376953125,        0.2666015625,       80.7800292969,       -5.1269531250,      176.1169433594
1494295195.8841099739,       -1.2958984375,       -0.1376953125,        0.2666015625,       79.3151855469,       -2.3498535156,      178.8330078125
1494295195.8866610527,       -1.2958984375,       -0.1616210938,        0.1435546875,       79.3151855469,       -2.3498535156,      178.8330078125
1494295195.8892168999,       -1.1362304688,       -0.1616210938,        0.1435546875,       80.9173583984,        2.0751953125,      169.0368652344
1494295195.8919589520,       -1.1362304688,       -0.1616210938,        0.1435546875,       80.9173583984,        2.0751953125,      169.0368652344
1494295195.8946199417,       -1.1362304688,       -0.1616210938,        0.1435546875,       77.8198242188,        6.8817138672,      158.7982177734
1494295195.8974299431,       -0.9760742188,       -0.3393554688,        0.0561523438,       77.8198242188,        6.8817138672,      158.7982177734
1494295195.9005029202,       -0.9760742188,       -0.3393554688,        0.0561523438,       68.6798095703,       12.4664306641,      150.2380371094
1494295195.9032170773,       -0.9760742188,       -0.3393554688,        0.0561523438,       68.6798095703,       12.4664306641,      144.8669433594
1494295195.9059240818,       -0.9760742188,       -0.3393554688,        0.0561523438,       54.8400878906,       18.6004638672,      144.8669433594
1494295195.9086220264,       -0.7543945312,       -0.2954101562,       -0.0156250000,       54.8400878906,       18.6004638672,      141.0827636719
1494295195.9113419056,       -0.7543945312,       -0.2954101562,       -0.0156250000,       35.5834960938,       19.7448730469,      141.0827636719
1494295195.9138979912,       -0.7543945312,       -0.2954101562,       -0.0156250000,       35.5834960938,       19.7448730469,      141.0827636719
1494295195.9164590836,       -0.7543945312,       -0.2954101562,        0.0488281250,       10.8947753906,       10.9405517578,      135.4217529297
1494295195.9190208912,       -0.4951171875,       -0.0195312500,        0.0488281250,       10.8947753906,       10.9405517578,      135.4217529297
1494295195.9216389656,       -0.4951171875,       -0.0195312500,        0.0488281250,      -13.4582519531,       -2.9449462891,      124.1302490234
1494295195.9243400097,       -0.4951171875,       -0.0195312500,        0.0488281250,      -13.4582519531,       -2.9449462891,      124.1302490234
1494295195.9270360470,       -0.4951171875,        0.0952148438,        0.1333007812,      -36.0260009766,      -16.0980224609,      106.1401367188
1494295195.9297349453,       -0.3666992188,        0.0952148438,        0.1333007812,      -36.0260009766,      -16.0980224609,      106.1401367188
1494295195.9323709011,       -0.3666992188,        0.0952148438,        0.1333007812,      -46.0357666016,      -22.7813720703,       81.4361572266
1494295195.9349339008,       -0.3666992188,        0.0952148438,        0.1333007812,      -46.0357666016,      -22.7813720703,       81.4361572266
1494295195.9374949932,       -0.2792968750,        0.4291992188,        0.0058593750,      -32.5622558594,      -22.3236083984,       56.3659667969
1494295195.9401690960,       -0.2792968750,        0.4291992188,        0.0058593750,      -32.5622558594,      -22.3236083984,       56.3659667969
1494295195.9428179264,       -0.2792968750,        0.4291992188,        0.0058593750,      -14.1296386719,      -24.2004394531,       38.9404296875
1494295195.9453809261,       -0.2792968750,        0.4291992188,        0.0058593750,      -14.1296386719,      -24.2004394531,       38.9404296875
1494295195.9479401112,       -0.2602539062,        0.5185546875,        0.2768554688,      -13.0920410156,      -38.2232666016,       27.7557373047
1494295195.9504919052,       -0.2602539062,        0.5185546875,        0.2768554688,      -13.0920410156,      -38.2232666016,       27.7557373047
1494295195.9533119202,       -0.2602539062,        0.5185546875,        0.2768554688,      -13.3361816406,      -49.0722656250,       15.1062011719
1494295195.9560079575,       -0.2602539062,        0.5185546875,        0.2768554688,      -13.3361816406,      -49.0722656250,       15.1062011719
1494295195.9586980343,       -0.3076171875,       -0.1552734375,        0.0952148438,       -5.4168701172,      -44.2962646484,       -3.5400390625
1494295195.9613800049,       -0.3076171875,       -0.1552734375,        0.0952148438,       -5.4168701172,      -44.2962646484,       -3.5400390625
1494295195.9639320374,       -0.3076171875,       -0.1552734375,        0.0952148438,        6.3018798828,      -27.5726318359,      -27.2674560547
1494295195.9664869308,       -0.3076171875,       -0.1552734375,        0.0952148438,        7.0343017578,      -27.5726318359,      -27.2674560547
1494295195.9690461159,       -0.2548828125,       -0.6650390625,       -0.1005859375,        7.0343017578,       -8.0413818359,      -51.3305664062
1494295195.9716570377,       -0.2548828125,       -0.6650390625,       -0.1005859375,       15.7470703125,      -10.6048583984,      -51.3305664062
1494295195.9743580818,       -0.2548828125,       -0.6650390625,       -0.1005859375,       15.7470703125,       -2.7923583984,      -70.9381103516
1494295195.9770569801,       -0.2548828125,       -0.6650390625,       -0.0839843750,       13.0462646484,       -2.6702880859,      -70.9381103516
1494295195.9797539711,       -0.1342773438,       -0.6889648438,       -0.0839843750,       13.0462646484,       -2.6702880859,      -85.2050781250
1494295195.9824690819,       -0.1342773438,       -0.6889648438,       -0.0839843750,        2.5787353516,       -0.3356933594,      -85.2050781250
1494295195.9851570129,       -0.1342773438,       -0.6889648438,       -0.0839843750,        2.5787353516,       -0.3356933594,      -97.6562500000
1494295195.9878439903,       -0.1342773438,       -0.5605468750,       -0.1059570312,      -11.6271972656,        0.0762939453,      -97.6562500000
1494295195.9905340672,       -0.1279296875,       -0.5605468750,       -0.1059570312,      -11.6271972656,        0.0762939453,     -111.3128662109
1494295195.9932351112,       -0.1279296875,       -0.5605468750,       -0.1059570312,      -29.0679931641,       -0.8239746094,     -111.3128662109
1494295195.9959330559,       -0.1279296875,       -0.5605468750,       -0.1059570312,      -29.0679931641,       -0.8239746094,     -124.0386962891
1494295195.9986240864,       -0.1816406250,       -0.3701171875,       -0.1040039062,      -48.5992431641,       -2.5482177734,     -124.0386962891
1494295196.0013649464,       -0.1816406250,       -0.3701171875,       -0.1040039062,      -48.5992431641,       -2.5482177734,     -136.1846923828
1494295196.0040600300,       -0.1816406250,       -0.3701171875,       -0.1040039062,      -67.3828125000,       -4.6081542969,     -136.1846923828
1494295196.0068180561,       -0.1816406250,       -0.3701171875,       -0.1040039062,      -67.3828125000,       -4.6081542969,     -148.0407714844
1494295196.0096590519,       -0.2270507812,       -0.2041015625,       -0.0175781250,      -82.2296142578,       -5.9509277344,     -148.0407714844
1494295196.0126159191,       -0.2270507812,       -0.2041015625,       -0.0175781250,      -82.2296142578,       -5.9509277344,     -158.8287353516
1494295196.0151760578,       -0.2270507812,       -0.2041015625,       -0.0175781250,      -90.3167724609,       -6.5917968750,     -158.8287353516
1494295196.0177369118,       -0.2270507812,       -0.0786132812,        0.0415039062,      -90.3167724609,       -6.5917968750,     -169.3725585938
1494295196.0202970505,       -0.2895507812,       -0.0786132812,        0.0415039062,      -93.9636230469,       -5.8898925781,     -169.3725585938
1494295196.0230100155,       -0.2895507812,       -0.0786132812,        0.0415039062,      -93.9636230469,       -5.8898925781,     -179.6264648438
1494295196.0257160664,       -0.2895507812,       -0.0786132812,        0.0415039062,      -95.6726074219,       -3.8299560547,     -179.6264648438
1494295196.0284121037,       -0.3613281250,       -0.0161132812,        0.0556640625,      -95.6726074219,       -3.8299560547,     -190.2160644531
1494295196.0311679840,       -0.3613281250,       -0.0161132812,        0.0556640625,      -96.8017578125,       -1.2817382812,     -190.2160644531
1494295196.0338609219,       -0.3613281250,       -0.0161132812,        0.0556640625,      -96.8017578125,       -1.2817382812,     -199.9511718750
1494295196.0365600586,       -0.3613281250,       -0.0161132812,        0.0556640625,      -95.7946777344,        0.1831054688,     -199.9511718750
1494295196.0392560959,       -0.3994140625,        0.0078125000,        0.0595703125,      -95.7946777344,        0.1831054688,     -207.7636718750
1494295196.0419039726,       -0.3994140625,        0.0078125000,        0.0595703125,      -93.2617187500,        1.5716552734,     -209.3963623047
1494295196.0444591045,       -0.3994140625,        0.0078125000,        0.0595703125,      -93.2617187500,        1.5716552734,     -209.3963623047
1494295196.0470209122,       -0.3994140625,        0.0078125000,        0.0595703125,      -90.5303955078,        4.3792724609,     -219.3450927734
1494295196.0495719910,       -0.4345703125,       -0.0063476562,        0.0415039062,      -90.5303955078,        4.3792724609,     -219.3450927734
1494295196.0521409512,       -0.4345703125,       -0.0063476562,        0.0415039062,      -87.7990722656,        6.9427490234,     -228.4240722656
1494295196.0546970367,       -0.4345703125,       -0.0063476562,        0.0415039062,      -87.7990722656,        6.9427490234,     -228.4240722656
1494295196.0572540760,       -0.4345703125,       -0.0063476562,        0.0415039062,      -84.3963623047,        9.3078613281,     -236.8164062500
1494295196.0598130226,       -0.4892578125,       -0.0458984375,        0.0063476562,      -84.3963623047,        9.3078613281,     -236.8164062500
1494295196.0624740124,       -0.4892578125,       -0.0458984375,        0.0063476562,      -79.6813964844,       12.0697021484,     -245.3460693359
1494295196.0650351048,       -0.4892578125,       -0.0458984375,        0.0063476562,      -79.6813964844,       12.0697021484,     -245.3460693359
1494295196.0676009655,       -0.4892578125,       -0.0458984375,       -0.1186523438,      -74.5544433594,       15.1062011719,     -254.0283203125
1494295196.0701630116,       -0.5698242188,       -0.0683593750,       -0.0097656250,      -74.5544433594,       15.1062011719,     -254.0283203125
1494295196.0729529858,       -0.5698242188,       -0.0683593750,       -0.0097656250,      -69.7479248047,       18.5699462891,     -262.3748779297
1494295196.0756371021,       -0.5698242188,       -0.0683593750,       -0.0097656250,      -69.7479248047,       18.5699462891,     -262.3748779297
1494295196.0783150196,       -0.5698242188,       -0.0410156250,        0.0053710938,      -64.0716552734,       22.9949951172,     -270.1568603516
1494295196.0810120106,       -0.6606445312,       -0.0410156250,        0.0053710938,      -64.0716552734,       22.9949951172,     -270.1568603516
1494295196.0836880207,       -0.6606445312,       -0.0410156250,        0.0053710938,      -56.2591552734,       26.1535644531,     -276.9927978516
1494295196.0864830017,       -0.6606445312,       -0.0410156250,        0.0053710938,      -57.4188232422,       26.1535644531,     -276.9927978516
1494295196.0891759396,       -0.7451171875,        0.0322265625,        0.0356445312,      -50.2166748047,       28.2897949219,     -283.6608886719
1494295196.0918600559,       -0.7451171875,        0.0322265625,        0.0356445312,      -50.2166748047,       28.2897949219,     -283.6608886719
1494295196.0945498943,       -0.7451171875,        0.0322265625,        0.0356445312,      -46.3104248047,       29.0527343750,     -290.1916503906
1494295196.0972349644,       -0.7451171875,        0.0322265625,        0.0356445312,      -44.7387695312,       29.0527343750,     -290.1916503906
1494295196.0999240875,       -0.8134765625,        0.1010742188,        0.0585937500,      -40.8325195312,       29.2358398438,     -296.7071533203
1494295196.1025400162,       -0.8134765625,        0.1010742188,        0.0585937500,      -42.5109863281,       29.2358398438,     -296.7071533203
1494295196.1050999165,       -0.8134765625,        0.1010742188,        0.0585937500,      -42.5109863281,       29.2358398438,     -303.1921386719
1494295196.1076610088,       -0.8134765625,        0.1010742188,        0.0585937500,      -42.9687500000,       28.8543701172,     -303.1921386719
1494295196.1102290154,       -0.8549804688,        0.1191406250,        0.0703125000,      -42.9687500000,       28.8543701172,     -309.1430664062
1494295196.1128840446,       -0.8549804688,        0.1191406250,        0.0703125000,      -45.2117919922,       27.9998779297,     -309.1430664062
1494295196.1155769825,       -0.8549804688,        0.1191406250,        0.0703125000,      -45.2117919922,       27.9998779297,     -314.8956298828
1494295196.1182670593,       -0.8549804688,        0.1191406250,        0.1123046875,      -46.9512939453,       27.2674560547,     -314.8956298828
1494295196.1210999489,       -0.9501953125,        0.0820312500,        0.1123046875,      -46.9512939453,       27.2674560547,     -320.8618164062
1494295196.1237850189,       -0.9501953125,        0.0820312500,        0.1123046875,      -47.9888916016,       26.6723632812,     -320.8618164062
1494295196.1264688969,       -0.9501953125,        0.0820312500,        0.1123046875,      -47.9888916016,       26.6723632812,     -326.5075683594
1494295196.1293559074,       -1.1069335938,        0.0419921875,        0.1142578125,      -48.9196777344,       26.7333984375,     -326.5075683594
1494295196.1323928833,       -1.1069335938,        0.0419921875,        0.1142578125,      -48.9196777344,       27.9693603516,     -331.6650390625
1494295196.1350929737,       -1.1069335938,        0.0419921875,        0.1142578125,      -50.3692626953,       27.9693603516,     -331.6650390625
1494295196.1377971172,       -1.1069335938,        0.0419921875,        0.1142578125,      -50.3692626953,       30.1361083984,     -336.1511230469
1494295196.1404950619,       -1.2783203125,        0.0556640625,        0.1035156250,      -52.7648925781,       30.1361083984,     -336.1511230469
1494295196.1432070732,       -1.2783203125,        0.0556640625,        0.1035156250,      -52.7648925781,       30.1361083984,     -339.7979736328
1494295196.1459119320,       -1.2783203125,        0.0556640625,        0.1035156250,      -56.3354492188,       30.4870605469,     -339.7979736328
1494295196.1486101151,       -1.2783203125,        0.0556640625,        0.1235351562,      -56.3354492188,       30.4870605469,     -343.0175781250
1494295196.1513600349,       -1.3881835938,        0.1176757812,        0.1235351562,      -59.5855712891,       29.1900634766,     -343.0175781250
1494295196.1540620327,       -1.3881835938,        0.1176757812,        0.1235351562,      -59.5855712891,       29.1900634766,     -345.3063964844
1494295196.1567599773,       -1.3881835938,        0.1176757812,        0.1235351562,      -61.5234375000,       27.5726318359,     -345.3063964844
1494295196.1594629288,       -1.4672851562,        0.2167968750,        0.1469726562,      -61.5234375000,       23.6663818359,     -346.2982177734
1494295196.1622049809,       -1.4672851562,        0.2167968750,        0.1469726562,      -63.4460449219,       27.1148681641,     -346.2982177734
1494295196.1647660732,       -1.4672851562,        0.2167968750,        0.1469726562,      -63.4460449219,       27.1148681641,     -345.4742431641
1494295196.1673259735,       -1.4672851562,        0.2167968750,        0.1469726562,      -64.9566650391,       28.0761718750,     -345.4742431641
1494295196.1698849201,       -1.5107421875,        0.3745117188,        0.1835937500,      -64.9566650391,       28.0761718750,     -341.5679931641
1494295196.1724989414,       -1.5107421875,        0.3745117188,        0.1835937500,      -65.5059814453,       28.4423828125,     -342.3614501953
1494295196.1750540733,       -1.5107421875,        0.3745117188,        0.1835937500,      -65.5059814453,       28.4423828125,     -342.3614501953
1494295196.1776061058,       -1.5107421875,        0.3745117188,        0.1835937500,      -62.4389648438,       28.5186767578,     -338.4552001953
1494295196.1801700592,       -1.5390625000,        0.5839843750,        0.2319335938,      -62.4389648438,       28.5186767578,     -338.4552001953
1494295196.1828339100,       -1.5390625000,        0.5839843750,        0.2319335938,      -54.6417236328,       29.4799804688,     -334.7320556641
1494295196.1853981018,       -1.5390625000,        0.5839843750,        0.2319335938,      -54.6417236328,       29.4799804688,     -334.7320556641
1494295196.1879570484,       -1.5390625000,        0.5839843750,        0.2319335938,      -42.2668457031,       31.6619873047,     -329.6813964844
1494295196.1905150414,       -1.5249023438,        0.6875000000,        0.2329101562,      -42.2668457031,       31.6619873047,     -329.6813964844
1494295196.1933159828,       -1.5249023438,        0.6875000000,        0.2329101562,      -28.9154052734,       32.6995849609,     -323.6236572266
1494295196.1960198879,       -1.5249023438,        0.6875000000,        0.2329101562,      -28.9154052734,       32.6995849609,     -323.6236572266
1494295196.1987180710,       -1.5249023438,        0.6875000000,        0.1918945312,      -17.9901123047,       33.1420898438,     -315.6280517578
1494295196.2014300823,       -1.5200195312,        0.6372070312,        0.1918945312,      -17.9901123047,       33.1420898438,     -315.6280517578
1494295196.2041211128,       -1.5200195312,        0.6372070312,        0.1918945312,      -12.3748779297,       32.3944091797,     -306.5490722656
1494295196.2068300247,       -1.5200195312,        0.6372070312,        0.1918945312,      -12.3748779297,       32.3944091797,     -306.5490722656
1494295196.2095279694,       -1.5200195312,        0.5693359375,        0.1435546875,      -11.5203857422,       30.7922363281,     -296.9970703125
1494295196.2121651173,       -1.5273437500,        0.5693359375,        0.1435546875,      -11.5203857422,       30.7922363281,     -296.9970703125
1494295196.2147250175,       -1.5273437500,        0.5693359375,        0.1435546875,      -16.1895751953,       28.9001464844,     -286.1480712891
1494295196.2172830105,       -1.5273437500,        0.5693359375,        0.1435546875,      -16.1895751953,       28.9001464844,     -286.1480712891
1494295196.2198410034,       -1.4975585938,        0.6000976562,        0.1689453125,      -25.2075195312,       25.2990722656,     -274.0325927734
1494295196.2224509716,       -1.4975585938,        0.6000976562,        0.1689453125,      -25.2075195312,       25.2990722656,     -274.0325927734
1494295196.2250089645,       -1.4975585938,        0.6000976562,        0.1689453125,      -25.2075195312,       20.9808349609,     -259.9029541016
1494295196.2275750637,       -1.4975585938,        0.6000976562,        0.1689453125,      -36.2854003906,       20.9808349609,     -259.9029541016
1494295196.2301371098,       -1.3520507812,        0.7744140625,        0.2250976562,      -36.2854003906,       13.1683349609,     -244.2016601562
1494295196.2329349518,       -1.3520507812,        0.7744140625,        0.2250976562,      -45.9899902344,       15.1672363281,     -244.2016601562
1494295196.2355020046,       -1.3520507812,        0.7744140625,        0.2250976562,      -45.9899902344,       15.1672363281,     -227.6306152344
1494295196.2380619049,       -1.3520507812,        0.7744140625,        0.2250976562,      -53.1158447266,        7.8735351562,     -227.6306152344
1494295196.2406179905,       -1.1220703125,        1.0336914062,        0.2871093750,      -53.1158447266,        7.8735351562,     -208.0993652344
1494295196.2433879375,       -1.1220703125,        1.0336914062,        0.2871093750,      -55.1300048828,        1.1596679688,     -208.7402343750
1494295196.2460870743,       -1.1220703125,        1.0336914062,        0.2871093750,      -55.1300048828,        1.1596679688,     -187.1643066406
1494295196.2490029335,       -1.1220703125,        1.0336914062,        0.1621093750,      -50.7049560547,       -3.7536621094,     -187.1643066406
1494295196.2519919872,       -0.9663085938,        1.2851562500,        0.2299804688,      -50.7049560547,       -7.6599121094,     -162.3077392578
1494295196.2546908855,       -0.9663085938,        1.2851562500,        0.2299804688,      -39.9932861328,       -7.5836181641,     -162.3077392578
1494295196.2573919296,       -0.9663085938,        1.2851562500,        0.2299804688,      -39.9932861328,      -11.4898681641,     -134.9639892578
1494295196.2600901127,       -0.9160156250,        1.4233398438,        0.1147460938,      -26.7181396484,      -10.8489990234,     -134.9639892578
1494295196.2627029419,       -0.9160156250,        1.4233398438,        0.1147460938,      -26.7181396484,      -10.8489990234,     -106.0791015625
1494295196.2652618885,       -0.9160156250,        1.4233398438,        0.1147460938,      -12.9852294922,      -12.3748779297,     -106.0791015625
1494295196.2678210735,       -0.9160156250,        1.4233398438,        0.1147460938,      -12.9852294922,      -12.3748779297,     -106.0791015625
1494295196.2703781128,       -0.8959960938,        1.4384765625,        0.0937500000,       -1.3122558594,      -10.8947753906,      -75.0427246094
1494295196.2730700970,       -0.8959960938,        1.4384765625,        0.0937500000,       -1.3122558594,      -10.8947753906,      -75.0427246094
1494295196.2757639885,       -0.8959960938,        1.4384765625,        0.0937500000,        7.9193115234,       -7.1105957031,      -42.6483154297
1494295196.2784600258,       -0.8959960938,        1.4384765625,        0.0937500000,        7.9193115234,       -7.1105957031,      -42.6483154297
1494295196.2811470032,       -0.8432617188,        1.3359375000,        0.1289062500,       13.0615234375,       -3.3569335938,      -11.1083984375
1494295196.2837100029,       -0.8432617188,        1.3359375000,        0.1289062500,       13.0615234375,       -3.3569335938,      -11.1083984375
1494295196.2862670422,       -0.8432617188,        1.3359375000,        0.1289062500,       11.7340087891,       -1.4190673828,       19.3481445312
1494295196.2888278961,       -0.8432617188,        1.3359375000,        0.1289062500,       11.7340087891,       -1.4190673828,       19.3481445312
1494295196.2913939953,       -0.8271484375,        1.2241210938,        0.1621093750,        5.3405761719,       -1.8157958984,       47.7905273438
1494295196.2939488888,       -0.8271484375,        1.2241210938,        0.1621093750,        5.3405761719,       -1.8157958984,       47.7905273438
1494295196.2965021133,       -0.8271484375,        1.2241210938,        0.1621093750,       -3.9978027344,       -4.3334960938,       73.6541748047
1494295196.2990651131,       -0.8271484375,        1.2241210938,        0.1621093750,       -3.9978027344,       -4.3334960938,       73.6541748047
1494295196.3017220497,       -0.8012695312,        1.1142578125,        0.1831054688,      -14.0991210938,       -8.6669921875,       97.2747802734
1494295196.3042860031,       -0.8012695312,        1.1142578125,        0.1831054688,      -14.0991210938,       -8.6669921875,       97.2747802734
1494295196.3069550991,       -0.8012695312,        1.1142578125,        0.1831054688,      -23.1475830078,      -13.2751464844,      118.7438964844
1494295196.3095180988,       -0.8012695312,        1.1142578125,        0.1831054688,      -23.1475830078,      -13.2751464844,      118.7438964844
1494295196.3122270107,       -0.8090820312,        1.0209960938,        0.1777343750,      -30.9600830078,      -17.8070068359,      138.0004882812
1494295196.3147890568,       -0.8090820312,        1.0209960938,        0.1777343750,      -30.8074951172,      -17.8070068359,      138.0004882812
1494295196.3173530102,       -0.8090820312,        1.0209960938,        0.1777343750,      -30.8074951172,      -21.7132568359,      153.9764404297
1494295196.3199160099,       -0.8090820312,        1.0209960938,        0.2094726562,      -37.5366210938,      -21.8811035156,      153.9764404297
1494295196.3226139545,       -0.8515625000,        0.9570312500,        0.2094726562,      -37.5366210938,      -21.8811035156,      166.5649414062
1494295196.3253190517,       -0.8515625000,        0.9570312500,        0.2094726562,      -43.4570312500,      -26.7333984375,      166.5649414062
1494295196.3280210495,       -0.8515625000,        0.9570312500,        0.2094726562,      -43.4570312500,      -26.7333984375,      170.1507568359
1494295196.3307299614,       -0.9541015625,        0.3095703125,        0.2451171875,      -48.6450195312,      -31.2500000000,      170.1507568359
1494295196.3334329128,       -0.9541015625,        0.3095703125,        0.2451171875,      -48.6450195312,      -31.2500000000,      162.0178222656
1494295196.3361299038,       -0.9541015625,        0.3095703125,        0.2451171875,      -43.9147949219,      -33.2489013672,      162.0178222656
1494295196.3388240337,       -0.9541015625,        0.3095703125,        0.2451171875,      -43.9147949219,      -33.2489013672,      146.2402343750
1494295196.3415288925,       -1.0810546875,       -1.2885742188,        0.1181640625,      -42.0074462891,      -28.9306640625,      146.2402343750
1494295196.3440909386,       -1.0810546875,       -1.2885742188,        0.1181640625,      -42.0074462891,      -28.9306640625,      111.0839843750
1494295196.3466579914,       -1.0810546875,       -1.2885742188,        0.1181640625,      -43.2586669922,      -12.0849609375,      112.0605468750
1494295196.3492119312,       -1.0810546875,       -1.2885742188,        0.1181640625,      -43.2586669922,      -12.0849609375,      112.0605468750
1494295196.3519148827,       -1.2006835938,       -2.9658203125,       -0.3466796875,       -9.9639892578,        3.7078857422,       60.8367919922
1494295196.3544700146,       -1.2006835938,       -2.9658203125,       -0.3466796875,       -9.9639892578,        3.7078857422,       60.8367919922
1494295196.3570199013,       -1.2006835938,       -2.9658203125,       -0.3466796875,       29.5257568359,        8.5906982422,       31.6009521484
1494295196.3595769405,       -1.2006835938,       -2.9658203125,       -0.3466796875,       29.5257568359,        8.5906982422,       31.6009521484
1494295196.3622260094,       -1.4003906250,       -0.8374023438,       -0.5839843750,      -12.7716064453,        7.3394775391,       56.0607910156
1494295196.3647809029,       -1.4003906250,       -0.8374023438,       -0.5839843750,      -12.7716064453,        7.3394775391,       56.0607910156
1494295196.3675909042,       -1.4003906250,       -0.8374023438,       -0.5839843750,     -106.4910888672,       -4.4860839844,      111.1297607422
1494295196.3701519966,       -1.4003906250,       -0.8374023438,       -0.0107421875,     -106.4910888672,       -4.4860839844,      111.1297607422
1494295196.3730480671,       -1.3081054688,        1.5292968750,       -0.0107421875,     -178.2989501953,      -28.1219482422,      161.6363525391
1494295196.3757529259,       -1.3081054688,        1.5292968750,       -0.0107421875,     -178.2989501953,      -28.1219482422,      161.6363525391
1494295196.3784499168,       -1.3081054688,        1.5292968750,       -0.0107421875,     -203.0944824219,      -54.3518066406,      191.1315917969
1494295196.3812720776,       -1.3212890625,        1.8359375000,        0.3959960938,     -203.0944824219,      -54.3518066406,      191.1315917969
1494295196.3839709759,       -1.3212890625,        1.8359375000,        0.3959960938,     -165.1611328125,      -64.6820068359,      196.3500976562
1494295196.3866701126,       -1.3212890625,        1.8359375000,        0.3959960938,     -165.1611328125,      -64.6820068359,      196.3500976562
1494295196.3893699646,       -1.3212890625,        1.8359375000,        0.3959960938,      -72.6928710938,      -55.0079345703,      179.9468994141
1494295196.3920750618,       -1.3056640625,        0.4150390625,       -0.2846679688,      -72.6928710938,      -55.0079345703,      179.9468994141
1494295196.3947770596,       -1.3056640625,        0.4150390625,       -0.2846679688,        5.5694580078,      -41.5496826172,      156.1279296875
1494295196.3974759579,       -1.3056640625,        0.4150390625,       -0.2846679688,        5.5694580078,      -41.5496826172,      156.1279296875
1494295196.4001710415,       -1.3056640625,        0.4150390625,       -0.0346679688,       25.3295898438,      -33.5388183594,      138.1378173828
1494295196.4027841091,       -0.7080078125,        0.1777343750,       -0.0273437500,       25.3295898438,      -33.5388183594,      138.1378173828
1494295196.4053380489,       -0.7080078125,        0.1777343750,       -0.0273437500,       10.8184814453,      -30.3344726562,      125.3204345703
1494295196.4079010487,       -0.7080078125,        0.1777343750,       -0.0273437500,       10.8184814453,      -30.3344726562,      125.3204345703
1494295196.4104659557,       -0.7080078125,        0.1777343750,        0.1606445312,       -1.0833740234,      -28.1524658203,      113.5864257812
1494295196.4130620956,       -0.3857421875,        0.3642578125,        0.1606445312,       -1.0833740234,      -28.1524658203,      113.5864257812
1494295196.4156169891,       -0.3857421875,        0.3642578125,        0.1606445312,       -4.9896240234,      -29.7698974609,      104.0344238281
1494295196.4181768894,       -0.3857421875,        0.3642578125,        0.1606445312,       -4.4708251953,      -29.7698974609,      104.0344238281
1494295196.4208040237,       -0.3857421875,        0.3642578125,        0.2675781250,       -4.4708251953,      -33.6761474609,       98.4802246094
1494295196.4233679771,       -0.5512695312,        0.3291015625,        0.2675781250,       -9.8114013672,      -35.0799560547,       98.4802246094
1494295196.4259219170,       -0.5512695312,        0.3291015625,        0.2675781250,       -9.8114013672,      -35.0799560547,       95.1385498047
1494295196.4284739494,       -0.5512695312,        0.3291015625,        0.2675781250,      -16.4489746094,      -39.0777587891,       95.1385498047
1494295196.4311349392,       -0.5512695312,        0.2636718750,        0.2036132812,      -16.4489746094,      -39.0777587891,       91.2322998047
1494295196.4338519573,       -0.8291015625,        0.2636718750,        0.2036132812,      -18.2495117188,      -40.4510498047,       91.6595458984
1494295196.4365530014,       -0.8291015625,        0.2636718750,        0.2036132812,      -18.2495117188,      -40.4510498047,       87.7532958984
1494295196.4392549992,       -0.8291015625,        0.2636718750,        0.2036132812,      -14.9993896484,      -39.0167236328,       86.6088867188
1494295196.4419679642,       -0.8437500000,        0.2641601562,        0.2187500000,      -14.9993896484,      -39.0167236328,       78.7963867188
1494295196.4446740150,       -0.8437500000,        0.2641601562,        0.2187500000,      -10.4827880859,      -35.6597900391,       81.1920166016
1494295196.4473710060,       -0.8437500000,        0.2641601562,        0.2187500000,      -10.4827880859,      -35.6597900391,       77.2857666016
1494295196.4500739574,       -0.8437500000,        0.2641601562,        0.2187500000,       -4.2877197266,      -34.1644287109,       76.6143798828
1494295196.4528870583,       -0.7050781250,        0.2880859375,        0.3872070312,       -4.2877197266,      -34.1644287109,       72.7081298828
1494295196.4555850029,       -0.7050781250,        0.2880859375,        0.3872070312,        0.2593994141,      -37.9180908203,       73.7762451172
1494295196.4582829475,       -0.7050781250,        0.2880859375,        0.3872070312,        0.2593994141,      -37.9180908203,       73.7762451172
1494295196.4609849453,       -0.7050781250,        0.2880859375,        0.3007812500,        4.0588378906,      -42.8009033203,       73.9135742188
1494295196.4635419846,       -0.8701171875,        0.3872070312,        0.3007812500,        4.0588378906,      -42.8009033203,       73.9135742188
1494295196.4661030769,       -0.8701171875,        0.3872070312,        0.3007812500,       17.5933837891,      -41.9006347656,       73.9440917969
1494295196.4686529636,       -0.8701171875,        0.3872070312,        0.3007812500,       17.5933837891,      -41.9006347656,       73.9440917969
1494295196.4712600708,       -0.8701171875,        0.2622070312,        0.0805664062,       35.4003906250,      -34.4238281250,       72.6928710938
1494295196.4739658833,       -1.0292968750,        0.3540039062,        0.0805664062,       35.4003906250,      -34.4238281250,       72.6928710938
1494295196.4766640663,       -1.0292968750,        0.3540039062,        0.0805664062,       48.7060546875,      -21.7742919922,       66.3452148438
1494295196.4793610573,       -1.0292968750,        0.3540039062,        0.0805664062,       48.7060546875,      -21.7742919922,       66.3452148438
1494295196.4820759296,       -0.8613281250,        0.1611328125,        0.0478515625,       56.3964843750,      -11.0473632812,       56.8389892578
1494295196.4847729206,       -0.8613281250,        0.1611328125,        0.0478515625,       56.3964843750,      -11.0473632812,       56.8389892578
1494295196.4875850677,       -0.8613281250,        0.1611328125,        0.0478515625,       58.7005615234,       -7.3699951172,       50.4455566406
1494295196.4906899929,       -0.8613281250,        0.1611328125,        0.0478515625,       58.7005615234,       -7.3699951172,       50.4455566406
1494295196.4933938980,       -0.7329101562,        0.1289062500,        0.1098632812,       53.6041259766,       -8.5754394531,       47.6684570312
1494295196.4960999489,       -0.7329101562,        0.1289062500,        0.1098632812,       53.6041259766,       -8.5754394531,       47.6684570312
1494295196.4987969398,       -0.7329101562,        0.1289062500,        0.1098632812,       46.6308593750,       -9.8114013672,       44.9829101562
1494295196.5015370846,       -0.7329101562,        0.0039062500,        0.0473632812,       46.6308593750,       -9.8114013672,       44.9829101562
1494295196.5042350292,       -0.7460937500,        0.1010742188,        0.0473632812,       40.6188964844,       -9.1857910156,       41.7175292969
1494295196.5069320202,       -0.7460937500,        0.1010742188,        0.0473632812,       40.6188964844,       -9.1857910156,       41.7175292969
1494295196.5096349716,       -0.7460937500,        0.1010742188,        0.0473632812,       36.5753173828,       -8.9721679688,       38.2995605469
1494295196.5122919083,       -0.7426757812,        0.0937500000,        0.0156250000,       36.5753173828,       -8.9721679688,       38.2995605469
1494295196.5148420334,       -0.7426757812,        0.0937500000,        0.0156250000,       35.4156494141,      -11.0473632812,       35.2783203125
1494295196.5174040794,       -0.7426757812,        0.0937500000,        0.0156250000,       35.4156494141,      -11.0473632812,       35.2783203125
1494295196.5199580193,       -0.7426757812,        0.0937500000,        0.0156250000,       34.4696044922,      -14.0380859375,       32.9132080078
1494295196.5225379467,       -0.7485351562,        0.1225585938,       -0.0063476562,       34.4696044922,      -14.0380859375,       32.9132080078
1494295196.5251030922,       -0.7485351562,        0.1225585938,       -0.0063476562,       31.7535400391,      -17.5628662109,       30.7922363281
1494295196.5277678967,       -0.7485351562,        0.1225585938,       -0.0063476562,       31.7535400391,      -17.5628662109,       30.7922363281
1494295196.5303308964,       -0.7485351562,        0.1225585938,       -0.0063476562,       29.0679931641,      -20.9503173828,       27.9541015625
1494295196.5330350399,       -0.7314453125,        0.0893554688,        0.0009765625,       29.0679931641,      -20.9503173828,       27.9541015625
1494295196.5355939865,       -0.7314453125,        0.0893554688,        0.0009765625,       26.8402099609,      -24.2156982422,       25.1312255859
1494295196.5381629467,       -0.7314453125,        0.0893554688,        0.0009765625,       26.8402099609,      -24.2156982422,       25.1312255859
1494295196.5407938957,       -0.7314453125,        0.0893554688,        0.0009765625,       26.8402099609,      -26.4587402344,       23.1170654297
1494295196.5435121059,       -0.7250976562,        0.0473632812,        0.0292968750,       26.8402099609,      -26.4587402344,       23.1170654297
1494295196.5462179184,       -0.7250976562,        0.0473632812,        0.0292968750,       30.7464599609,      -26.9622802734,       21.6674804688
1494295196.5489199162,       -0.7250976562,        0.0473632812,        0.0292968750,       28.1219482422,      -26.9622802734,       21.6674804688
1494295196.5516369343,       -0.7250976562,        0.0473632812,        0.0410156250,       28.1219482422,      -26.8707275391,       20.0195312500
1494295196.5543310642,       -0.7387695312,        0.0502929688,        0.0410156250,       30.3344726562,      -26.8707275391,       20.0195312500
1494295196.5570249557,       -0.7387695312,        0.0502929688,        0.0410156250,       30.3344726562,      -26.0162353516,       18.6309814453
1494295196.5597250462,       -0.7387695312,        0.0502929688,        0.0410156250,       33.4014892578,      -26.0162353516,       18.6309814453
1494295196.5623469353,       -0.7387695312,        0.0708007812,        0.0693359375,       33.4014892578,      -26.0162353516,       16.9372558594
1494295196.5649070740,       -0.7377929688,        0.0708007812,        0.0693359375,       38.2995605469,      -24.8413085938,       16.9372558594
1494295196.5674619675,       -0.7377929688,        0.0708007812,        0.0693359375,       38.2995605469,      -24.8413085938,       15.6097412109
1494295196.5700149536,       -0.7377929688,        0.0708007812,        0.0693359375,       44.3878173828,      -23.2696533203,       15.6097412109
1494295196.5725901127,       -0.7377929688,        0.0834960938,        0.1088867188,       44.3878173828,      -23.2696533203,       15.6097412109
1494295196.5751540661,       -0.7329101562,        0.0834960938,        0.1088867188,       51.9256591797,      -21.6979980469,       14.3737792969
1494295196.5777080059,       -0.7329101562,        0.0834960938,        0.1088867188,       51.9256591797,      -21.6979980469,       14.3737792969
1494295196.5802710056,       -0.7329101562,        0.0834960938,        0.1088867188,       59.7839355469,      -19.5617675781,       14.0380859375
1494295196.5830070972,       -0.7294921875,        0.0537109375,        0.1479492188,       59.7839355469,      -19.5617675781,       14.0380859375
1494295196.5857079029,       -0.7294921875,        0.0537109375,        0.1479492188,       66.3146972656,      -17.2576904297,       14.7857666016
1494295196.5884089470,       -0.7294921875,        0.0537109375,        0.1479492188,       66.3146972656,      -17.2576904297,       14.7857666016
1494295196.5911500454,       -0.7294921875,        0.0537109375,        0.1479492188,       70.0225830078,      -14.7705078125,       17.1051025391
1494295196.5938539505,       -0.7133789062,       -0.0600585938,        0.1752929688,       70.0225830078,      -14.7705078125,       17.1051025391
1494295196.5965540409,       -0.7133789062,       -0.0600585938,        0.1752929688,       71.1364746094,      -13.3819580078,       19.1497802734
1494295196.5994100571,       -0.7133789062,       -0.0600585938,        0.1752929688,       71.1364746094,      -13.3819580078,       23.0560302734
1494295196.6026511192,       -0.7133789062,       -0.1850585938,        0.1933593750,       69.0460205078,      -13.0004882812,       21.0723876953
1494295196.6053569317,       -0.6992187500,       -0.1850585938,        0.1933593750,       69.0460205078,      -13.0004882812,       21.0723876953
1494295196.6080620289,       -0.6992187500,       -0.1850585938,        0.1933593750,       63.7817382812,      -12.3596191406,       22.0489501953
1494295196.6107699871,       -0.6992187500,       -0.1850585938,        0.1933593750,       63.7817382812,      -12.3596191406,       22.0489501953
1494295196.6133339405,       -0.6674804688,       -0.2226562500,        0.1977539062,       55.4504394531,      -12.0544433594,       22.8576660156
1494295196.6158900261,       -0.6674804688,       -0.2226562500,        0.1977539062,       55.4504394531,      -12.0544433594,       22.8576660156
1494295196.6184420586,       -0.6674804688,       -0.2226562500,        0.1977539062,       47.2259521484,      -12.0239257812,       24.3072509766
1494295196.6210250854,       -0.6674804688,       -0.2226562500,        0.1977539062,       47.2259521484,      -12.0239257812,       24.3072509766
1494295196.6243009567,       -0.6611328125,       -0.1777343750,        0.1650390625,       40.0695800781,      -12.1002197266,       26.1077880859
1494295196.6268560886,       -0.6611328125,       -0.1777343750,        0.1650390625,       40.0695800781,      -12.1002197266,       26.1077880859
1494295196.6294128895,       -0.6611328125,       -0.1777343750,        0.1650390625,       32.7606201172,      -11.3220214844,       28.3203125000
1494295196.6320829391,       -0.6611328125,       -0.1777343750,        0.1650390625,       32.7606201172,      -11.3220214844,       28.3203125000
1494295196.6346409321,       -0.6889648438,       -0.0644531250,        0.1328125000,       26.1383056641,      -11.1541748047,       30.6701660156
1494295196.6372029781,       -0.6889648438,       -0.0644531250,        0.1328125000,       26.1383056641,      -11.1541748047,       30.6701660156
1494295196.6397600174,       -0.6889648438,       -0.0644531250,        0.1328125000,       21.8200683594,      -12.3138427734,       32.9437255859
1494295196.6423308849,       -0.6889648438,       -0.0644531250,        0.1328125000,       21.8200683594,      -12.3138427734,       32.9437255859
1494295196.6448850632,       -0.7050781250,       -0.0229492188,        0.1381835938,       23.6358642578,      -12.6800537109,       34.2712402344
1494295196.6474370956,       -0.7050781250,       -0.0229492188,        0.1381835938,       23.6358642578,      -12.6800537109,       34.2712402344
1494295196.6499900818,       -0.7050781250,       -0.0229492188,        0.1381835938,       28.9459228516,      -12.0544433594,       35.2630615234
1494295196.6526269913,       -0.7050781250,       -0.0229492188,        0.1328125000,       28.9459228516,      -12.0544433594,       35.2630615234
1494295196.6551830769,       -0.7138671875,        0.0258789062,        0.1328125000,       32.8521728516,      -11.0473632812,       36.4379882812
1494295196.6577401161,       -0.7138671875,        0.0258789062,        0.1328125000,       34.8815917969,      -11.0473632812,       36.4379882812
1494295196.6603009701,       -0.7138671875,        0.0258789062,        0.1328125000,       34.8815917969,      -10.3454589844,       37.7807617188
1494295196.6630098820,       -0.7138671875,        0.0654296875,        0.1367187500,       40.6341552734,      -10.3454589844,       37.7807617188
1494295196.6655669212,       -0.7294921875,        0.0654296875,        0.1367187500,       40.6341552734,      -10.3454589844,       39.6423339844
1494295196.6681270599,       -0.7294921875,        0.0654296875,        0.1367187500,       44.6472167969,      -10.0708007812,       39.6423339844
1494295196.6707251072,       -0.7294921875,        0.0654296875,        0.1367187500,       44.6472167969,      -10.0708007812,       41.3970947266
1494295196.6735370159,       -0.7431640625,        0.0112304688,        0.1274414062,       46.4324951172,      -10.0250244141,       41.3970947266
1494295196.6762399673,       -0.7431640625,        0.0112304688,        0.1274414062,       46.4324951172,      -10.0250244141,       43.2891845703
1494295196.6789419651,       -0.7431640625,        0.0112304688,        0.1274414062,       45.9136962891,       -9.9029541016,       43.2891845703
1494295196.6816539764,       -0.7431640625,        0.0112304688,        0.1274414062,       45.9136962891,       -9.9029541016,       45.8831787109
1494295196.6843500137,       -0.7509765625,       -0.0283203125,        0.0961914062,       43.1671142578,      -10.3454589844,       45.8831787109
1494295196.6870460510,       -0.7509765625,       -0.0283203125,        0.0961914062,       43.1671142578,      -10.3454589844,       47.9736328125
1494295196.6897470951,       -0.7509765625,       -0.0283203125,        0.0961914062,       39.5965576172,      -10.3912353516,       47.9736328125
1494295196.6923770905,       -0.7509765625,       -0.0283203125,        0.0961914062,       39.5965576172,      -10.3912353516,       47.9736328125
1494295196.6949360371,       -0.7646484375,       -0.0161132812,        0.0527343750,       35.8428955078,      -10.5133056641,       50.1556396484
1494295196.6974968910,       -0.7646484375,       -0.0161132812,        0.0527343750,       35.8428955078,      -10.5133056641,       50.1556396484
1494295196.7000589371,       -0.7646484375,       -0.0161132812,        0.0527343750,       31.5399169922,      -10.5590820312,       52.7954101562
1494295196.7026929855,       -0.7646484375,       -0.0161132812,        0.0527343750,       31.5399169922,      -10.5590820312,       52.7954101562
1494295196.7052490711,       -0.7788085938,        0.0190429688,        0.0302734375,       27.8167724609,      -10.4675292969,       55.0079345703
1494295196.7078111172,       -0.7788085938,        0.0190429688,        0.0302734375,       27.8167724609,      -10.4675292969,       55.0079345703
1494295196.7103700638,       -0.7788085938,        0.0190429688,        0.0302734375,       25.0854492188,      -11.1236572266,       57.8613281250
1494295196.7130730152,       -0.7788085938,        0.0190429688,        0.0419921875,       25.0854492188,      -11.1236572266,       57.8613281250
1494295196.7157690525,       -0.7851562500,        0.0312500000,        0.0419921875,       24.3530273438,      -11.4746093750,       60.0280761719
1494295196.7186670303,       -0.7851562500,        0.0312500000,        0.0419921875,       24.3530273438,      -11.4746093750,       60.0280761719
1494295196.7217719555,       -0.7851562500,        0.0312500000,        0.0419921875,       24.0020751953,      -11.6729736328,       61.8286132812
1494295196.7244780064,       -0.7900390625,        0.0351562500,        0.0751953125,       24.0020751953,      -11.6729736328,       61.8286132812
1494295196.7271749973,       -0.7900390625,        0.0351562500,        0.0751953125,       23.9257812500,      -11.3983154297,       64.4531250000
1494295196.7298688889,       -0.7900390625,        0.0351562500,        0.0751953125,       23.9257812500,      -11.3983154297,       64.4531250000
1494295196.7325849533,       -0.7900390625,        0.0351562500,        0.0751953125,       23.5290527344,      -11.4135742188,       67.2912597656
1494295196.7352850437,       -0.7895507812,        0.0322265625,        0.0996093750,       23.5290527344,      -11.4135742188,       67.2912597656
1494295196.7379860878,       -0.7895507812,        0.0322265625,        0.0996093750,       22.8118896484,      -11.5966796875,       69.7784423828
1494295196.7406990528,       -0.7895507812,        0.0322265625,        0.0996093750,       22.8118896484,      -11.5966796875,       69.7784423828
1494295196.7434010506,       -0.7895507812,        0.0322265625,        0.1103515625,       22.2778320312,      -11.6424560547,       73.4558105469
1494295196.7461049557,       -0.7885742188,       -0.0102539062,        0.1103515625,       22.2778320312,      -11.6424560547,       73.4558105469
1494295196.7489230633,       -0.7885742188,       -0.0102539062,        0.1103515625,       21.4385986328,      -11.9934082031,       77.3925781250
1494295196.7516040802,       -0.7885742188,       -0.0102539062,        0.1103515625,       21.4385986328,      -11.9934082031,       77.3925781250
1494295196.7541608810,       -0.7885742188,       -0.0312500000,        0.1132812500,       20.0653076172,      -12.1765136719,       82.0465087891
1494295196.7567219734,       -0.7729492188,       -0.0312500000,        0.1132812500,       20.0653076172,      -12.1765136719,       82.0465087891
1494295196.7592771053,       -0.7729492188,       -0.0312500000,        0.1132812500,       19.1192626953,      -12.3443603516,       86.3342285156
1494295196.7618949413,       -0.7729492188,       -0.0312500000,        0.1132812500,       19.1192626953,      -12.3443603516,       86.3342285156
1494295196.7644529343,       -0.8017578125,       -0.0356445312,        0.1035156250,       17.7307128906,      -11.7187500000,       90.7745361328
1494295196.7670130730,       -0.8017578125,       -0.0356445312,        0.1035156250,       17.7307128906,      -11.7187500000,       90.7745361328
1494295196.7695729733,       -0.8017578125,       -0.0356445312,        0.1035156250,       15.3350830078,      -10.7421875000,       95.1232910156
1494295196.7722458839,       -0.8017578125,       -0.0356445312,        0.1035156250,       15.3350830078,      -10.7421875000,       95.1232910156
1494295196.7748041153,       -0.8750000000,        0.0019531250,        0.0712890625,       15.3350830078,      -10.0250244141,       99.5635986328
1494295196.7773630619,       -0.8750000000,        0.0019531250,        0.0712890625,       13.2751464844,      -10.0250244141,       99.5635986328
1494295196.7799210548,       -0.8750000000,        0.0019531250,        0.0712890625,       13.2751464844,      -10.0250244141,      103.6071777344
1494295196.7827069759,       -0.8750000000,        0.0019531250,        0.0712890625,       11.4746093750,      -10.1776123047,      103.6071777344
1494295196.7854149342,       -0.9379882812,        0.0239257812,        0.0473632812,       11.4746093750,      -10.1776123047,      107.1624755859
1494295196.7881140709,       -0.9379882812,        0.0239257812,        0.0473632812,       11.5966796875,       -9.4604492188,      107.1624755859
1494295196.7908110619,       -0.9379882812,        0.0239257812,        0.0473632812,       11.5966796875,       -9.4604492188,      109.8937988281
1494295196.7935099602,       -0.9379882812,        0.0239257812,        0.0473632812,       12.2222900391,       -7.9193115234,      109.8937988281
1494295196.7962050438,       -0.9902343750,        0.0874023438,        0.0571289062,       12.2222900391,       -7.9193115234,      113.0981445312
1494295196.7988979816,       -0.9902343750,        0.0874023438,        0.0571289062,       12.8326416016,       -7.7209472656,      113.0981445312
1494295196.8015689850,       -0.9902343750,        0.0874023438,        0.0571289062,       12.8326416016,       -7.7209472656,      115.6768798828
1494295196.8041219711,       -0.9902343750,        0.0874023438,       -0.0083007812,       15.0146484375,       -7.9193115234,      115.6768798828
1494295196.8066790104,       -1.0576171875,        0.1166992188,       -0.0083007812,       15.0146484375,       -7.9193115234,      115.6768798828
1494295196.8092370033,       -1.0576171875,        0.1166992188,       -0.0083007812,       18.1884765625,       -7.3242187500,      117.8131103516
1494295196.8118031025,       -1.0576171875,        0.1166992188,       -0.0083007812,       18.1884765625,       -7.3242187500,      117.8131103516
1494295196.8143630028,       -1.0576171875,        0.0981445312,        0.0078125000,       20.6298828125,       -7.0953369141,      120.5444335938
1494295196.8169240952,       -1.0732421875,        0.0981445312,        0.0078125000,       20.6298828125,       -7.0953369141,      120.5444335938
1494295196.8194770813,       -1.0732421875,        0.0981445312,        0.0078125000,       22.5982666016,       -5.9204101562,      123.8250732422
1494295196.8222939968,       -1.0732421875,        0.0981445312,        0.0078125000,       22.5982666016,       -5.9204101562,      123.8250732422
1494295196.8249928951,       -1.0751953125,        0.0380859375,        0.0302734375,       23.5443115234,       -4.9438476562,      126.8768310547
1494295196.8276910782,       -1.0751953125,        0.0380859375,        0.0302734375,       23.5443115234,       -4.9438476562,      126.8768310547
1494295196.8303771019,       -1.0751953125,        0.0380859375,        0.0302734375,       23.2543945312,       -4.5318603516,      129.6691894531
1494295196.8330769539,       -1.0751953125,        0.0380859375,        0.0302734375,       23.2543945312,       -4.5318603516,      129.6691894531
1494295196.8357670307,       -1.0913085938,        0.0546875000,        0.0771484375,       24.0173339844,       -4.1656494141,      132.2021484375
1494295196.8386631012,       -1.0913085938,        0.0546875000,        0.0771484375,       24.0173339844,       -4.1656494141,      132.2021484375
1494295196.8414149284,       -1.0913085938,        0.0546875000,        0.0771484375,       25.6958007812,       -3.6621093750,      135.1318359375
1494295196.8442039490,       -1.0913085938,        0.0546875000,        0.1499023438,       25.6958007812,       -3.6621093750,      135.1318359375
1494295196.8470909595,       -1.0966796875,        0.0615234375,        0.1499023438,       28.8391113281,       -2.0141601562,      137.4511718750
1494295196.8497130871,       -1.0966796875,        0.0615234375,        0.1499023438,       28.8391113281,       -2.0141601562,      137.4511718750
1494295196.8523509502,       -1.0966796875,        0.0615234375,        0.1499023438,       33.5540771484,       -0.3051757812,      139.6331787109
1494295196.8548989296,       -1.0966796875,       -0.0185546875,        0.1430664062,       33.5540771484,       -0.3051757812,      139.6331787109
1494295196.8574481010,       -1.1015625000,       -0.0185546875,        0.1430664062,       42.0532226562,        1.5106201172,      140.3656005859
1494295196.8599979877,       -1.1015625000,       -0.0185546875,        0.1430664062,       42.0532226562,        1.5106201172,      140.3656005859
1494295196.8625600338,       -1.1015625000,       -0.0185546875,        0.1430664062,       47.7905273438,        1.9683837891,      141.7388916016
1494295196.8651080132,       -1.0966796875,        0.0502929688,        0.1835937500,       47.7905273438,        1.9683837891,      141.7388916016
1494295196.8676629066,       -1.0966796875,        0.0502929688,        0.1835937500,       49.1027832031,       -0.4577636719,      145.0347900391
1494295196.8702108860,       -1.0966796875,        0.0502929688,        0.1835937500,       49.1027832031,       -0.4577636719,      145.0347900391
1494295196.8727691174,       -1.0966796875,        0.0502929688,        0.1835937500,       49.1027832031,       -3.1127929688,      147.6135253906
1494295196.8753221035,       -1.1508789062,       -0.0380859375,        0.1357421875,       58.8226318359,       -3.1127929688,      147.6135253906
1494295196.8778719902,       -1.1508789062,       -0.0380859375,        0.1357421875,       58.8226318359,       -3.1127929688,      150.6652832031
1494295196.8804280758,       -1.1508789062,       -0.0380859375,        0.1357421875,       69.8242187500,       -3.6468505859,      150.6652832031
1494295196.8830471039,       -1.1508789062,       -0.0380859375,        0.1357421875,       69.8242187500,       -3.6468505859,      154.5715332031
1494295196.8856029510,       -1.2695312500,       -0.1308593750,        0.1503906250,       77.2094726562,       -4.0435791016,      154.5715332031
1494295196.8881649971,       -1.2695312500,       -0.1308593750,        0.1503906250,       77.2094726562,       -4.0435791016,      154.5715332031
1494295196.8908109665,       -1.2695312500,       -0.1308593750,        0.1503906250,       85.3271484375,       -4.1961669922,      158.9660644531
1494295196.8934829235,       -1.2695312500,       -0.1308593750,        0.1503906250,       85.3271484375,       -4.1961669922,      158.9660644531
1494295196.8960421085,       -1.4584960938,       -0.3090820312,        0.1923828125,       95.1995849609,       -5.0964355469,      162.8112792969
1494295196.8985970020,       -1.4584960938,       -0.3090820312,        0.1923828125,       95.1995849609,       -5.0964355469,      162.8112792969
1494295196.9012749195,       -1.4584960938,       -0.3090820312,        0.1923828125,      106.7657470703,       -7.0343017578,      165.5883789062
1494295196.9038290977,       -1.4584960938,       -0.3090820312,        0.1923828125,      106.7657470703,       -7.0343017578,      165.5883789062
1494295196.9063830376,       -1.6538085938,       -0.4633789062,        0.1772460938,      121.3836669922,       -8.9111328125,      167.7093505859
1494295196.9089469910,       -1.6538085938,       -0.4633789062,        0.1772460938,      121.3836669922,       -8.9111328125,      167.7093505859
1494295196.9115869999,       -1.6538085938,       -0.4633789062,        0.1772460938,      140.2435302734,       -9.0179443359,      168.8537597656
1494295196.9142849445,       -1.6538085938,       -0.4633789062,        0.1772460938,      140.2435302734,       -9.0179443359,      168.8537597656
1494295196.9169759750,       -1.7939453125,       -0.6503906250,        0.1132812500,      159.2102050781,       -7.6446533203,      168.5638427734
1494295196.9196710587,       -1.7939453125,       -0.6503906250,        0.1132812500,      159.2102050781,       -7.6446533203,      168.5638427734
1494295196.9223821163,       -1.7939453125,       -0.6503906250,        0.1132812500,      179.0313720703,       -2.1514892578,      167.7703857422
1494295196.9250760078,       -1.7939453125,       -0.7753906250,        0.0048828125,      179.0313720703,       -2.1514892578,      167.7703857422
1494295196.9277720451,       -1.7172851562,       -0.8466796875,        0.0048828125,      200.2868652344,        5.7983398438,      166.4733886719
1494295196.9304709435,       -1.7172851562,       -0.8466796875,        0.0048828125,      200.2868652344,        5.7983398438,      166.4733886719
1494295196.9331779480,       -1.7172851562,       -0.8466796875,        0.0048828125,      208.5571289062,       14.2974853516,      168.5333251953
1494295196.9358789921,       -1.5551757812,       -0.4667968750,       -0.0786132812,      208.5571289062,       14.2974853516,      168.5333251953
1494295196.9385759830,       -1.5551757812,       -0.4667968750,       -0.0786132812,      188.6901855469,       23.2238769531,      177.3986816406
1494295196.9412839413,       -1.5551757812,       -0.4667968750,       -0.0786132812,      188.6901855469,       23.2238769531,      177.3986816406
1494295196.9439890385,       -1.5551757812,       -0.4667968750,       -0.0786132812,      143.1579589844,       29.0374755859,      192.1081542969
1494295196.9466838837,       -1.4482421875,       -0.1215820312,        0.1235351562,      143.1579589844,       29.0374755859,      192.1081542969
1494295196.9493811131,       -1.4482421875,       -0.1215820312,        0.1235351562,       87.0666503906,       28.7322998047,      205.5206298828
1494295196.9520339966,       -1.4482421875,       -0.1215820312,        0.1235351562,       87.0666503906,       28.7322998047,      205.5206298828
1494295196.9545900822,       -1.4482421875,       -0.1215820312,        0.1235351562,       40.1916503906,       24.0783691406,      212.7990722656
1494295196.9572210312,       -1.3666992188,       -0.1801757812,        0.4077148438,       40.6799316406,       24.0783691406,      212.7990722656
1494295196.9597880840,       -1.3666992188,       -0.1801757812,        0.4077148438,       17.2424316406,       20.5230712891,      212.1276855469
1494295196.9626679420,       -1.3666992188,       -0.1801757812,        0.4077148438,       18.0358886719,       20.5230712891,      212.1276855469
1494295196.9653670788,       -1.3666992188,       -0.3051757812,        0.2866210938,       14.1296386719,       20.9045410156,      204.4830322266
1494295196.9681770802,       -1.3295898438,       -0.2758789062,        0.2866210938,       15.5487060547,       20.9045410156,      204.4830322266
1494295196.9709300995,       -1.3295898438,       -0.2758789062,        0.2866210938,       19.4549560547,       23.1781005859,      194.4274902344
1494295196.9736270905,       -1.3295898438,       -0.2758789062,        0.2866210938,       19.2413330078,       23.1781005859,      194.4274902344
1494295196.9763240814,       -1.1977539062,       -0.3554687500,        0.1611328125,       15.3350830078,       24.5666503906,      184.1583251953
1494295196.9790239334,       -1.1977539062,       -0.3554687500,        0.1611328125,       12.3748779297,       24.5666503906,      184.1583251953
1494295196.9817659855,       -1.1977539062,       -0.3554687500,        0.1611328125,       -3.2501220703,       26.8554687500,      177.0935058594
1494295196.9844648838,       -1.1977539062,       -0.3554687500,        0.1611328125,       -2.4261474609,       26.8554687500,      177.0935058594
1494295196.9871609211,       -0.8725585938,       -0.1870117188,        0.1791992188,      -25.8636474609,       25.8636474609,      172.7905273438
1494295196.9898629189,       -0.8725585938,       -0.1870117188,        0.1791992188,      -24.1546630859,       25.8636474609,      172.7905273438
1494295196.9924860001,       -0.8725585938,       -0.1870117188,        0.1791992188,      -24.1546630859,       14.6942138672,      166.3513183594
1494295196.9950430393,       -0.8725585938,       -0.1870117188,        0.1791992188,      -46.6918945312,       14.6942138672,      166.3513183594
1494295196.9976029396,       -0.5849609375,       -0.0058593750,        0.1743164062,      -46.6918945312,       14.6942138672,      152.1148681641
1494295197.0001659393,       -0.5849609375,       -0.0058593750,        0.1743164062,      -62.8662109375,        1.5106201172,      152.1148681641
1494295197.0027298927,       -0.5849609375,       -0.0058593750,        0.1743164062,      -62.8662109375,        1.5106201172,      132.5836181641
1494295197.0052940845,       -0.5849609375,       -0.0058593750,        0.1743164062,      -74.6002197266,      -11.4440917969,      129.7607421875
1494295197.0078530312,       -0.4829101562,        0.2363281250,        0.2241210938,      -74.6002197266,      -11.4440917969,      129.7607421875
1494295197.0104129314,       -0.4829101562,        0.2363281250,        0.2241210938,      -83.4655761719,      -22.6440429688,      102.3864746094
1494295197.0130290985,       -0.4829101562,        0.2363281250,        0.2241210938,      -83.4655761719,      -22.6440429688,      102.3864746094
1494295197.0155858994,       -0.4829101562,        0.2363281250,        0.0815429688,      -75.4852294922,      -25.6500244141,       73.7457275391
1494295197.0181500912,       -0.4555664062,        0.4130859375,        0.0815429688,      -75.4852294922,      -25.6500244141,       73.7457275391
1494295197.0207929611,       -0.4555664062,        0.4130859375,        0.0815429688,      -39.9780273438,      -17.8985595703,       51.2542724609
1494295197.0234599113,       -0.4555664062,        0.4130859375,        0.0815429688,      -39.9780273438,      -17.8985595703,       51.2542724609
1494295197.0261480808,       -0.3305664062,        0.5634765625,        0.1679687500,       -4.9591064453,       -8.9874267578,       37.0941162109
1494295197.0290510654,       -0.3657226562,        0.5634765625,        0.1679687500,       -4.9591064453,       -8.9874267578,       37.0941162109
1494295197.0317540169,       -0.3657226562,        0.5634765625,        0.1679687500,        1.6021728516,      -13.7939453125,       25.2075195312
1494295197.0344529152,       -0.3657226562,        0.5634765625,        0.1679687500,        1.6021728516,      -13.7939453125,       25.2075195312
1494295197.0371420383,       -0.2524414062,        0.1518554688,        0.3872070312,       -7.8277587891,      -26.1383056641,        9.6893310547
1494295197.0398340225,       -0.2524414062,        0.1518554688,        0.3872070312,       -7.8277587891,      -26.1383056641,        9.6893310547
1494295197.0426781178,       -0.2524414062,        0.1518554688,        0.3872070312,      -14.4348144531,      -29.5715332031,       -8.2855224609
1494295197.0453710556,       -0.2524414062,        0.1518554688,        0.3872070312,      -14.4348144531,      -29.5715332031,       -8.2855224609
1494295197.0480649471,       -0.2841796875,       -0.3706054688,        0.1455078125,       -8.1787109375,      -21.2707519531,      -29.3426513672
1494295197.0507709980,       -0.2841796875,       -0.3706054688,        0.1455078125,       -8.1787109375,      -21.2707519531,      -29.3426513672
1494295197.0533270836,       -0.2841796875,       -0.3706054688,        0.1455078125,        5.7373046875,       -7.5378417969,      -53.3905029297
1494295197.0558900833,       -0.2841796875,       -0.3706054688,        0.0410156250,        5.7373046875,       -7.5378417969,      -53.3905029297
1494295197.0584390163,       -0.2036132812,       -0.7036132812,        0.0410156250,       20.7824707031,        5.5694580078,      -76.4923095703
1494295197.0610220432,       -0.2036132812,       -0.7036132812,        0.0410156250,       20.7824707031,        5.5694580078,      -76.4923095703
1494295197.0637021065,       -0.2036132812,       -0.7036132812,        0.0410156250,       29.6936035156,       11.3067626953,      -94.6807861328
1494295197.0663869381,       -0.2036132812,       -0.5981445312,       -0.0356445312,       29.6936035156,       11.3067626953,      -94.6807861328
1494295197.0690710545,       -0.1259765625,       -0.5981445312,       -0.0356445312,       28.3508300781,        9.7045898438,     -109.1461181641
1494295197.0718810558,       -0.1259765625,       -0.5981445312,       -0.0356445312,       28.3508300781,        9.7045898438,     -109.1461181641
1494295197.0745379925,       -0.1259765625,       -0.5981445312,       -0.0356445312,       15.3350830078,        6.9885253906,     -121.7803955078
1494295197.0774660110,       -0.1499023438,       -0.3608398438,       -0.0888671875,       15.3350830078,        6.9885253906,     -121.7803955078
1494295197.0801529884,       -0.1499023438,       -0.3608398438,       -0.0888671875,       -4.8828125000,        4.0893554688,     -133.9721679688
1494295197.0832600594,       -0.1499023438,       -0.3608398438,       -0.0888671875,       -4.8828125000,        4.0893554688,     -133.9721679688
1494295197.0859360695,       -0.1499023438,       -0.3608398438,       -0.0888671875,      -23.5900878906,        1.9836425781,     -146.9573974609
1494295197.0886120796,       -0.2006835938,       -0.2011718750,       -0.0356445312,      -23.5900878906,        1.9836425781,     -146.9573974609
1494295197.0913369656,       -0.2006835938,       -0.2011718750,       -0.0356445312,      -35.0341796875,        0.5493164062,     -158.9660644531
1494295197.0940179825,       -0.2006835938,       -0.2011718750,       -0.0356445312,      -35.0341796875,        0.5493164062,     -158.9660644531
1494295197.0966930389,       -0.2006835938,       -0.1118164062,        0.0332031250,      -39.7491455078,        0.0762939453,     -169.7540283203
1494295197.0993759632,       -0.2563476562,       -0.1118164062,        0.0332031250,      -39.7491455078,        0.0762939453,     -169.7540283203
1494295197.1020069122,       -0.2563476562,       -0.1118164062,        0.0332031250,      -38.2995605469,        0.9918212891,     -181.3201904297
1494295197.1045670509,       -0.2563476562,       -0.1118164062,        0.0332031250,      -38.2995605469,        0.9918212891,     -181.3201904297
1494295197.1071269512,       -0.2563476562,       -0.0434570312,        0.0561523438,      -35.0189208984,        2.8686523438,     -193.8018798828
1494295197.1096839905,       -0.2934570312,       -0.0434570312,        0.0561523438,      -35.0189208984,        2.8686523438,     -193.8018798828
1494295197.1123490334,       -0.2934570312,       -0.0434570312,        0.0561523438,      -35.0189208984,        6.6833496094,     -205.2764892578
1494295197.1150050163,       -0.2934570312,       -0.0434570312,        0.0561523438,      -34.8205566406,        6.6833496094,     -205.2764892578
1494295197.1175639629,       -0.3364257812,        0.0063476562,        0.0131835938,      -34.8205566406,       10.5895996094,     -215.9576416016
1494295197.1201279163,       -0.3364257812,        0.0063476562,        0.0131835938,      -32.4707031250,        9.4299316406,     -215.9576416016
1494295197.1227018833,       -0.3364257812,        0.0063476562,        0.0131835938,      -32.4707031250,        9.4299316406,     -225.9521484375
1494295197.1252610683,       -0.3364257812,        0.0063476562,        0.0131835938,      -25.6347656250,        9.2163085938,     -225.9521484375
1494295197.1278159618,       -0.3686523438,        0.0102539062,        0.0102539062,      -25.6347656250,        9.2163085938,     -225.9521484375
1494295197.1303679943,       -0.3686523438,        0.0102539062,        0.0102539062,      -20.7214355469,        9.8114013672,     -235.1226806641
1494295197.1330358982,       -0.3686523438,        0.0102539062,        0.0102539062,      -20.7214355469,        9.8114013672,     -235.1226806641
1494295197.1355938911,       -0.3686523438,        0.0102539062,        0.0102539062,      -19.6685791016,       10.5285644531,     -243.7438964844
1494295197.1381540298,       -0.4179687500,       -0.0473632812,       -0.0292968750,      -19.6685791016,       10.5285644531,     -243.7438964844
1494295197.1407940388,       -0.4179687500,       -0.0473632812,       -0.0292968750,      -19.3023681641,       11.5203857422,     -252.8381347656
1494295197.1434988976,       -0.4179687500,       -0.0473632812,       -0.0292968750,      -19.3023681641,       11.5203857422,     -252.8381347656
1494295197.1462070942,       -0.4179687500,       -0.0473632812,       -0.0292968750,      -17.6849365234,       12.9394531250,     -263.1835937500
1494295197.1489100456,       -0.4682617188,       -0.1157226562,       -0.0332031250,      -17.6849365234,       12.9394531250,     -263.1835937500
1494295197.1515820026,       -0.4682617188,       -0.1157226562,       -0.0332031250,      -14.6331787109,       13.3972167969,     -273.4832763672
1494295197.1541450024,       -0.4682617188,       -0.1157226562,       -0.0332031250,      -14.6331787109,       13.3972167969,     -273.4832763672
1494295197.1567039490,       -0.4682617188,       -0.1157226562,        0.0048828125,      -10.3302001953,       14.0533447266,     -282.3181152344
1494295197.1592659950,       -0.5737304688,       -0.1352539062,        0.0048828125,      -10.3302001953,       14.0533447266,     -282.3181152344
1494295197.1618990898,       -0.5737304688,       -0.1352539062,        0.0048828125,       -5.4168701172,       15.8081054688,     -289.5202636719
1494295197.1645889282,       -0.5737304688,       -0.1352539062,        0.0048828125,       -5.4168701172,       15.8081054688,     -289.5202636719
1494295197.1672859192,       -0.5737304688,       -0.1132812500,        0.0234375000,       -1.9531250000,       18.9514160156,     -296.3562011719
1494295197.1699728966,       -0.7021484375,       -0.1132812500,        0.0234375000,       -1.9531250000,       18.9514160156,     -296.3562011719
1494295197.1725840569,       -0.7021484375,       -0.1132812500,        0.0234375000,        1.7547607422,       20.6604003906,     -303.1616210938
1494295197.1751461029,       -0.7021484375,       -0.1132812500,        0.0234375000,        1.7547607422,       20.6604003906,     -303.1616210938
1494295197.1776940823,       -0.8271484375,       -0.0727539062,        0.0537109375,        1.7547607422,       19.0734863281,     -309.8602294922
1494295197.1802520752,       -0.7651367188,       -0.0727539062,        0.0537109375,        1.1901855469,       19.0734863281,     -309.8602294922
1494295197.1829860210,       -0.7651367188,       -0.0727539062,        0.0537109375,        1.1901855469,       15.2587890625,     -315.1702880859
1494295197.1856629848,       -0.7651367188,       -0.0727539062,        0.0537109375,       -7.5988769531,       15.2587890625,     -315.1702880859
1494295197.1884601116,       -0.8276367188,        0.0029296875,        0.0239257812,       -7.5988769531,        9.6435546875,     -319.3359375000
1494295197.1911499500,       -0.8276367188,        0.0029296875,        0.0239257812,      -25.2075195312,        9.6435546875,     -319.3359375000
1494295197.1938269138,       -0.8276367188,        0.0029296875,        0.0239257812,      -25.2075195312,        3.1127929688,     -322.1282958984
1494295197.1965119839,       -0.8276367188,        0.0029296875,        0.0239257812,      -45.1354980469,        3.1127929688,     -322.1282958984
1494295197.1993520260,       -0.9453125000,        0.0488281250,       -0.0073242188,      -60.7604980469,       -1.0986328125,     -323.5168457031
1494295197.2022109032,       -0.9453125000,        0.0488281250,       -0.0073242188,      -60.7757568359,       -1.0986328125,     -323.5168457031
1494295197.2047638893,       -0.9453125000,        0.0488281250,       -0.0073242188,      -60.7757568359,       -2.6855468750,     -324.7528076172
1494295197.2073199749,       -0.9453125000,        0.0488281250,        0.0371093750,      -64.1326904297,       -2.6855468750,     -324.7528076172
1494295197.2098789215,       -1.1113281250,        0.0976562500,        0.0371093750,      -64.1326904297,       -2.6855468750,     -324.3560791016
1494295197.2126190662,       -1.1113281250,        0.0976562500,        0.0371093750,      -57.9528808594,       -0.8239746094,     -324.3560791016
1494295197.2153179646,       -1.1113281250,        0.0976562500,        0.0371093750,      -57.9528808594,       -0.8239746094,     -323.6541748047
1494295197.2180190086,       -1.3613281250,        0.1787109375,        0.0478515625,      -50.8728027344,        4.1809082031,     -323.6541748047
1494295197.2207219601,       -1.3276367188,        0.1787109375,        0.0478515625,      -50.8728027344,        4.1809082031,     -323.1201171875
1494295197.2234179974,       -1.3276367188,        0.1787109375,        0.0478515625,      -48.6907958984,       10.8795166016,     -323.1201171875
1494295197.2261130810,       -1.3276367188,        0.1787109375,        0.0478515625,      -48.6907958984,       10.8795166016,     -323.1353759766
1494295197.2288091183,       -1.4682617188,        0.2656250000,        0.0688476562,      -50.9643554688,       16.4337158203,     -323.1353759766
1494295197.2315258980,       -1.4682617188,        0.2656250000,        0.0688476562,      -50.9643554688,       16.4337158203,     -324.4628906250
1494295197.2340788841,       -1.4682617188,        0.2656250000,        0.0688476562,      -55.4046630859,       20.6451416016,     -324.4628906250
1494295197.2366371155,       -1.4682617188,        0.2656250000,        0.0688476562,      -55.4046630859,       20.6451416016,     -324.4628906250
1494295197.2391989231,       -1.4760742188,        0.3339843750,        0.0913085938,      -59.0972900391,       23.2086181641,     -326.9500732422
1494295197.2417569160,       -1.4760742188,        0.3339843750,        0.0913085938,      -59.0972900391,       23.2086181641,     -326.9500732422
1494295197.2443180084,       -1.4760742188,        0.3339843750,        0.0913085938,      -62.2863769531,       24.5666503906,     -329.8950195312
1494295197.2468760014,       -1.4760742188,        0.3339843750,        0.0913085938,      -62.2863769531,       24.5666503906,     -329.8950195312
1494295197.2494380474,       -1.4746093750,        0.3842773438,        0.1269531250,      -67.1844482422,       24.7344970703,     -332.5195312500
1494295197.2521409988,       -1.4746093750,        0.3842773438,        0.1269531250,      -67.1844482422,       24.7344970703,     -332.5195312500
1494295197.2546949387,       -1.4746093750,        0.3842773438,        0.1269531250,      -71.6247558594,       25.2685546875,     -334.2742919922
1494295197.2572529316,       -1.4746093750,        0.3842773438,        0.1269531250,      -71.6247558594,       25.2685546875,     -334.2742919922
1494295197.2598109245,       -1.4765625000,        0.3774414062,        0.1562500000,      -74.2492675781,       27.0233154297,     -334.9914550781
1494295197.2626791000,       -1.4765625000,        0.3774414062,        0.1562500000,      -74.2492675781,       27.0233154297,     -334.9914550781
1494295197.2653889656,       -1.4765625000,        0.3774414062,        0.1562500000,      -75.7598876953,       28.8848876953,     -334.0301513672
1494295197.2680859566,       -1.4765625000,        0.2524414062,        0.1674804688,      -75.7598876953,       28.8848876953,     -334.0301513672
1494295197.2707960606,       -1.4414062500,        0.2939453125,        0.1674804688,      -76.4770507812,       29.6173095703,     -331.4666748047
1494295197.2734999657,       -1.4414062500,        0.2939453125,        0.1674804688,      -76.4770507812,       29.6173095703,     -331.4666748047
1494295197.2761909962,       -1.4414062500,        0.2939453125,        0.1674804688,      -77.3468017578,       29.6325683594,     -327.4383544922
1494295197.2788879871,       -1.4252929688,        0.2890625000,        0.2207031250,      -77.3468017578,       29.6325683594,     -327.4383544922
1494295197.2816019058,       -1.4252929688,        0.2890625000,        0.2207031250,      -80.2154541016,       28.2135009766,     -322.4182128906
1494295197.2843019962,       -1.4252929688,        0.2890625000,        0.2207031250,      -80.2154541016,       28.2135009766,     -322.4182128906
1494295197.2870049477,       -1.4252929688,        0.2890625000,        0.2207031250,      -83.0230712891,       26.2756347656,     -315.9942626953
1494295197.2897050381,       -1.4819335938,        0.4145507812,        0.2421875000,      -83.0230712891,       26.2756347656,     -315.9942626953
1494295197.2923290730,       -1.4819335938,        0.4145507812,        0.2421875000,      -85.9375000000,       25.5279541016,     -309.0667724609
1494295197.2948930264,       -1.4819335938,        0.4145507812,        0.2421875000,      -85.9375000000,       25.5279541016,     -309.0667724609
1494295197.2974491119,       -1.4819335938,        0.4145507812,        0.2421875000,      -89.8437500000,       24.6582031250,     -301.0711669922
1494295197.3000049591,       -1.5581054688,        0.5449218750,        0.2763671875,      -87.9058837891,       24.6582031250,     -301.0711669922
1494295197.3027069569,       -1.5581054688,        0.5449218750,        0.2763671875,      -87.9058837891,       20.7519531250,     -292.5872802734
1494295197.3052639961,       -1.5581054688,        0.5449218750,        0.2763671875,      -89.3707275391,       22.3083496094,     -292.5872802734
1494295197.3078219891,       -1.5581054688,        0.5449218750,        0.2763671875,      -89.3707275391,       22.3083496094,     -282.6232910156
1494295197.3103840351,       -1.5454101562,        0.7626953125,        0.3496093750,      -88.5162353516,       18.0664062500,     -282.6232910156
1494295197.3131051064,       -1.5454101562,        0.7626953125,        0.3496093750,      -88.5162353516,       18.0664062500,     -271.2860107422
1494295197.3157680035,       -1.5454101562,        0.7626953125,        0.3496093750,      -83.3282470703,       13.8549804688,     -271.2860107422
1494295197.3186979294,       -1.5454101562,        1.0229492188,        0.4238281250,      -83.3282470703,       13.8549804688,     -258.1634521484
1494295197.3217248917,       -1.4150390625,        1.0229492188,        0.4238281250,      -70.4803466797,        9.7961425781,     -258.1634521484
1494295197.3244240284,       -1.4150390625,        1.0229492188,        0.4238281250,      -70.4803466797,        7.0648193359,     -241.2109375000
1494295197.3271219730,       -1.4150390625,        1.0229492188,        0.4238281250,      -53.2531738281,        7.0648193359,     -241.2109375000
1494295197.3298161030,       -1.1791992188,        1.2495117188,        0.4736328125,      -53.2531738281,        3.3874511719,     -219.8638916016
1494295197.3325550556,       -1.1791992188,        1.2495117188,        0.4736328125,      -38.0859375000,        3.3874511719,     -219.8638916016
1494295197.3353590965,       -1.1791992188,        1.2495117188,        0.4736328125,      -38.0859375000,       -1.9683837891,     -193.6035156250
1494295197.3380620480,       -1.1791992188,        1.2495117188,        0.4736328125,      -27.7862548828,       -1.9683837891,     -193.6035156250
1494295197.3407649994,       -0.9291992188,        1.4750976562,        0.4794921875,      -27.7862548828,       -9.7503662109,     -164.3829345703
1494295197.3434679508,       -0.9291992188,        1.4750976562,        0.4794921875,      -19.1497802734,       -9.7503662109,     -164.3829345703
1494295197.3461639881,       -0.9291992188,        1.4750976562,        0.4794921875,      -19.1497802734,      -17.5628662109,     -131.5765380859
1494295197.3488609791,       -0.9291992188,        1.6406250000,        0.4018554688,       -7.2937011719,      -17.8222656250,     -131.5765380859
1494295197.3515338898,       -0.8120117188,        1.6406250000,        0.4018554688,       -7.2937011719,      -21.7285156250,      -94.5434570312
1494295197.3540890217,       -0.8120117188,        1.6406250000,        0.4018554688,        8.8043212891,      -23.3306884766,      -94.5434570312
