time_stamp before, time_stamp after, Acceleration x, Acceleration y, Acceleration z, Gyro x, Gyro y, Gyro z
1489457422.0215799809,1489457422.0428669453,       -0.7382812500,        0.0585937500,        0.0273437500,       -0.0915527344,        0.2899169922,        0.1678466797
1489457422.0431709290,1489457422.0457949638,       -0.7382812500,        0.0585937500,        0.0273437500,       -0.0915527344,       -3.6163330078,        0.2746582031
1489457422.0460789204,1489457422.0484850407,       -0.7382812500,        0.0610351562,        0.0156250000,        0.3662109375,       -0.1068115234,        0.2746582031
1489457422.0487649441,1489457422.0516979694,       -0.7377929688,        0.0610351562,        0.0156250000,        0.3662109375,       -0.0762939453,        0.1220703125
1489457422.0519869328,1489457422.0543889999,       -0.7377929688,        0.0610351562,        0.0156250000,        0.0305175781,       -0.0762939453,        0.1220703125
1489457422.0546679497,1489457422.0570690632,       -0.7377929688,        0.0610351562,        0.0156250000,       -3.8757324219,       -0.1983642578,        0.0762939453
1489457422.0573480129,1489457422.0597529411,       -0.7353515625,        0.0551757812,        0.0249023438,       -0.2288818359,       -0.1983642578,        0.0762939453
1489457422.0600318909,1489457422.0624339581,       -0.7353515625,        0.0551757812,        0.0249023438,       -0.2288818359,       -0.0457763672,       -0.0152587891
1489457422.0627119541,1489457422.0653049946,       -0.7353515625,        0.0551757812,        0.0249023438,       -0.5035400391,       -0.0457763672,       -0.0152587891
1489457422.0655980110,1489457422.0680139065,       -0.7353515625,        0.0551757812,        0.0141601562,        0.2136230469,       -0.4425048828,        0.0915527344
1489457422.0682959557,1489457422.0707221031,       -0.7353515625,        0.0639648438,        0.0141601562,        0.2136230469,       -0.4425048828,        0.0915527344
1489457422.0710010529,1489457422.0734040737,       -0.7353515625,        0.0639648438,        0.0141601562,       -3.6926269531,       -0.3204345703,        0.4577636719
1489457422.0736830235,1489457422.0760810375,       -0.7353515625,        0.0639648438,        0.0141601562,       -0.5340576172,       -0.3204345703,        0.4577636719
1489457422.0763590336,1489457422.0787599087,       -0.7353515625,        0.0595703125,        0.0175781250,       -0.5340576172,       -0.1983642578,        0.3967285156
1489457422.0791409016,1489457422.0814290047,       -0.7304687500,        0.0595703125,        0.0175781250,       -0.7476806641,       -0.1983642578,        0.3967285156
1489457422.0817019939,1489457422.0839889050,       -0.7304687500,        0.0595703125,        0.0175781250,       -0.7476806641,       -0.1220703125,        0.3509521484
1489457422.0842618942,1489457422.0865559578,       -0.7304687500,        0.0595703125,        0.0175781250,       -0.4882812500,       -0.1220703125,        0.3509521484
1489457422.0868310928,1489457422.0891458988,       -0.7363281250,        0.0634765625,        0.0117187500,       -0.4882812500,       -0.1220703125,        0.2441406250
1489457422.0894279480,1489457422.0918560028,       -0.7363281250,        0.0634765625,        0.0117187500,       -0.1678466797,       -0.3204345703,        0.2441406250
1489457422.0921370983,1489457422.0945570469,       -0.7363281250,        0.0634765625,        0.0117187500,       -0.1678466797,       -0.3204345703,        0.0457763672
1489457422.0948400497,1489457422.0972580910,       -0.7363281250,        0.0634765625,        0.0117187500,       -0.2593994141,       -0.3204345703,        0.0457763672
1489457422.0975410938,1489457422.0999081135,       -0.7299804688,        0.0634765625,        0.0190429688,       -0.2593994141,       -0.3204345703,        0.1678466797
1489457422.1001839638,1489457422.1024789810,       -0.7299804688,        0.0634765625,        0.0190429688,       -0.2899169922,       -0.6256103516,        0.1678466797
1489457422.1027541161,1489457422.1050460339,       -0.7299804688,        0.0634765625,        0.0190429688,       -0.2899169922,       -0.6256103516,        0.1678466797
1489457422.1054770947,1489457422.1077780724,       -0.7299804688,        0.0634765625,        0.0190429688,       -0.1678466797,       -0.5493164062,        0.2899169922
1489457422.1080529690,1489457422.1105170250,       -0.7373046875,        0.0585937500,        0.0170898438,       -0.1678466797,       -0.5493164062,        0.2899169922
1489457422.1107931137,1489457422.1130909920,       -0.7373046875,        0.0585937500,        0.0170898438,       -0.5340576172,       -0.3814697266,        0.1068115234
1489457422.1133649349,1489457422.1156539917,       -0.7373046875,        0.0585937500,        0.0170898438,       -0.5340576172,       -0.3814697266,        0.1068115234
1489457422.1159310341,1489457422.1182239056,       -0.7373046875,        0.0585937500,        0.0170898438,       -0.5950927734,       -0.1678466797,        0.2593994141
1489457422.1184980869,1489457422.1209530830,       -0.7338867188,        0.0605468750,        0.0122070312,       -0.5950927734,       -0.1678466797,        0.2593994141
1489457422.1212320328,1489457422.1236569881,       -0.7338867188,        0.0605468750,        0.0122070312,       -0.6256103516,        0.0000000000,        0.3967285156
1489457422.1239409447,1489457422.1263520718,       -0.7338867188,        0.0605468750,        0.0122070312,       -0.6256103516,        0.0000000000,        0.3967285156
1489457422.1266329288,1489457422.1290578842,       -0.7338867188,        0.0634765625,        0.0180664062,       -0.5645751953,       -0.0610351562,        0.2441406250
1489457422.1293320656,1489457422.1316258907,       -0.7333984375,        0.0634765625,        0.0180664062,       -0.5645751953,       -0.0610351562,        0.2441406250
1489457422.1319000721,1489457422.1341969967,       -0.7333984375,        0.0634765625,        0.0180664062,       -0.4425048828,        0.1220703125,        0.1983642578
1489457422.1344730854,1489457422.1367599964,       -0.7333984375,        0.0634765625,        0.0180664062,       -0.4425048828,        0.1220703125,        0.1983642578
1489457422.1370360851,1489457422.1393630505,       -0.7333984375,        0.0556640625,        0.0175781250,       -0.4882812500,       -0.0152587891,        0.0152587891
1489457422.1396439075,1489457422.1420650482,       -0.7319335938,        0.0556640625,        0.0175781250,       -0.4882812500,       -0.0152587891,        0.0152587891
1489457422.1423470974,1489457422.1447629929,       -0.7319335938,        0.0556640625,        0.0175781250,       -0.7171630859,       -0.0152587891,        0.1220703125
1489457422.1450450420,1489457422.1474580765,       -0.7319335938,        0.0556640625,        0.0175781250,       -0.7171630859,       -0.0152587891,        0.1220703125
1489457422.1477389336,1489457422.1501638889,       -0.7382812500,        0.0571289062,        0.0166015625,       -0.1831054688,       -0.1678466797,        0.2899169922
1489457422.1504459381,1489457422.1528599262,       -0.7382812500,        0.0571289062,        0.0166015625,       -0.1831054688,       -0.1678466797,        0.2899169922
1489457422.1531438828,1489457422.1555619240,       -0.7382812500,        0.0571289062,        0.0166015625,       -0.0610351562,       -0.5645751953,       -0.2746582031
1489457422.1558430195,1489457422.1582570076,       -0.7382812500,        0.0571289062,        0.0166015625,       -0.0610351562,       -0.5645751953,       -0.2746582031
1489457422.1585381031,1489457422.1609559059,       -0.7333984375,        0.0615234375,        0.0131835938,       -0.1373291016,       -0.3814697266,        0.0610351562
1489457422.1612370014,1489457422.1636579037,       -0.7333984375,        0.0615234375,        0.0131835938,       -0.1373291016,       -0.3814697266,        0.0610351562
1489457422.1639389992,1489457422.1663498878,       -0.7333984375,        0.0615234375,        0.0131835938,        0.1678466797,       -0.8087158203,        0.0762939453
1489457422.1666319370,1489457422.1690530777,       -0.7333984375,        0.0615234375,        0.0195312500,        0.1678466797,       -0.8087158203,        0.0762939453
1489457422.1694450378,1489457422.1718668938,       -0.7324218750,        0.0527343750,        0.0195312500,       -0.1678466797,       -0.4425048828,       -0.1525878906
1489457422.1721479893,1489457422.1745600700,       -0.7324218750,        0.0527343750,        0.0195312500,       -0.1678466797,       -0.4425048828,       -0.1525878906
1489457422.1748590469,1489457422.1773219109,       -0.7324218750,        0.0527343750,        0.0195312500,       -0.7476806641,       -0.2899169922,        0.0000000000
1489457422.1776070595,1489457422.1799719334,       -0.7373046875,        0.0625000000,        0.0214843750,       -0.7476806641,       -0.2899169922,        0.0000000000
1489457422.1802470684,1489457422.1825370789,       -0.7373046875,        0.0625000000,        0.0214843750,       -0.6103515625,        0.0152587891,       -0.0152587891
1489457422.1828110218,1489457422.1851019859,       -0.7373046875,        0.0625000000,        0.0214843750,       -0.6103515625,        0.0152587891,       -0.0152587891
1489457422.1853768826,1489457422.1876690388,       -0.7373046875,        0.0625000000,        0.0214843750,       -0.6103515625,       -0.1678466797,       -0.2441406250
1489457422.1879420280,1489457422.1903269291,       -0.7382812500,        0.0615234375,        0.0190429688,       -0.6256103516,       -0.1678466797,       -0.2441406250
1489457422.1906108856,1489457422.1930260658,       -0.7382812500,        0.0615234375,        0.0190429688,        3.2806396484,       -0.6561279297,       -0.4272460938
1489457422.1933069229,1489457422.1957209110,       -0.7382812500,        0.0615234375,        0.0190429688,        0.2136230469,       -0.6561279297,       -0.4272460938
1489457422.1960039139,1489457422.1984100342,       -0.7382812500,        0.0615234375,        0.0190429688,        0.2136230469,       -0.4730224609,       -0.3509521484
1489457422.1986908913,1489457422.2011129856,       -0.7368164062,        0.0576171875,        0.0156250000,        0.1220703125,       -0.4730224609,       -0.3509521484
1489457422.2013969421,1489457422.2038109303,       -0.7368164062,        0.0576171875,        0.0156250000,        0.1220703125,       -0.1831054688,       -0.2593994141
1489457422.2040929794,1489457422.2065100670,       -0.7368164062,        0.0576171875,        0.0156250000,       -0.0610351562,       -0.1831054688,       -0.2593994141
1489457422.2067930698,1489457422.2092258930,       -0.7368164062,        0.0576171875,        0.0156250000,       -0.0610351562,       -0.5187988281,       -0.3509521484
1489457422.2095019817,1489457422.2117879391,       -0.7377929688,        0.0561523438,        0.0244140625,       -0.3967285156,       -0.5187988281,       -0.3509521484
1489457422.2120640278,1489457422.2143540382,       -0.7377929688,        0.0561523438,        0.0244140625,       -0.3967285156,       -0.5187988281,       -0.1983642578
1489457422.2146279812,1489457422.2169210911,       -0.7377929688,        0.0561523438,        0.0244140625,       -0.1373291016,       -0.2746582031,       -0.1983642578
1489457422.2171940804,1489457422.2196021080,       -0.7377929688,        0.0561523438,        0.0283203125,       -0.1373291016,       -0.2746582031,       -0.2136230469
1489457422.2198760509,1489457422.2221720219,       -0.7407226562,        0.0561523438,        0.0283203125,       -0.4425048828,       -0.1831054688,       -0.2136230469
1489457422.2224469185,1489457422.2247359753,       -0.7407226562,        0.0561523438,        0.0283203125,       -0.4425048828,       -0.1831054688,       -0.2136230469
1489457422.2250111103,1489457422.2273020744,       -0.7407226562,        0.0561523438,        0.0283203125,       -0.2288818359,       -0.1373291016,       -0.4425048828
1489457422.2275779247,1489457422.2299900055,       -0.7407226562,        0.0561523438,        0.0185546875,       -0.2288818359,       -0.1373291016,       -0.4425048828
1489457422.2302649021,1489457422.2325530052,       -0.7319335938,        0.0561523438,        0.0185546875,       -0.1373291016,       -0.1831054688,       -0.1678466797
1489457422.2329370975,1489457422.2352321148,       -0.7319335938,        0.0561523438,        0.0185546875,       -0.1373291016,       -0.1831054688,       -0.1678466797
1489457422.2355079651,1489457422.2377951145,       -0.7319335938,        0.0561523438,        0.0185546875,       -0.4577636719,        0.1373291016,       -0.1373291016
1489457422.2380681038,1489457422.2405068874,       -0.7319335938,        0.0629882812,        0.0146484375,       -0.4577636719,        0.1373291016,       -0.1373291016
1489457422.2407879829,1489457422.2432069778,       -0.7309570312,        0.0629882812,        0.0146484375,       -0.2441406250,       -0.2441406250,       -0.0152587891
1489457422.2434880733,1489457422.2459039688,       -0.7309570312,        0.0629882812,        0.0146484375,       -0.2441406250,       -0.2441406250,       -0.0152587891
1489457422.2461860180,1489457422.2485990524,       -0.7309570312,        0.0629882812,        0.0146484375,       -0.0152587891,       -0.4577636719,        0.0305175781
1489457422.2488899231,1489457422.2513060570,       -0.7402343750,        0.0610351562,        0.0297851562,       -0.0152587891,       -0.4577636719,        0.0305175781
1489457422.2515869141,1489457422.2540071011,       -0.7402343750,        0.0610351562,        0.0297851562,        0.2136230469,       -0.2746582031,       -0.4882812500
1489457422.2542889118,1489457422.2567050457,       -0.7402343750,        0.0610351562,        0.0297851562,        0.2136230469,       -0.2746582031,       -0.4882812500
1489457422.2569859028,1489457422.2594580650,       -0.7402343750,        0.0610351562,        0.0297851562,        0.6103515625,       -0.4730224609,       -0.6256103516
1489457422.2597410679,1489457422.2621560097,       -0.7387695312,        0.0615234375,        0.0141601562,        0.6103515625,       -0.4730224609,       -0.6256103516
1489457422.2624390125,1489457422.2648520470,       -0.7387695312,        0.0615234375,        0.0141601562,        0.1525878906,       -0.0762939453,       -0.0762939453
1489457422.2651319504,1489457422.2675490379,       -0.7387695312,        0.0615234375,        0.0141601562,        0.1525878906,       -0.0762939453,       -0.0762939453
1489457422.2678289413,1489457422.2702579498,       -0.7387695312,        0.0615234375,        0.0258789062,        0.5645751953,       -0.3814697266,       -0.3051757812
1489457422.2705390453,1489457422.2728829384,       -0.7446289062,        0.0644531250,        0.0258789062,        0.5645751953,       -0.3814697266,       -0.3051757812
1489457422.2731590271,1489457422.2754609585,       -0.7446289062,        0.0644531250,        0.0258789062,        0.1525878906,       -0.4119873047,       -0.6103515625
1489457422.2757339478,1489457422.2780230045,       -0.7446289062,        0.0644531250,        0.0258789062,        0.1525878906,       -0.4119873047,       -0.6103515625
1489457422.2783000469,1489457422.2806770802,       -0.7446289062,        0.0644531250,        0.0190429688,        0.2746582031,       -0.5340576172,       -0.3509521484
1489457422.2809538841,1489457422.2832429409,       -0.7343750000,        0.0644531250,        0.0190429688,        0.2746582031,       -0.5340576172,       -0.3509521484
1489457422.2835190296,1489457422.2858018875,       -0.7343750000,        0.0644531250,        0.0190429688,        1.1291503906,       -0.8239746094,       -0.5340576172
1489457422.2860779762,1489457422.2883710861,       -0.7343750000,        0.0644531250,        0.0190429688,        1.1291503906,       -0.8239746094,       -0.5340576172
1489457422.2890501022,1489457422.2914760113,       -0.7329101562,        0.0639648438,        0.0122070312,        0.2441406250,       -0.6713867188,       -0.2288818359
1489457422.2917599678,1489457422.2941811085,       -0.7329101562,        0.0639648438,        0.0122070312,        0.2441406250,       -0.6713867188,       -0.2288818359
1489457422.2944629192,1489457422.2968809605,       -0.7329101562,        0.0639648438,        0.0122070312,        0.1373291016,       -0.6866455078,       -0.3204345703
1489457422.2972679138,1489457422.2997028828,       -0.7329101562,        0.0639648438,        0.0122070312,        0.1373291016,       -0.6866455078,       -0.3204345703
1489457422.2999839783,1489457422.3024039268,       -0.7377929688,        0.0600585938,        0.0151367188,        0.0305175781,       -0.7324218750,       -0.2899169922
1489457422.3026850224,1489457422.3051080704,       -0.7377929688,        0.0600585938,        0.0151367188,        0.0305175781,       -0.7324218750,       -0.2899169922
1489457422.3053879738,1489457422.3078019619,       -0.7377929688,        0.0600585938,        0.0151367188,       -0.2899169922,       -0.3356933594,        0.0000000000
1489457422.3080859184,1489457422.3105120659,       -0.7377929688,        0.0600585938,        0.0205078125,       -0.2899169922,       -0.3356933594,        0.0000000000
1489457422.3107941151,1489457422.3132159710,       -0.7416992188,        0.0600585938,        0.0205078125,       -0.4425048828,       -0.1068115234,       -0.2899169922
1489457422.3134989738,1489457422.3159179688,       -0.7416992188,        0.0600585938,        0.0205078125,       -0.4425048828,       -0.1068115234,       -0.2899169922
1489457422.3162000179,1489457422.3186209202,       -0.7416992188,        0.0600585938,        0.0205078125,       -0.2593994141,       -0.1678466797,       -0.1983642578
1489457422.3189120293,1489457422.3212020397,       -0.7416992188,        0.0585937500,        0.0190429688,       -0.2593994141,       -0.1678466797,       -0.1983642578
1489457422.3214759827,1489457422.3237640858,       -0.7407226562,        0.0585937500,        0.0190429688,       -0.2593994141,        0.0000000000,       -0.0457763672
1489457422.3240389824,1489457422.3269240856,       -0.7407226562,        0.0585937500,        0.0190429688,       -0.5340576172,        0.0000000000,       -0.0457763672
1489457422.3271999359,1489457422.3295760155,       -0.7407226562,        0.0585937500,        0.0190429688,       -0.2899169922,        0.0000000000,       -0.3662109375
1489457422.3298530579,1489457422.3321440220,       -0.7377929688,        0.0585937500,        0.0214843750,       -0.2899169922,        0.0000000000,       -0.3662109375
1489457422.3324189186,1489457422.3347079754,       -0.7377929688,        0.0585937500,        0.0214843750,        0.4119873047,       -0.2593994141,       -0.5035400391
1489457422.3349819183,1489457422.3372669220,       -0.7377929688,        0.0585937500,        0.0214843750,        0.4119873047,       -0.2593994141,       -0.5035400391
1489457422.3375411034,1489457422.3398320675,       -0.7377929688,        0.0585937500,        0.0214843750,        0.4119873047,       -0.5187988281,       -0.2136230469
1489457422.3401069641,1489457422.3423950672,       -0.7314453125,        0.0625000000,        0.0190429688,        0.2441406250,       -0.5187988281,       -0.2136230469
1489457422.3426690102,1489457422.3449549675,       -0.7314453125,        0.0625000000,        0.0190429688,        0.2441406250,       -0.5187988281,       -0.1831054688
1489457422.3452301025,1489457422.3475179672,       -0.7314453125,        0.0625000000,        0.0190429688,       -0.1068115234,       -0.3356933594,       -0.1831054688
1489457422.3477919102,1489457422.3500840664,       -0.7314453125,        0.0625000000,        0.0190429688,       -0.1068115234,       -0.3356933594,       -0.1831054688
1489457422.3503599167,1489457422.3526480198,       -0.7397460938,        0.0605468750,        0.0214843750,        0.2593994141,       -0.6866455078,       -0.3356933594
1489457422.3529250622,1489457422.3552100658,       -0.7397460938,        0.0605468750,        0.0214843750,        0.2593994141,       -0.6866455078,       -0.3356933594
1489457422.3554859161,1489457422.3577740192,       -0.7397460938,        0.0605468750,        0.0214843750,        0.4119873047,       -0.7019042969,       -0.5645751953
1489457422.3580489159,1489457422.3603971004,       -0.7397460938,        0.0605468750,        0.0214843750,        0.4119873047,       -0.7019042969,       -0.5645751953
1489457422.3607759476,1489457422.3630681038,       -0.7353515625,        0.0625000000,        0.0209960938,        0.1831054688,       -0.3967285156,       -0.2593994141
1489457422.3633430004,1489457422.3656289577,       -0.7353515625,        0.0625000000,        0.0209960938,        0.1831054688,       -0.3967285156,       -0.2593994141
1489457422.3659029007,1489457422.3681929111,       -0.7353515625,        0.0625000000,        0.0209960938,       -0.1525878906,       -0.6408691406,       -0.1678466797
1489457422.3684680462,1489457422.3708930016,       -0.7353515625,        0.0625000000,        0.0209960938,       -0.1525878906,       -0.6408691406,       -0.1678466797
1489457422.3711690903,1489457422.3734579086,       -0.7343750000,        0.0625000000,        0.0122070312,        0.1983642578,       -0.5798339844,       -0.0305175781
1489457422.3737330437,1489457422.3760190010,       -0.7343750000,        0.0625000000,        0.0122070312,        0.1983642578,       -0.5798339844,       -0.0305175781
1489457422.3762938976,1489457422.3785789013,       -0.7343750000,        0.0625000000,        0.0122070312,       -0.7171630859,       -0.3662109375,       -0.0457763672
1489457422.3789529800,1489457422.3812448978,       -0.7343750000,        0.0625000000,        0.0063476562,       -0.7171630859,       -0.3662109375,       -0.0457763672
1489457422.3815219402,1489457422.3838078976,       -0.7373046875,        0.0551757812,        0.0063476562,        0.0457763672,       -0.4272460938,       -0.2288818359
1489457422.3840849400,1489457422.3863720894,       -0.7373046875,        0.0551757812,        0.0063476562,        0.0457763672,       -0.4272460938,       -0.2288818359
1489457422.3866479397,1489457422.3889420033,       -0.7373046875,        0.0551757812,        0.0063476562,       -3.8604736328,       -0.2288818359,        0.0152587891
1489457422.3892168999,1489457422.3915081024,       -0.7373046875,        0.0551757812,        0.0166015625,       -0.3662109375,       -0.2288818359,        0.0152587891
1489457422.3917820454,1489457422.3940699100,       -0.7377929688,        0.0585937500,        0.0166015625,       -0.3662109375,       -0.2288818359,       -0.0915527344
1489457422.3943440914,1489457422.3966290951,       -0.7377929688,        0.0585937500,        0.0166015625,       -0.3204345703,       -0.1220703125,       -0.0915527344
1489457422.3969058990,1489457422.3992629051,       -0.7377929688,        0.0585937500,        0.0166015625,       -0.3204345703,       -0.1220703125,        0.1068115234
1489457422.3995480537,1489457422.4019660950,       -0.7377929688,        0.0595703125,        0.0249023438,       -0.1678466797,       -0.2441406250,        0.1068115234
1489457422.4022500515,1489457422.4046640396,       -0.7412109375,        0.0595703125,        0.0249023438,       -0.1678466797,       -0.2441406250,        0.0305175781
1489457422.4049448967,1489457422.4073560238,       -0.7412109375,        0.0595703125,        0.0249023438,        0.0152587891,       -0.5187988281,        0.0305175781
1489457422.4076380730,1489457422.4100120068,       -0.7412109375,        0.0595703125,        0.0249023438,        0.0152587891,       -0.5187988281,        0.0305175781
1489457422.4102869034,1489457422.4125809669,       -0.7314453125,        0.0571289062,        0.0102539062,       -0.2288818359,       -0.2441406250,        0.0610351562
1489457422.4128549099,1489457422.4151489735,       -0.7314453125,        0.0571289062,        0.0102539062,       -0.2288818359,       -0.2441406250,        0.0610351562
1489457422.4154229164,1489457422.4177141190,       -0.7314453125,        0.0571289062,        0.0102539062,       -0.4730224609,       -0.3356933594,        0.0457763672
1489457422.4179880619,1489457422.4203710556,       -0.7314453125,        0.0571289062,        0.0102539062,       -0.4730224609,       -0.3356933594,        0.0457763672
1489457422.4206540585,1489457422.4230730534,       -0.7397460938,        0.0620117188,        0.0258789062,       -0.4730224609,       -0.2441406250,        0.0762939453
1489457422.4234530926,1489457422.4258759022,       -0.7397460938,        0.0620117188,        0.0258789062,       -0.4730224609,       -0.2441406250,        0.0762939453
1489457422.4261579514,1489457422.4285690784,       -0.7397460938,        0.0620117188,        0.0258789062,       -0.0762939453,       -0.0152587891,        0.1373291016
1489457422.4288609028,1489457422.4312798977,       -0.7397460938,        0.0620117188,        0.0258789062,       -0.0762939453,       -0.0152587891,        0.1373291016
1489457422.4315609932,1489457422.4339799881,       -0.7402343750,        0.0581054688,        0.0141601562,        0.3356933594,       -0.3967285156,        0.4577636719
1489457422.4342598915,1489457422.4367620945,       -0.7402343750,        0.0581054688,        0.0141601562,        0.3356933594,       -0.3967285156,        0.4577636719
1489457422.4370429516,1489457422.4397768974,       -0.7402343750,        0.0581054688,        0.0141601562,        0.3662109375,       -0.5035400391,        0.1220703125
1489457422.4400639534,1489457422.4424850941,       -0.7402343750,        0.0581054688,        0.0185546875,        0.3662109375,       -0.5035400391,        0.1220703125
1489457422.4427680969,1489457422.4451849461,       -0.7363281250,        0.0581054688,        0.0185546875,       -0.3204345703,       -0.3814697266,        0.0915527344
1489457422.4454669952,1489457422.4478840828,       -0.7363281250,        0.0581054688,        0.0185546875,       -0.3204345703,       -0.3814697266,        0.0915527344
1489457422.4481658936,1489457422.4506258965,       -0.7363281250,        0.0581054688,        0.0185546875,       -0.4882812500,       -0.3356933594,       -0.1220703125
1489457422.4509079456,1489457422.4533240795,       -0.7329101562,        0.0595703125,        0.0161132812,       -0.4882812500,       -0.3356933594,       -0.1220703125
1489457422.4536080360,1489457422.4560229778,       -0.7329101562,        0.0595703125,        0.0161132812,       -0.5950927734,       -0.1373291016,       -0.0762939453
1489457422.4563028812,1489457422.4587209225,       -0.7329101562,        0.0595703125,        0.0161132812,       -0.5950927734,       -0.1373291016,       -0.0762939453
1489457422.4590489864,1489457422.4613389969,       -0.7329101562,        0.0595703125,        0.0161132812,       -0.6103515625,       -0.1068115234,        0.2288818359
1489457422.4616138935,1489457422.4639050961,       -0.7329101562,        0.0581054688,        0.0175781250,       -0.6103515625,       -0.1068115234,        0.2288818359
1489457422.4641790390,1489457422.4664740562,       -0.7329101562,        0.0581054688,        0.0175781250,       -0.2441406250,       -0.3356933594,        0.0457763672
1489457422.4667479992,1489457422.4690709114,       -0.7329101562,        0.0581054688,        0.0175781250,       -0.2441406250,       -0.3356933594,        0.0457763672
1489457422.4693450928,1489457422.4716379642,       -0.7329101562,        0.0581054688,        0.0175781250,       -0.0915527344,       -0.4272460938,       -0.0305175781
1489457422.4719119072,1489457422.4742050171,       -0.7333984375,        0.0644531250,        0.0151367188,       -0.0915527344,       -0.4272460938,       -0.0305175781
1489457422.4744789600,1489457422.4767711163,       -0.7333984375,        0.0644531250,        0.0151367188,       -0.5035400391,       -0.0152587891,        0.0000000000
1489457422.4770469666,1489457422.4793460369,       -0.7333984375,        0.0644531250,        0.0151367188,       -0.5035400391,       -0.0152587891,        0.0000000000
1489457422.4796218872,1489457422.4819180965,       -0.7333984375,        0.0644531250,        0.0151367188,       -0.4882812500,       -0.0915527344,       -0.0762939453
1489457422.4821929932,1489457422.4844799042,       -0.7358398438,        0.0605468750,        0.0214843750,       -0.4882812500,       -0.0915527344,       -0.0762939453
1489457422.4847559929,1489457422.4870529175,       -0.7358398438,        0.0605468750,        0.0214843750,       -0.4882812500,        0.1220703125,        0.0915527344
1489457422.4873280525,1489457422.4897489548,       -0.7358398438,        0.0605468750,        0.0214843750,       -0.4577636719,        0.1220703125,        0.0915527344
1489457422.4901309013,1489457422.4924259186,       -0.7358398438,        0.0605468750,        0.0092773438,       -0.4577636719,       -0.1068115234,        0.0915527344
1489457422.4927010536,1489457422.4949929714,       -0.7343750000,        0.0673828125,        0.0092773438,       -0.7934570312,       -0.1068115234,        0.0915527344
1489457422.4952700138,1489457422.4975678921,       -0.7343750000,        0.0673828125,        0.0092773438,       -0.7934570312,       -0.1068115234,        0.1220703125
1489457422.4978430271,1489457422.5003600121,       -0.7343750000,        0.0673828125,        0.0092773438,       -0.5187988281,       -0.2899169922,        0.1220703125
1489457422.5006439686,1489457422.5030639172,       -0.7343750000,        0.0595703125,        0.0302734375,       -0.5187988281,        3.6163330078,        0.0305175781
1489457422.5033459663,1489457422.5057640076,       -0.7416992188,        0.0595703125,        0.0302734375,       -0.8544921875,        0.0305175781,        0.0305175781
1489457422.5060439110,1489457422.5084660053,       -0.7416992188,        0.0595703125,        0.0302734375,       -0.8544921875,       -3.8757324219,        0.1068115234
1489457422.5087480545,1489457422.5110380650,       -0.7416992188,        0.0595703125,        0.0302734375,       -0.6408691406,       -0.0762939453,        0.1068115234
1489457422.5113129616,1489457422.5136129856,       -0.7358398438,        0.0629882812,        0.0122070312,       -0.6408691406,       -0.0762939453,        0.0610351562
1489457422.5138869286,1489457422.5161809921,       -0.7358398438,        0.0629882812,        0.0122070312,       -0.1220703125,       -0.3356933594,        0.0610351562
1489457422.5164558887,1489457422.5187509060,       -0.7358398438,        0.0629882812,        0.0122070312,       -0.1220703125,       -0.3356933594,        0.0610351562
1489457422.5190908909,1489457422.5215079784,       -0.7358398438,        0.0629882812,        0.0122070312,       -0.9307861328,        0.0610351562,       -0.0762939453
1489457422.5217890739,1489457422.5242099762,       -0.7368164062,        0.0522460938,        0.0131835938,       -0.9307861328,        0.0610351562,       -0.0762939453
1489457422.5244920254,1489457422.5269091129,       -0.7368164062,        0.0522460938,        0.0131835938,       -0.7019042969,        0.0000000000,        0.2136230469
1489457422.5271909237,1489457422.5296459198,       -0.7368164062,        0.0522460938,        0.0131835938,       -0.7019042969,        0.0000000000,        0.2136230469
1489457422.5299289227,1489457422.5323479176,       -0.7368164062,        0.0522460938,        0.0131835938,       -0.2136230469,        0.3051757812,        0.4730224609
1489457422.5326309204,1489457422.5350470543,       -0.7382812500,        0.0659179688,        0.0131835938,       -0.2136230469,        0.3051757812,        0.4730224609
1489457422.5353300571,1489457422.5377440453,       -0.7382812500,        0.0659179688,        0.0131835938,       -0.5187988281,       -0.1525878906,        0.3967285156
1489457422.5380270481,1489457422.5404551029,       -0.7382812500,        0.0659179688,        0.0131835938,       -0.5187988281,       -0.1525878906,        0.3967285156
1489457422.5407369137,1489457422.5431530476,       -0.7382812500,        0.0659179688,        0.0092773438,       -0.7171630859,       -0.2899169922,        0.2746582031
1489457422.5434350967,1489457422.5458528996,       -0.7363281250,        0.0634765625,        0.0092773438,       -0.7171630859,       -0.2899169922,        0.2746582031
1489457422.5461370945,1489457422.5485570431,       -0.7363281250,        0.0634765625,        0.0092773438,       -0.7476806641,       -0.0762939453,        0.0152587891
1489457422.5488491058,1489457422.5511438847,       -0.7363281250,        0.0634765625,        0.0092773438,       -0.7476806641,       -0.0762939453,        0.0152587891
1489457422.5514190197,1489457422.5537099838,       -0.7348632812,        0.0595703125,        0.0214843750,       -1.0681152344,       -0.0762939453,        0.0305175781
1489457422.5540890694,1489457422.5564889908,       -0.7348632812,        0.0595703125,        0.0214843750,       -1.0681152344,       -0.0762939453,        0.0305175781
1489457422.5567650795,1489457422.5593020916,       -0.7348632812,        0.0595703125,        0.0214843750,       -1.1291503906,       -0.2441406250,        0.0915527344
1489457422.5595870018,1489457422.5620090961,       -0.7348632812,        0.0595703125,        0.0214843750,       -1.1291503906,       -0.2441406250,        0.0915527344
1489457422.5622930527,1489457422.5647099018,       -0.7333984375,        0.0556640625,        0.0175781250,       -1.5869140625,       -0.1831054688,        0.3814697266
1489457422.5649929047,1489457422.5674068928,       -0.7333984375,        0.0556640625,        0.0175781250,       -1.5869140625,       -0.1831054688,        0.3814697266
1489457422.5676870346,1489457422.5701169968,       -0.7333984375,        0.0556640625,        0.0175781250,       -1.5258789062,        0.0457763672,       -0.0152587891
1489457422.5703999996,1489457422.5728158951,       -0.7333984375,        0.0556640625,        0.0175781250,       -1.5258789062,        0.0457763672,       -0.0152587891
1489457422.5730969906,1489457422.5755178928,       -0.7397460938,        0.0620117188,        0.0297851562,       -0.8392333984,        0.0000000000,       -0.0915527344
1489457422.5757999420,1489457422.5782210827,       -0.7397460938,        0.0620117188,        0.0297851562,       -0.8392333984,        0.0000000000,       -0.0915527344
1489457422.5785028934,1489457422.5809309483,       -0.7397460938,        0.0620117188,        0.0297851562,       -1.0833740234,       -0.2746582031,       -0.1068115234
1489457422.5812120438,1489457422.5836300850,       -0.7397460938,        0.0620117188,        0.0307617188,       -1.0833740234,       -0.2746582031,       -0.1068115234
1489457422.5839118958,1489457422.5863308907,       -0.7382812500,        0.0659179688,        0.0307617188,       -0.7934570312,       -0.3662109375,       -0.0152587891
1489457422.5866150856,1489457422.5890319347,       -0.7382812500,        0.0659179688,        0.0307617188,       -0.7934570312,       -0.3662109375,       -0.0152587891
1489457422.5893070698,1489457422.5915980339,       -0.7382812500,        0.0659179688,        0.0307617188,       -0.7019042969,       -0.2136230469,        0.0915527344
1489457422.5918710232,1489457422.5941619873,       -0.7377929688,        0.0664062500,        0.0175781250,       -0.7019042969,       -0.2136230469,        0.0915527344
1489457422.5944368839,1489457422.5967259407,       -0.7377929688,        0.0664062500,        0.0175781250,       -0.4882812500,        0.0610351562,       -0.3967285156
1489457422.5969998837,1489457422.5992989540,       -0.7377929688,        0.0664062500,        0.0175781250,       -0.4882812500,        0.0610351562,       -0.3967285156
1489457422.5995740891,1489457422.6018640995,       -0.7377929688,        0.0664062500,        0.0175781250,       -0.2746582031,       -0.0305175781,       -0.2441406250
1489457422.6021389961,1489457422.6044299603,       -0.7319335938,        0.0644531250,        0.0180664062,       -0.2746582031,       -0.0305175781,       -0.2441406250
1489457422.6047050953,1489457422.6070029736,       -0.7319335938,        0.0644531250,        0.0180664062,       -0.3509521484,       -0.3356933594,        0.0152587891
1489457422.6072769165,1489457422.6097180843,       -0.7319335938,        0.0644531250,        0.0180664062,       -0.3509521484,       -0.3356933594,        0.0152587891
1489457422.6099939346,1489457422.6122879982,       -0.7319335938,        0.0644531250,        0.0180664062,       -0.3509521484,       -0.1220703125,       -0.0457763672
1489457422.6125640869,1489457422.6148560047,       -0.7382812500,        0.0664062500,        0.0229492188,       -0.3051757812,       -0.1220703125,       -0.0457763672
1489457422.6151340008,1489457422.6174230576,       -0.7382812500,        0.0664062500,        0.0229492188,       -0.3051757812,        3.7841796875,       -0.0152587891
1489457422.6178019047,1489457422.6201961040,       -0.7382812500,        0.0664062500,        0.0229492188,       -0.1678466797,        0.0305175781,       -0.0152587891
1489457422.6204791069,1489457422.6228969097,       -0.7382812500,        0.0664062500,        0.0229492188,       -0.1678466797,        0.0305175781,       -0.0915527344
1489457422.6231789589,1489457422.6255989075,       -0.7280273438,        0.0673828125,        0.0068359375,        0.0152587891,        0.1678466797,       -0.0915527344
1489457422.6258819103,1489457422.6283040047,       -0.7280273438,        0.0673828125,        0.0068359375,        0.0152587891,       -3.7384033203,       -0.2899169922
1489457422.6285879612,1489457422.6310501099,       -0.7280273438,        0.0673828125,        0.0068359375,        0.8392333984,       -0.3662109375,       -0.2899169922
1489457422.6313331127,1489457422.6337580681,       -0.7280273438,        0.0673828125,        0.0205078125,        0.8392333984,       -0.3662109375,       -0.1831054688
1489457422.6340401173,1489457422.6364600658,       -0.7368164062,        0.0659179688,        0.0205078125,        0.4425048828,       -0.3204345703,       -0.1831054688
1489457422.6367421150,1489457422.6391620636,       -0.7368164062,        0.0659179688,        0.0205078125,        0.4425048828,       -0.3204345703,       -0.3204345703
1489457422.6394450665,1489457422.6418609619,       -0.7368164062,        0.0659179688,        0.0205078125,        0.2593994141,       -0.2899169922,       -0.3204345703
1489457422.6421420574,1489457422.6445560455,       -0.7368164062,        0.0620117188,        0.0249023438,        0.2593994141,       -0.2899169922,       -0.4882812500
1489457422.6448390484,1489457422.6472609043,       -0.7407226562,        0.0620117188,        0.0249023438,       -0.0915527344,       -0.3967285156,       -0.4882812500
1489457422.6475429535,1489457422.6499719620,       -0.7407226562,        0.0620117188,        0.0249023438,       -0.0915527344,       -0.3967285156,       -0.4882812500
1489457422.6502530575,1489457422.6526679993,       -0.7407226562,        0.0620117188,        0.0249023438,       -0.2746582031,       -0.4577636719,       -0.4882812500
1489457422.6529510021,1489457422.6553740501,       -0.7382812500,        0.0605468750,        0.0131835938,       -0.2746582031,       -0.4577636719,       -0.4425048828
1489457422.6556560993,1489457422.6580739021,       -0.7382812500,        0.0605468750,        0.0131835938,       -0.0457763672,       -0.0915527344,       -0.4425048828
1489457422.6583549976,1489457422.6607840061,       -0.7382812500,        0.0605468750,        0.0131835938,       -0.0457763672,       -0.0915527344,       -0.1678466797
1489457422.6610679626,1489457422.6634879112,       -0.7382812500,        0.0605468750,        0.0131835938,       -0.1525878906,        0.0305175781,       -0.1678466797
1489457422.6637709141,1489457422.6661920547,       -0.7426757812,        0.0698242188,        0.0190429688,       -0.1525878906,        0.0305175781,       -0.6103515625
1489457422.6664719582,1489457422.6688959599,       -0.7426757812,        0.0698242188,        0.0190429688,       -0.2899169922,       -0.5187988281,       -0.6103515625
1489457422.6691780090,1489457422.6715919971,       -0.7426757812,        0.0698242188,        0.0190429688,       -0.2899169922,       -0.5187988281,       -0.8544921875
1489457422.6718730927,1489457422.6742939949,       -0.7426757812,        0.0698242188,        0.0224609375,       -0.3356933594,       -0.0610351562,       -0.8544921875
1489457422.6745760441,1489457422.6770639420,       -0.7402343750,        0.0585937500,        0.0224609375,       -0.3356933594,       -0.0610351562,       -0.5950927734
1489457422.6773478985,1489457422.6799130440,       -0.7402343750,        0.0585937500,        0.0224609375,       -0.3967285156,        0.6103515625,       -0.5950927734
1489457422.6801970005,1489457422.6826179028,       -0.7402343750,        0.0585937500,        0.0224609375,       -0.3967285156,        0.6103515625,       -0.5187988281
1489457422.6830089092,1489457422.6854269505,       -0.7392578125,        0.0532226562,        0.0283203125,       -0.2136230469,        0.6866455078,       -0.5187988281
1489457422.6857089996,1489457422.6881239414,       -0.7392578125,        0.0532226562,        0.0283203125,       -0.2136230469,        0.6866455078,       -0.4577636719
1489457422.6884040833,1489457422.6908679008,       -0.7392578125,        0.0532226562,        0.0283203125,       -0.2746582031,        0.6561279297,       -0.4577636719
1489457422.6911509037,1489457422.6935679913,       -0.7392578125,        0.0532226562,        0.0283203125,       -0.2746582031,        0.6561279297,       -0.2136230469
1489457422.6938500404,1489457422.6962690353,       -0.7421875000,        0.0493164062,        0.0239257812,       -0.7019042969,        0.4730224609,       -0.2136230469
1489457422.6965529919,1489457422.6989650726,       -0.7421875000,        0.0493164062,        0.0239257812,       -0.7019042969,        0.4730224609,        0.0915527344
1489457422.6992409229,1489457422.7015318871,       -0.7421875000,        0.0493164062,        0.0239257812,       -0.6256103516,        0.9307861328,        0.0915527344
1489457422.7018060684,1489457422.7040979862,       -0.7421875000,        0.0493164062,        0.0239257812,       -0.6256103516,        0.9307861328,       -0.1678466797
1489457422.7043719292,1489457422.7066619396,       -0.7338867188,        0.0541992188,        0.0268554688,       -0.5493164062,        0.7324218750,       -0.1678466797
1489457422.7069358826,1489457422.7092640400,       -0.7338867188,        0.0541992188,        0.0268554688,       -0.5493164062,        0.7324218750,       -0.1678466797
1489457422.7095398903,1489457422.7118289471,       -0.7338867188,        0.0541992188,        0.0268554688,       -0.3051757812,        0.3814697266,       -0.1831054688
1489457422.7121040821,1489457422.7143969536,       -0.7338867188,        0.0541992188,        0.0268554688,       -0.3051757812,        0.3814697266,       -0.1831054688
1489457422.7146730423,1489457422.7169620991,       -0.7363281250,        0.0507812500,        0.0166015625,       -0.5645751953,        0.3051757812,        0.0915527344
1489457422.7172379494,1489457422.7195379734,       -0.7363281250,        0.0507812500,        0.0166015625,       -0.5645751953,        0.3051757812,        0.0915527344
1489457422.7198131084,1489457422.7221050262,       -0.7363281250,        0.0507812500,        0.0166015625,       -0.6866455078,        0.2593994141,        0.4882812500
1489457422.7223799229,1489457422.7246699333,       -0.7363281250,        0.0507812500,        0.0219726562,       -0.6866455078,        0.2593994141,        0.4882812500
1489457422.7249460220,1489457422.7272350788,       -0.7299804688,        0.0517578125,        0.0219726562,       -0.3967285156,        0.0762939453,        0.9613037109
1489457422.7275090218,1489457422.7299399376,       -0.7299804688,        0.0517578125,        0.0219726562,       -0.3967285156,        0.0762939453,        0.9613037109
1489457422.7302150726,1489457422.7325110435,       -0.7299804688,        0.0517578125,        0.0219726562,       -0.4577636719,        0.0457763672,        0.9765625000
1489457422.7327849865,1489457422.7350850105,       -0.7299804688,        0.0541992188,        0.0185546875,       -0.4577636719,        0.0457763672,        0.9765625000
1489457422.7353589535,1489457422.7376539707,       -0.7270507812,        0.0541992188,        0.0185546875,       -0.5187988281,        0.0762939453,        1.4190673828
1489457422.7379269600,1489457422.7403919697,       -0.7270507812,        0.0541992188,        0.0185546875,       -0.5187988281,        0.0762939453,        1.4190673828
1489457422.7406749725,1489457422.7430880070,       -0.7270507812,        0.0541992188,        0.0185546875,       -0.7019042969,        0.1068115234,        1.5869140625
1489457422.7433719635,1489457422.7457869053,       -0.7177734375,        0.0517578125,        0.0107421875,       -0.7019042969,        0.1068115234,        1.5869140625
1489457422.7461750507,1489457422.7485909462,       -0.7177734375,        0.0517578125,        0.0107421875,       -0.3051757812,        0.2593994141,        1.8005371094
1489457422.7488820553,1489457422.7511761189,       -0.7177734375,        0.0517578125,        0.0107421875,       -0.3051757812,        0.2593994141,        1.8005371094
1489457422.7514500618,1489457422.7537391186,       -0.7177734375,        0.0517578125,        0.0107421875,       -0.3051757812,        0.1220703125,        2.2735595703
1489457422.7540121078,1489457422.7563080788,       -0.7319335938,        0.0483398438,        0.0087890625,       -0.2441406250,        0.1220703125,        2.2735595703
1489457422.7565829754,1489457422.7588820457,       -0.7319335938,        0.0483398438,        0.0087890625,       -0.2441406250,        0.1220703125,        2.7923583984
1489457422.7591679096,1489457422.7615799904,       -0.7319335938,        0.0483398438,        0.0087890625,       -0.5798339844,        0.5035400391,        2.7923583984
1489457422.7618620396,1489457422.7642738819,       -0.7319335938,        0.0483398438,        0.0087890625,       -0.5798339844,        0.5035400391,        2.9754638672
1489457422.7645568848,1489457422.7669689655,       -0.7231445312,        0.0610351562,        0.0146484375,       -0.0305175781,        0.2746582031,        2.9754638672
1489457422.7672500610,1489457422.7696781158,       -0.7231445312,        0.0610351562,        0.0146484375,       -0.0305175781,        0.2746582031,        3.0517578125
1489457422.7699589729,1489457422.7723739147,       -0.7231445312,        0.0610351562,        0.0146484375,       -0.1068115234,        0.1525878906,        3.0517578125
1489457422.7726559639,1489457422.7750749588,       -0.7231445312,        0.0610351562,        0.0146484375,       -0.1068115234,        0.1525878906,        3.2653808594
1489457422.7753579617,1489457422.7777760029,       -0.7456054688,        0.0541992188,        0.0107421875,       -0.1525878906,        0.2746582031,        3.2653808594
1489457422.7780570984,1489457422.7804849148,       -0.7456054688,        0.0541992188,        0.0107421875,       -0.1525878906,        0.2746582031,        3.3111572266
1489457422.7807650566,1489457422.7831830978,       -0.7456054688,        0.0541992188,        0.0107421875,       -0.0305175781,        0.0152587891,        3.3111572266
1489457422.7834639549,1489457422.7858788967,       -0.7456054688,        0.0449218750,        0.0083007812,       -0.0305175781,        0.0152587891,        3.0364990234
1489457422.7861618996,1489457422.7885799408,       -0.7626953125,        0.0449218750,        0.0083007812,        0.0610351562,        0.1525878906,        3.0364990234
1489457422.7888700962,1489457422.7912840843,       -0.7626953125,        0.0449218750,        0.0083007812,        0.0610351562,        0.1525878906,        3.8757324219
1489457422.7915639877,1489457422.7939779758,       -0.7626953125,        0.0449218750,        0.0083007812,       -0.2593994141,       -0.1678466797,        3.8757324219
1489457422.7942600250,1489457422.7969000340,       -0.7402343750,        0.0532226562,        0.0195312500,       -0.2593994141,       -0.1678466797,        4.0893554688
1489457422.7971808910,1489457422.7999880314,       -0.7402343750,        0.0532226562,        0.0195312500,       -1.4190673828,       -0.2288818359,        4.0893554688
1489457422.8002650738,1489457422.8025619984,       -0.7402343750,        0.0532226562,        0.0195312500,       -1.4190673828,        0.3204345703,        4.1198730469
1489457422.8028359413,1489457422.8051280975,       -0.7402343750,        0.0532226562,        0.0195312500,       -1.9836425781,        0.3204345703,        4.1198730469
1489457422.8054010868,1489457422.8076939583,       -0.7387695312,        0.0576171875,        0.0078125000,       -1.9836425781,        0.3204345703,        4.3792724609
1489457422.8079690933,1489457422.8102710247,       -0.7387695312,        0.0576171875,        0.0078125000,       -2.5939941406,        0.2288818359,        4.3792724609
1489457422.8106520176,1489457422.8129498959,       -0.7387695312,        0.0576171875,        0.0078125000,       -2.5939941406,        0.2288818359,        4.2877197266
1489457422.8132240772,1489457422.8155190945,       -0.7387695312,        0.0576171875,        0.0180664062,       -2.8076171875,        0.1068115234,        4.2877197266
1489457422.8157930374,1489457422.8180859089,       -0.7329101562,        0.0654296875,        0.0180664062,       -2.8076171875,        0.1068115234,        4.2877197266
1489457422.8183610439,1489457422.8207669258,       -0.7329101562,        0.0654296875,        0.0180664062,       -3.1280517578,        0.1831054688,        4.1656494141
1489457422.8210499287,1489457422.8234629631,       -0.7329101562,        0.0654296875,        0.0180664062,       -3.1280517578,        0.1831054688,        4.1656494141
1489457422.8237459660,1489457422.8261590004,       -0.7329101562,        0.0922851562,        0.0180664062,       -2.7923583984,        0.4119873047,        3.9367675781
1489457422.8264389038,1489457422.8288691044,       -0.7226562500,        0.0922851562,        0.0180664062,       -2.7923583984,        0.4119873047,        3.9367675781
1489457422.8291430473,1489457422.8314399719,       -0.7226562500,        0.0922851562,        0.0180664062,       -1.9531250000,        0.6408691406,        3.4484863281
1489457422.8317129612,1489457422.8340051174,       -0.7226562500,        0.0922851562,        0.0180664062,       -1.9531250000,        0.6408691406,        3.4484863281
1489457422.8342790604,1489457422.8365709782,       -0.7358398438,        0.0874023438,        0.0346679688,       -1.1291503906,        0.3662109375,        3.1738281250
1489457422.8368461132,1489457422.8391458988,       -0.7358398438,        0.0874023438,        0.0346679688,       -1.1291503906,        0.3662109375,        3.1738281250
1489457422.8394200802,1489457422.8417110443,       -0.7358398438,        0.0874023438,        0.0346679688,       -0.6866455078,        0.5645751953,        2.0751953125
1489457422.8419849873,1489457422.8442790508,       -0.7358398438,        0.0874023438,        0.0346679688,       -0.6866455078,        0.5645751953,        2.0751953125
1489457422.8445520401,1489457422.8468439579,       -0.7631835938,        0.0942382812,        0.0258789062,       -0.5950927734,        0.6561279297,        1.2359619141
1489457422.8471169472,1489457422.8495700359,       -0.7631835938,        0.0942382812,        0.0258789062,       -0.5950927734,        0.6561279297,        1.2359619141
1489457422.8498458862,1489457422.8521420956,       -0.7631835938,        0.0942382812,        0.0258789062,       -0.6103515625,        0.7171630859,        0.7781982422
1489457422.8524160385,1489457422.8547079563,       -0.7631835938,        0.0942382812,        0.0258789062,       -0.6103515625,        0.7171630859,        0.7781982422
1489457422.8549809456,1489457422.8572759628,       -0.7412109375,        0.0913085938,        0.0229492188,        3.2958984375,        0.6408691406,        0.7171630859
1489457422.8575489521,1489457422.8599760532,       -0.7412109375,        0.0913085938,        0.0229492188,        0.1678466797,        0.6408691406,        0.7171630859
1489457422.8602600098,1489457422.8626749516,       -0.7412109375,        0.0913085938,        0.0229492188,       -3.7384033203,        0.8850097656,        0.4882812500
1489457422.8629579544,1489457422.8653790951,       -0.7412109375,        0.0913085938,        0.0229492188,       -0.0152587891,        0.8850097656,        0.4882812500
1489457422.8656599522,1489457422.8680710793,       -0.7294921875,        0.0649414062,        0.0141601562,        3.8909912109,        1.0833740234,        0.0457763672
1489457422.8683500290,1489457422.8707740307,       -0.7294921875,        0.0649414062,        0.0141601562,        0.1220703125,        1.0833740234,        0.0457763672
1489457422.8710570335,1489457422.8734700680,       -0.7294921875,        0.0649414062,        0.0141601562,        0.1220703125,        0.8392333984,        0.3967285156
1489457422.8738598824,1489457422.8762750626,       -0.7294921875,        0.0649414062,        0.0141601562,        0.6408691406,        0.8392333984,        0.3967285156
1489457422.8765549660,1489457422.8789699078,       -0.7392578125,        0.0576171875,        0.0141601562,        0.6408691406,        0.7781982422,        0.7324218750
1489457422.8792510033,1489457422.8816680908,       -0.7392578125,        0.0576171875,        0.0141601562,        0.4577636719,        0.7781982422,        0.7324218750
1489457422.8819489479,1489457422.8843629360,       -0.7392578125,        0.0576171875,        0.0141601562,        0.4577636719,        0.7019042969,        1.2359619141
1489457422.8846449852,1489457422.8870611191,       -0.7392578125,        0.0478515625,        0.0336914062,        0.3356933594,        0.7019042969,        1.2359619141
1489457422.8873419762,1489457422.8897631168,       -0.7309570312,        0.0478515625,        0.0336914062,        0.3356933594,        1.0070800781,        1.9683837891
1489457422.8900449276,1489457422.8924610615,       -0.7309570312,        0.0478515625,        0.0336914062,        0.1525878906,        1.0070800781,        1.9683837891
1489457422.8927409649,1489457422.8951599598,       -0.7309570312,        0.0478515625,        0.0336914062,        0.1525878906,        1.0681152344,        2.7618408203
1489457422.8954410553,1489457422.8978559971,       -0.7397460938,        0.0327148438,        0.0126953125,        0.0762939453,        1.0681152344,        2.7618408203
1489457422.8981370926,1489457422.9005639553,       -0.7397460938,        0.0327148438,        0.0126953125,        0.0762939453,        1.4648437500,        4.0588378906
1489457422.9008460045,1489457422.9032659531,       -0.7397460938,        0.0327148438,        0.0126953125,        0.1525878906,        1.4648437500,        4.0588378906
1489457422.9035460949,1489457422.9059619904,       -0.7397460938,        0.0327148438,        0.0126953125,        0.1525878906,        1.4648437500,        5.2337646484
1489457422.9062418938,1489457422.9086558819,       -0.7500000000,        0.0405273438,        0.0209960938,        0.3204345703,        1.6937255859,        5.2337646484
1489457422.9089469910,1489457422.9113719463,       -0.7500000000,        0.0405273438,        0.0209960938,        0.3204345703,        1.6937255859,        6.3323974609
1489457422.9116530418,1489457422.9140698910,       -0.7500000000,        0.0405273438,        0.0209960938,        0.5187988281,        1.6937255859,        6.3323974609
1489457422.9143519402,1489457422.9167759418,       -0.7500000000,        0.0405273438,        0.0151367188,        0.5187988281,        1.6937255859,        7.5531005859
1489457422.9170598984,1489457422.9195408821,       -0.7373046875,        0.0468750000,        0.0151367188,        0.3662109375,        1.6784667969,        7.5531005859
1489457422.9198338985,1489457422.9222609997,       -0.7373046875,        0.0468750000,        0.0151367188,        0.3662109375,        1.6784667969,        8.9874267578
1489457422.9225449562,1489457422.9249639511,       -0.7373046875,        0.0468750000,        0.0151367188,        0.6408691406,        1.9836425781,        8.9874267578
1489457422.9252460003,1489457422.9276609421,       -0.7324218750,        0.0224609375,        0.0229492188,        0.6408691406,        1.9836425781,       10.8032226562
1489457422.9279460907,1489457422.9303689003,       -0.7324218750,        0.0224609375,        0.0229492188,        0.8239746094,        1.9531250000,       10.8032226562
1489457422.9306559563,1489457422.9330720901,       -0.7324218750,        0.0224609375,        0.0229492188,        0.8239746094,        1.9531250000,       13.4429931641
1489457422.9333579540,1489457422.9357759953,       -0.7324218750,        0.0224609375,        0.0229492188,       -0.0305175781,        1.4801025391,       13.4429931641
1489457422.9360609055,1489457422.9384760857,       -0.7436523438,       -0.0327148438,        0.0263671875,       -0.0305175781,        1.4801025391,       16.3421630859
1489457422.9388799667,1489457422.9423298836,       -0.7436523438,       -0.0327148438,        0.0263671875,       -2.1362304688,        1.5869140625,       16.3421630859
1489457422.9426109791,1489457422.9448978901,       -0.7436523438,       -0.0327148438,        0.0263671875,       -4.1809082031,        1.3427734375,       19.8669433594
1489457422.9451758862,1489457422.9474649429,       -0.8686523438,       -0.0664062500,        0.0170898438,       -4.1809082031,        1.3427734375,       19.8669433594
1489457422.9477419853,1489457422.9501791000,       -0.7622070312,       -0.0664062500,        0.0170898438,       -6.0882568359,        1.2969970703,       23.9868164062
1489457422.9504570961,1489457422.9527440071,       -0.7622070312,       -0.0664062500,        0.0170898438,       -6.0882568359,        1.2969970703,       23.9868164062
1489457422.9530220032,1489457422.9553020000,       -0.7622070312,       -0.0664062500,        0.0170898438,       -8.4075927734,        1.4953613281,       29.1748046875
1489457422.9555809498,1489457422.9578700066,       -0.7822265625,       -0.0639648438,        0.0117187500,       -8.4075927734,        1.4953613281,       29.1748046875
1489457422.9581480026,1489457422.9604470730,       -0.7822265625,       -0.0639648438,        0.0117187500,       -8.4075927734,        2.0904541016,       34.5764160156
1489457422.9607269764,1489457422.9630150795,       -0.7822265625,       -0.0639648438,        0.0117187500,       -9.6130371094,        2.0904541016,       34.5764160156
1489457422.9632940292,1489457422.9655809402,       -0.7822265625,       -0.0639648438,        0.0117187500,       -9.6130371094,        2.0904541016,       40.4968261719
1489457422.9658598900,1489457422.9681470394,       -0.8046875000,       -0.0644531250,       -0.0180664062,       -9.0026855469,        2.1667480469,       40.4968261719
1489457422.9684250355,1489457422.9707579613,       -0.8046875000,       -0.0644531250,       -0.0180664062,       -9.0026855469,        2.1667480469,       48.3093261719
1489457422.9710369110,1489457422.9733269215,       -0.8046875000,       -0.0644531250,       -0.0180664062,       -7.6141357422,        2.1514892578,       47.1801757812
1489457422.9736070633,1489457422.9758939743,       -0.8046875000,       -0.0644531250,       -0.0180664062,       -7.6141357422,        2.1514892578,       47.1801757812
1489457422.9761719704,1489457422.9784679413,       -0.7939453125,       -0.0683593750,       -0.0541992188,       -5.6762695312,        1.9226074219,       53.8024902344
1489457422.9787459373,1489457422.9810340405,       -0.7939453125,       -0.0683593750,       -0.0541992188,       -5.6762695312,        1.9226074219,       53.8024902344
1489457422.9813129902,1489457422.9836030006,       -0.7939453125,       -0.0683593750,       -0.0541992188,       -3.7078857422,        1.6937255859,       60.9436035156
1489457422.9838809967,1489457422.9861690998,       -0.7939453125,       -0.0683593750,       -0.0541992188,       -3.7078857422,        1.6937255859,       60.9436035156
1489457422.9864480495,1489457422.9887359142,       -0.7763671875,       -0.0644531250,       -0.0869140625,       -2.9602050781,        0.0000000000,       68.3898925781
1489457422.9892079830,1489457422.9915060997,       -0.7763671875,       -0.0644531250,       -0.0869140625,       -2.9602050781,        0.0000000000,       68.3898925781
1489457422.9917850494,1489457422.9940760136,       -0.7763671875,       -0.0644531250,       -0.0869140625,       -2.5787353516,       -2.2888183594,       73.5626220703
1489457422.9943559170,1489457422.9966509342,       -0.7763671875,       -0.0644531250,       -0.0869140625,       -2.5787353516,       -2.2888183594,       73.5626220703
1489457422.9969320297,1489457422.9993839264,       -0.7573242188,       -0.0146484375,       -0.0927734375,       -3.1127929688,       -4.4403076172,       78.4454345703
1489457422.9996690750,1489457423.0020859241,       -0.7573242188,       -0.0146484375,       -0.0927734375,       -3.1127929688,       -4.4403076172,       78.4454345703
1489457423.0024890900,1489457423.0049080849,       -0.7573242188,       -0.0146484375,       -0.0927734375,       -4.0740966797,       -6.8511962891,       83.4197998047
1489457423.0051939487,1489457423.0076129436,       -0.7573242188,       -0.0146484375,       -0.0986328125,       -4.0740966797,       -6.8511962891,       83.4197998047
1489457423.0078980923,1489457423.0102560520,       -0.7631835938,        0.0219726562,       -0.0986328125,       -5.0354003906,       -8.4686279297,       87.9974365234
1489457423.0105381012,1489457423.0128300190,       -0.7631835938,        0.0219726562,       -0.0986328125,       -5.0354003906,       -8.4686279297,       87.9974365234
1489457423.0131089687,1489457423.0154008865,       -0.7631835938,        0.0219726562,       -0.0986328125,       -7.7362060547,      -10.2691650391,       91.8579101562
1489457423.0156829357,1489457423.0179789066,       -0.7631835938,        0.0131835938,       -0.0869140625,       -7.7362060547,      -10.2691650391,       91.8579101562
1489457423.0182619095,1489457423.0206880569,       -0.7646484375,        0.0131835938,       -0.0869140625,      -11.3372802734,      -11.4440917969,       94.5892333984
1489457423.0209820271,1489457423.0233960152,       -0.7646484375,        0.0131835938,       -0.0869140625,      -11.3372802734,      -11.4440917969,       94.5892333984
1489457423.0236868858,1489457423.0261020660,       -0.7646484375,        0.0131835938,       -0.0869140625,      -15.5334472656,      -13.1988525391,       96.0540771484
1489457423.0263938904,1489457423.0288579464,       -0.7241210938,        0.0537109375,       -0.0668945312,      -15.5334472656,      -13.1988525391,       96.0540771484
1489457423.0291519165,1489457423.0315690041,       -0.7241210938,        0.0537109375,       -0.0668945312,      -19.9737548828,      -13.9465332031,       95.9930419922
1489457423.0318610668,1489457423.0342760086,       -0.7241210938,        0.0537109375,       -0.0668945312,      -19.9737548828,      -13.9465332031,       95.9930419922
1489457423.0345680714,1489457423.0369820595,       -0.7241210938,        0.0537109375,       -0.0668945312,      -19.9737548828,      -14.9841308594,       95.1995849609
1489457423.0372729301,1489457423.0396599770,       -0.6269531250,        0.1328125000,       -0.0249023438,      -22.7966308594,      -14.9841308594,       95.1995849609
1489457423.0399460793,1489457423.0422410965,       -0.6269531250,        0.1328125000,       -0.0249023438,      -26.7028808594,      -15.5029296875,       93.5821533203
1489457423.0425460339,1489457423.0448379517,       -0.6269531250,        0.1328125000,       -0.0249023438,      -23.7121582031,      -15.5029296875,       93.5821533203
1489457423.0451240540,1489457423.0474100113,       -0.6269531250,        0.1328125000,       -0.0249023438,      -23.7121582031,      -15.5029296875,       91.9189453125
1489457423.0476949215,1489457423.0500800610,       -0.5712890625,        0.1665039062,       -0.0097656250,      -23.2696533203,      -14.8468017578,       91.9189453125
1489457423.0503749847,1489457423.0527861118,       -0.5712890625,        0.1665039062,       -0.0097656250,      -23.2696533203,      -14.8468017578,       90.3625488281
1489457423.0530779362,1489457423.0556120872,       -0.5712890625,        0.1665039062,       -0.0097656250,      -23.8952636719,      -13.4887695312,       90.3625488281
1489457423.0559060574,1489457423.0583140850,       -0.5712890625,        0.1665039062,        0.0180664062,      -23.8952636719,      -13.4887695312,       88.8671875000
1489457423.0590600967,1489457423.0614700317,       -0.5102539062,        0.1352539062,        0.0180664062,      -26.0620117188,      -12.8173828125,       88.8671875000
1489457423.0617640018,1489457423.0641698837,       -0.5102539062,        0.1352539062,        0.0180664062,      -29.9682617188,      -13.5040283203,       88.5314941406
1489457423.0644619465,1489457423.0668659210,       -0.5102539062,        0.1352539062,        0.0180664062,      -30.3192138672,      -13.5040283203,       88.5314941406
1489457423.0672669411,1489457423.0696909428,       -0.4511718750,        0.1865234375,        0.1074218750,      -34.7290039062,      -15.5639648438,       88.3178710938
1489457423.0699830055,1489457423.0723869801,       -0.4511718750,        0.1865234375,        0.1074218750,      -34.7290039062,      -15.5639648438,       88.3178710938
1489457423.0726809502,1489457423.0750899315,       -0.4511718750,        0.1865234375,        0.1074218750,      -38.1622314453,      -18.2800292969,       87.7685546875
1489457423.0753810406,1489457423.0777869225,       -0.4511718750,        0.1865234375,        0.1074218750,      -38.1622314453,      -18.2800292969,       87.7685546875
1489457423.0780780315,1489457423.0804769993,       -0.5288085938,        0.2416992188,        0.1889648438,      -42.0684814453,      -19.1955566406,       87.4786376953
1489457423.0807669163,1489457423.0831511021,       -0.5288085938,        0.2416992188,        0.1889648438,      -39.1235351562,      -19.1955566406,       87.4786376953
1489457423.0834410191,1489457423.0858249664,       -0.5288085938,        0.2416992188,        0.1889648438,      -35.2172851562,      -19.0124511719,       87.1734619141
1489457423.0861179829,1489457423.0884950161,       -0.5288085938,        0.2416992188,        0.2031250000,      -37.8875732422,      -19.0124511719,       87.1734619141
1489457423.0887839794,1489457423.0911779404,       -0.6171875000,        0.2192382812,        0.2031250000,      -37.8875732422,      -19.6075439453,       86.9598388672
1489457423.0914640427,1489457423.0937540531,       -0.6171875000,        0.2192382812,        0.2031250000,      -36.7584228516,      -19.6075439453,       86.9598388672
1489457423.0940370560,1489457423.0963261127,       -0.6171875000,        0.2192382812,        0.2031250000,      -36.7584228516,      -19.6075439453,       87.0513916016
1489457423.0966100693,1489457423.0989079475,       -0.6171875000,        0.2641601562,        0.1660156250,      -34.6527099609,      -20.4772949219,       87.0513916016
1489457423.0991930962,1489457423.1014928818,       -0.6870117188,        0.2641601562,        0.1660156250,      -34.6527099609,      -20.4772949219,       87.1276855469
1489457423.1017780304,1489457423.1040699482,       -0.6870117188,        0.2641601562,        0.1660156250,      -30.4870605469,      -21.1944580078,       87.1276855469
1489457423.1043539047,1489457423.1066460609,       -0.6870117188,        0.2641601562,        0.1660156250,      -30.4870605469,      -21.1944580078,       87.1276855469
1489457423.1069309711,1489457423.1093709469,       -0.8120117188,        0.3081054688,        0.0576171875,      -23.1933593750,      -20.3857421875,       86.3494873047
1489457423.1096580029,1489457423.1119539738,       -0.7524414062,        0.3081054688,        0.0576171875,      -23.1933593750,      -20.3857421875,       86.3494873047
1489457423.1122400761,1489457423.1145329475,       -0.7524414062,        0.3081054688,        0.0576171875,      -13.3819580078,      -18.8903808594,       85.8154296875
1489457423.1148200035,1489457423.1171100140,       -0.7524414062,        0.3081054688,        0.0576171875,      -13.3819580078,      -18.8903808594,       85.8154296875
1489457423.1173949242,1489457423.1198470592,       -0.8041992188,        0.2231445312,       -0.0239257812,       -4.8217773438,      -18.2800292969,       85.8306884766
1489457423.1201360226,1489457423.1225581169,       -0.8041992188,        0.2231445312,       -0.0239257812,       -4.8217773438,      -18.2800292969,       85.8306884766
1489457423.1228470802,1489457423.1252560616,       -0.8041992188,        0.2231445312,       -0.0239257812,       -0.9918212891,      -17.4560546875,       86.5020751953
1489457423.1255459785,1489457423.1279630661,       -0.8041992188,        0.2231445312,       -0.0239257812,       -0.9918212891,      -17.4560546875,       86.5020751953
1489457423.1282520294,1489457423.1306769848,       -0.7558593750,       -0.0014648438,       -0.0839843750,       -0.6561279297,      -18.5089111328,       87.3107910156
1489457423.1310689449,1489457423.1334838867,       -0.7558593750,       -0.0014648438,       -0.0839843750,       -0.6561279297,      -18.5089111328,       87.3107910156
1489457423.1337749958,1489457423.1361858845,       -0.7558593750,       -0.0014648438,       -0.0839843750,       -5.2185058594,      -20.7519531250,       87.7990722656
1489457423.1364760399,1489457423.1389050484,       -0.7558593750,       -0.0014648438,       -0.0502929688,       -5.2185058594,      -20.7519531250,       87.7990722656
1489457423.1391859055,1489457423.1414759159,       -0.6523437500,        0.0244140625,       -0.0502929688,      -13.6260986328,      -24.2919921875,       88.5009765625
1489457423.1417620182,1489457423.1440560818,       -0.6523437500,        0.0244140625,       -0.0502929688,      -13.6260986328,      -24.2919921875,       88.5009765625
1489457423.1443400383,1489457423.1466279030,       -0.6523437500,        0.0244140625,       -0.0502929688,      -22.7203369141,      -27.4963378906,       89.5538330078
1489457423.1469130516,1489457423.1492691040,       -0.6523437500,        0.2695312500,        0.0322265625,      -22.7203369141,      -27.4963378906,       89.5538330078
1489457423.1495599747,1489457423.1519811153,       -0.6787109375,        0.2695312500,        0.0322265625,      -28.3508300781,      -28.7017822266,       90.5151367188
1489457423.1522719860,1489457423.1546840668,       -0.6787109375,        0.2695312500,        0.0322265625,      -28.3508300781,      -28.7017822266,       90.5151367188
1489457423.1549789906,1489457423.1573901176,       -0.6787109375,        0.2695312500,        0.0322265625,      -30.0598144531,      -28.5034179688,       89.5233154297
1489457423.1576819420,1489457423.1601150036,       -0.6718750000,        0.4179687500,        0.0795898438,      -30.0598144531,      -28.5034179688,       89.5233154297
1489457423.1604070663,1489457423.1628229618,       -0.6718750000,        0.4179687500,        0.0795898438,      -28.5644531250,      -28.7322998047,       86.7462158203
1489457423.1631159782,1489457423.1655299664,       -0.6718750000,        0.4179687500,        0.0795898438,      -28.5644531250,      -28.7322998047,       86.7462158203
1489457423.1658220291,1489457423.1682350636,       -0.6718750000,        0.4179687500,        0.0795898438,      -24.5513916016,      -28.7933349609,       84.3811035156
1489457423.1685280800,1489457423.1709599495,       -0.6342773438,        0.3789062500,        0.1064453125,      -24.5513916016,      -28.7933349609,       84.3811035156
1489457423.1712529659,1489457423.1736690998,       -0.6342773438,        0.3789062500,        0.1064453125,      -20.2026367188,      -27.6031494141,       82.7789306641
1489457423.1739621162,1489457423.1765930653,       -0.6342773438,        0.3789062500,        0.1064453125,      -20.2026367188,      -27.6031494141,       82.7789306641
1489457423.1768860817,1489457423.1792941093,       -0.6342773438,        0.3789062500,        0.1562500000,      -17.0440673828,      -27.4047851562,       81.5124511719
1489457423.1800110340,1489457423.1824278831,       -0.5883789062,        0.3208007812,        0.1562500000,      -17.0440673828,      -27.4047851562,       81.5124511719
1489457423.1827220917,1489457423.1851370335,       -0.5883789062,        0.3208007812,        0.1562500000,      -14.6789550781,      -27.8167724609,       79.9865722656
1489457423.1854310036,1489457423.1878480911,       -0.5883789062,        0.3208007812,        0.1562500000,      -14.6789550781,      -27.8167724609,       79.9865722656
1489457423.1881411076,1489457423.1904680729,       -0.6523437500,        0.4833984375,        0.2260742188,      -13.6718750000,      -27.5573730469,       77.5756835938
1489457423.1907539368,1489457423.1930449009,       -0.6523437500,        0.4833984375,        0.2260742188,      -13.6718750000,      -27.5573730469,       77.5756835938
1489457423.1933279037,1489457423.1956250668,       -0.6523437500,        0.4833984375,        0.2260742188,       -9.4909667969,      -27.3437500000,       74.2950439453
1489457423.1959071159,1489457423.1982009411,       -0.6523437500,        0.4833984375,        0.2260742188,       -9.4909667969,      -27.3437500000,       74.2950439453
1489457423.1985878944,1489457423.2010459900,       -0.6171875000,        0.4912109375,        0.1010742188,       -2.3956298828,      -27.9846191406,       72.0977783203
1489457423.2013359070,1489457423.2037529945,       -0.6171875000,        0.4912109375,        0.1010742188,       -2.3956298828,      -27.9846191406,       72.0977783203
1489457423.2040429115,1489457423.2064580917,       -0.6171875000,        0.4912109375,        0.1010742188,        7.0343017578,      -27.9541015625,       69.5037841797
1489457423.2067489624,1489457423.2091550827,       -0.6171875000,        0.4912109375,        0.1010742188,        7.0343017578,      -27.9541015625,       69.5037841797
1489457423.2094380856,1489457423.2117319107,       -0.6572265625,        0.5146484375,        0.0776367188,       12.6190185547,      -26.5808105469,       65.9332275391
1489457423.2120149136,1489457423.2143089771,       -0.6572265625,        0.5146484375,        0.0776367188,       12.6190185547,      -26.5808105469,       65.9332275391
1489457423.2145929337,1489457423.2168838978,       -0.6572265625,        0.5146484375,        0.0776367188,       14.0533447266,      -26.0162353516,       62.8662109375
1489457423.2171669006,1489457423.2194709778,       -0.6572265625,        0.5146484375,       -0.0502929688,       14.0533447266,      -26.0162353516,       62.8662109375
1489457423.2197558880,1489457423.2220449448,       -0.7529296875,        0.4482421875,       -0.0502929688,       16.8304443359,      -25.5889892578,       61.7218017578
1489457423.2223289013,1489457423.2246239185,       -0.7529296875,        0.4482421875,       -0.0502929688,       16.8304443359,      -25.5889892578,       61.7218017578
1489457423.2249069214,1489457423.2272028923,       -0.7529296875,        0.4482421875,       -0.0502929688,       16.8304443359,      -24.9938964844,       62.6525878906
1489457423.2274870872,1489457423.2299330235,       -0.7529296875,        0.4482421875,       -0.0322265625,       16.8304443359,      -24.9938964844,       62.6525878906
1489457423.2302188873,1489457423.2325150967,       -0.6879882812,        0.3110351562,       -0.0322265625,       16.8304443359,      -21.0876464844,       63.2476806641
1489457423.2327990532,1489457423.2350940704,       -0.6879882812,        0.3110351562,       -0.0322265625,       12.3748779297,      -23.0102539062,       63.2476806641
1489457423.2353780270,1489457423.2376680374,       -0.6879882812,        0.3110351562,       -0.0322265625,       12.3748779297,      -23.0102539062,       62.2253417969
1489457423.2379519939,1489457423.2404110432,       -0.6879882812,        0.3710937500,        0.1103515625,        4.0740966797,      -21.5454101562,       62.2253417969
1489457423.2407019138,1489457423.2431221008,       -0.7036132812,        0.3710937500,        0.1103515625,        4.0740966797,      -21.5454101562,       60.8673095703
1489457423.2434120178,1489457423.2458269596,       -0.7036132812,        0.3710937500,        0.1103515625,        0.0762939453,      -20.3399658203,       60.8673095703
1489457423.2461180687,1489457423.2485330105,       -0.7036132812,        0.3710937500,        0.1103515625,        0.0762939453,      -20.3399658203,       59.7839355469
1489457423.2488319874,1489457423.2512500286,       -0.5927734375,        0.3906250000,        0.0922851562,        1.8615722656,      -21.2402343750,       59.7839355469
1489457423.2515389919,1489457423.2539579868,       -0.5927734375,        0.3906250000,        0.0922851562,        1.8615722656,      -21.2402343750,       59.0820312500
1489457423.2542459965,1489457423.2566590309,       -0.5927734375,        0.3906250000,        0.0922851562,        5.8593750000,      -22.0336914062,       59.0820312500
1489457423.2569479942,1489457423.2593729496,       -0.5927734375,        0.3906250000,        0.0922851562,        5.8593750000,      -22.0336914062,       58.3190917969
1489457423.2596640587,1489457423.2620820999,       -0.5810546875,        0.3862304688,        0.1445312500,        9.1705322266,      -20.8435058594,       58.3190917969
1489457423.2624769211,1489457423.2648959160,       -0.5810546875,        0.3862304688,        0.1445312500,        9.1705322266,      -20.8435058594,       56.0150146484
1489457423.2651839256,1489457423.2675960064,       -0.5810546875,        0.3862304688,        0.1445312500,        9.0332031250,      -19.0734863281,       56.0150146484
1489457423.2678840160,1489457423.2703130245,       -0.5810546875,        0.3862304688,        0.0996093750,        9.0332031250,      -19.0734863281,       53.7872314453
1489457423.2706029415,1489457423.2730150223,       -0.6621093750,        0.4794921875,        0.0996093750,        7.3852539062,      -18.9971923828,       53.7872314453
1489457423.2733039856,1489457423.2757220268,       -0.6621093750,        0.4794921875,        0.0996093750,        7.3852539062,      -18.9971923828,       52.2460937500
1489457423.2760109901,1489457423.2784240246,       -0.6621093750,        0.4794921875,        0.0996093750,        9.9182128906,      -18.5546875000,       52.2460937500
1489457423.2787129879,1489457423.2811369896,       -0.5722656250,        0.5253906250,        0.0727539062,        9.9182128906,      -18.5546875000,       51.3305664062
1489457423.2814240456,1489457423.2838399410,       -0.5722656250,        0.5253906250,        0.0727539062,       14.6179199219,      -17.8375244141,       51.3305664062
1489457423.2841339111,1489457423.2865569592,       -0.5722656250,        0.5253906250,        0.0727539062,       14.6179199219,      -17.8375244141,       49.7283935547
1489457423.2868480682,1489457423.2892830372,       -0.5722656250,        0.5253906250,        0.0727539062,       18.7072753906,      -16.9677734375,       49.7283935547
1489457423.2895739079,1489457423.2919878960,       -0.6279296875,        0.5117187500,        0.0942382812,       18.7072753906,      -16.9677734375,       47.1801757812
1489457423.2922799587,1489457423.2946980000,       -0.6279296875,        0.5117187500,        0.0942382812,       19.3176269531,      -15.3808593750,       47.1801757812
1489457423.2950530052,1489457423.2975039482,       -0.6279296875,        0.5117187500,        0.0942382812,       19.3176269531,      -15.3808593750,       45.0744628906
1489457423.2977960110,1489457423.3006548882,       -0.6279296875,        0.5117187500,        0.0942382812,       21.1944580078,      -13.7786865234,       45.0744628906
1489457423.3009479046,1489457423.3033640385,       -0.6406250000,        0.4682617188,        0.0913085938,       21.1944580078,      -13.7786865234,       43.0603027344
1489457423.3036561012,1489457423.3060729504,       -0.6406250000,        0.4682617188,        0.0913085938,       22.2778320312,      -12.3138427734,       43.0603027344
1489457423.3063659668,1489457423.3087770939,       -0.6406250000,        0.4682617188,        0.0913085938,       22.2778320312,       -8.4075927734,       40.6188964844
1489457423.3091130257,1489457423.3115289211,       -0.6113281250,        0.4541015625,        0.1035156250,       21.8200683594,      -10.0402832031,       40.6188964844
1489457423.3118200302,1489457423.3142371178,       -0.6113281250,        0.4541015625,        0.1035156250,       21.8200683594,      -10.0402832031,       37.6586914062
1489457423.3145298958,1489457423.3169469833,       -0.6113281250,        0.4541015625,        0.1035156250,       19.9890136719,       -8.0413818359,       37.6586914062
1489457423.3172369003,1489457423.3196599483,       -0.6113281250,        0.4541015625,        0.1035156250,       19.9890136719,       -4.1351318359,       34.1949462891
1489457423.3199501038,1489457423.3223650455,       -0.5859375000,        0.5346679688,        0.0917968750,       18.5089111328,       -7.2479248047,       34.1949462891
1489457423.3226559162,1489457423.3250749111,       -0.5859375000,        0.5346679688,        0.0917968750,       18.5089111328,      -11.1541748047,       30.0140380859
1489457423.3253660202,1489457423.3277850151,       -0.5859375000,        0.5346679688,        0.0917968750,       18.6004638672,       -8.5144042969,       30.0140380859
1489457423.3281810284,1489457423.3305521011,       -0.5859375000,        0.5346679688,        0.0917968750,       18.6004638672,       -8.5144042969,       26.2908935547
1489457423.3308351040,1489457423.3331289291,       -0.5390625000,        0.5747070312,        0.0683593750,       19.1802978516,      -10.0860595703,       26.2908935547
1489457423.3334159851,1489457423.3357028961,       -0.5390625000,        0.5747070312,        0.0683593750,       19.1802978516,      -10.0860595703,       22.5067138672
1489457423.3359889984,1489457423.3382809162,       -0.5390625000,        0.5747070312,        0.0683593750,       19.6533203125,      -12.4664306641,       22.5067138672
1489457423.3385651112,1489457423.3408689499,       -0.5390625000,        0.5747070312,        0.0815429688,       19.6533203125,      -12.4664306641,       18.6004638672
1489457423.3411540985,1489457423.3434469700,       -0.5273437500,        0.5742187500,        0.0815429688,       19.1345214844,      -14.1906738281,       18.3868408203
1489457423.3437299728,1489457423.3460230827,       -0.5273437500,        0.5742187500,        0.0815429688,       19.1345214844,      -14.1906738281,       18.3868408203
1489457423.3463070393,1489457423.3486039639,       -0.5273437500,        0.5742187500,        0.0815429688,       16.5100097656,      -16.2506103516,       13.5955810547
1489457423.3489630222,1489457423.3512639999,       -0.5273437500,        0.5810546875,        0.0869140625,       16.5100097656,      -16.2506103516,       13.5955810547
1489457423.3515501022,1489457423.3538429737,       -0.4990234375,        0.5810546875,        0.0869140625,       15.3350830078,      -17.8985595703,        9.2468261719
1489457423.3541269302,1489457423.3564178944,       -0.4990234375,        0.5810546875,        0.0869140625,       15.3350830078,      -17.8985595703,        9.2468261719
1489457423.3566999435,1489457423.3591530323,       -0.4990234375,        0.5810546875,        0.0869140625,       15.5487060547,      -19.2260742188,        5.0506591797
1489457423.3594450951,1489457423.3618628979,       -0.6240234375,        0.6176757812,        0.1030273438,       15.5487060547,      -19.2260742188,        5.0506591797
1489457423.3621520996,1489457423.3645699024,       -0.5429687500,        0.6176757812,        0.1030273438,       15.7470703125,      -18.9361572266,        0.8697509766
1489457423.3648600578,1489457423.3672850132,       -0.5429687500,        0.6176757812,        0.1030273438,       15.7470703125,      -18.9361572266,        0.8697509766
1489457423.3675739765,1489457423.3700358868,       -0.5429687500,        0.6176757812,        0.1030273438,       17.4560546875,      -17.4560546875,       -3.2958984375
1489457423.3703279495,1489457423.3727459908,       -0.5942382812,        0.5893554688,        0.0986328125,       17.4560546875,      -17.4560546875,       -3.2958984375
1489457423.3730349541,1489457423.3754498959,       -0.5942382812,        0.5893554688,        0.0986328125,       19.4549560547,      -16.3726806641,       -8.1634521484
1489457423.3757400513,1489457423.3781569004,       -0.5942382812,        0.5893554688,        0.0986328125,       19.4549560547,      -16.3726806641,       -8.1634521484
1489457423.3784461021,1489457423.3807721138,       -0.5942382812,        0.5893554688,        0.0986328125,       22.3999023438,      -14.9230957031,      -12.5732421875
1489457423.3810560703,1489457423.3833520412,       -0.6752929688,        0.5693359375,        0.1362304688,       22.3999023438,      -14.9230957031,      -12.5732421875
1489457423.3836350441,1489457423.3859269619,       -0.6752929688,        0.5693359375,        0.1362304688,       28.6102294922,      -11.8560791016,      -17.3034667969
1489457423.3862121105,1489457423.3885059357,       -0.6752929688,        0.5693359375,        0.1362304688,       28.6102294922,      -11.8560791016,      -17.3034667969
1489457423.3888380527,1489457423.3912498951,       -0.6752929688,        0.5693359375,        0.1870117188,       33.6151123047,       -8.3923339844,      -23.1170654297
1489457423.3916471004,1489457423.3940598965,       -0.7441406250,        0.6523437500,        0.1870117188,       33.6151123047,       -8.3923339844,      -23.1170654297
1489457423.3943479061,1489457423.3967680931,       -0.7441406250,        0.6523437500,        0.1870117188,       40.5120849609,       -4.4250488281,      -29.4189453125
1489457423.3970561028,1489457423.3994851112,       -0.7441406250,        0.6523437500,        0.1870117188,       40.5120849609,       -4.4250488281,      -29.4189453125
1489457423.3997740746,1489457423.4021959305,       -0.7441406250,        0.6015625000,        0.2495117188,       49.3469238281,        1.5716552734,      -35.4003906250
1489457423.4024839401,1489457423.4049000740,       -0.7324218750,        0.6015625000,        0.2495117188,       49.3469238281,        1.5716552734,      -35.4003906250
1489457423.4051880836,1489457423.4076070786,       -0.7324218750,        0.6015625000,        0.2495117188,       60.0128173828,        6.2255859375,      -39.2456054688
1489457423.4078950882,1489457423.4102571011,       -0.7324218750,        0.6015625000,        0.2495117188,       60.0128173828,        6.2255859375,      -39.2456054688
1489457423.4105379581,1489457423.4128310680,       -0.6704101562,        0.4838867188,        0.3168945312,       72.3266601562,        7.0037841797,      -41.8853759766
1489457423.4131131172,1489457423.4155180454,       -0.6704101562,        0.4838867188,        0.3168945312,       72.3266601562,        7.0037841797,      -41.8853759766
1489457423.4158020020,1489457423.4181070328,       -0.6704101562,        0.4838867188,        0.3168945312,       76.5075683594,        5.6152343750,      -45.3338623047
1489457423.4183909893,1489457423.4211380482,       -0.6704101562,        0.4838867188,        0.3168945312,       76.5075683594,        5.6152343750,      -45.3338623047
1489457423.4214210510,1489457423.4237151146,       -0.6474609375,        0.5244140625,        0.3032226562,       76.6754150391,        5.0506591797,      -50.2777099609
1489457423.4239969254,1489457423.4262890816,       -0.6474609375,        0.5244140625,        0.3032226562,       76.6754150391,        5.0506591797,      -50.2777099609
1489457423.4265699387,1489457423.4288818836,       -0.6474609375,        0.5244140625,        0.3032226562,       72.7691650391,        5.4931640625,      -55.8319091797
1489457423.4291698933,1489457423.4315860271,       -0.6474609375,        0.5244140625,        0.1782226562,       74.0356445312,        5.4931640625,      -55.8319091797
1489457423.4318749905,1489457423.4342899323,       -0.6518554688,        0.6191406250,        0.2368164062,       70.1293945312,        6.1340332031,      -62.7136230469
1489457423.4345788956,1489457423.4369950294,       -0.6518554688,        0.6191406250,        0.2368164062,       69.5037841797,        6.1340332031,      -62.7136230469
1489457423.4372859001,1489457423.4397149086,       -0.6518554688,        0.6191406250,        0.2368164062,       69.5037841797,        7.9803466797,      -70.0225830078
1489457423.4400041103,1489457423.4424269199,       -0.6518554688,        0.6420898438,        0.1396484375,       66.8640136719,        7.9803466797,      -70.0225830078
1489457423.4427158833,1489457423.4451329708,       -0.6967773438,        0.6420898438,        0.1396484375,       62.9577636719,       10.7574462891,      -77.5756835938
1489457423.4454250336,1489457423.4478430748,       -0.6967773438,        0.6420898438,        0.1396484375,       63.9495849609,       10.7574462891,      -77.5756835938
1489457423.4481360912,1489457423.4504640102,       -0.6967773438,        0.6420898438,        0.1396484375,       60.0433349609,       15.8386230469,      -86.1663818359
1489457423.4507489204,1489457423.4533059597,       -0.8037109375,        0.7641601562,        0.0629882812,       58.9752197266,       15.8386230469,      -86.1663818359
1489457423.4535939693,1489457423.4564800262,       -0.8037109375,        0.7641601562,        0.0629882812,       55.4656982422,       21.9116210938,      -96.7407226562
1489457423.4568760395,1489457423.4592618942,       -0.8037109375,        0.7641601562,        0.0629882812,       55.4656982422,       21.9116210938,      -96.7407226562
1489457423.4595489502,1489457423.4618370533,       -0.8037109375,        0.7641601562,        0.0629882812,       52.6275634766,       29.1442871094,     -108.3984375000
1489457423.4621210098,1489457423.4644119740,       -0.9599609375,        0.8569335938,        0.0014648438,       52.6275634766,       29.1442871094,     -108.3984375000
1489457423.4646968842,1489457423.4669830799,       -0.9599609375,        0.8569335938,        0.0014648438,       49.0264892578,       36.9720458984,     -121.8109130859
1489457423.4672679901,1489457423.4696109295,       -0.9599609375,        0.8569335938,        0.0014648438,       49.0264892578,       36.9720458984,     -121.8109130859
1489457423.4698960781,1489457423.4721848965,       -0.9599609375,        0.8569335938,        0.0058593750,       49.0264892578,       44.9066162109,     -138.0004882812
1489457423.4724719524,1489457423.4747579098,       -1.1386718750,        0.8906250000,        0.0058593750,       43.5028076172,       44.9066162109,     -138.0004882812
1489457423.4750449657,1489457423.4773399830,       -1.1386718750,        0.8906250000,        0.0058593750,       43.5028076172,       44.9066162109,     -155.4412841797
1489457423.4776248932,1489457423.4799730778,       -1.1386718750,        0.8906250000,        0.0058593750,       36.2396240234,       52.7191162109,     -155.4412841797
1489457423.4802570343,1489457423.4825470448,       -1.1386718750,        0.9272460938,       -0.0341796875,       36.2396240234,       52.7191162109,     -172.7142333984
1489457423.4828310013,1489457423.4851241112,       -1.4199218750,        0.9272460938,       -0.0341796875,       30.5938720703,       60.0128173828,     -172.7142333984
1489457423.4854090214,1489457423.4876959324,       -1.4199218750,        0.9272460938,       -0.0341796875,       30.5938720703,       60.0128173828,     -172.7142333984
1489457423.4879810810,1489457423.4902789593,       -1.4199218750,        0.9272460938,       -0.0341796875,       28.0914306641,       67.4743652344,     -192.7185058594
1489457423.4905650616,1489457423.4928610325,       -1.4199218750,        0.9882812500,       -0.0112304688,       28.0914306641,       67.4743652344,     -192.7185058594
1489457423.4931449890,1489457423.4954330921,       -1.8569335938,        0.9882812500,       -0.0112304688,       27.4658203125,       74.3255615234,     -216.3238525391
1489457423.4957170486,1489457423.4980070591,       -1.8569335938,        0.9882812500,       -0.0112304688,       27.4658203125,       74.3255615234,     -216.3238525391
1489457423.4982910156,1489457423.5007131100,       -1.8569335938,        0.9882812500,       -0.0112304688,       27.5115966797,       79.8645019531,     -240.3869628906
1489457423.5009999275,1489457423.5032920837,       -2.5327148438,        0.8754882812,        0.1015625000,       27.5115966797,       79.8645019531,     -240.3869628906
1489457423.5035769939,1489457423.5058720112,       -2.5327148438,        0.8754882812,        0.1015625000,       27.2216796875,       81.4208984375,     -265.7775878906
1489457423.5061559677,1489457423.5084569454,       -2.5327148438,        0.8754882812,        0.1015625000,       27.2216796875,       81.4208984375,     -265.7775878906
1489457423.5087420940,1489457423.5113089085,       -2.5327148438,        0.8754882812,        0.1015625000,       25.5126953125,       77.8656005859,     -294.0521240234
1489457423.5116031170,1489457423.5140240192,       -3.2778320312,        0.2573242188,        0.2622070312,       25.5126953125,       77.8656005859,     -294.0521240234
1489457423.5143160820,1489457423.5167310238,       -3.2778320312,        0.2573242188,        0.2622070312,       25.6042480469,       71.7010498047,     -327.3468017578
1489457423.5170218945,1489457423.5194249153,       -3.2778320312,        0.2573242188,        0.2622070312,       25.6042480469,       71.7010498047,     -327.3468017578
1489457423.5198199749,1489457423.5221140385,       -3.2778320312,        0.2573242188,        0.2622070312,       26.5960693359,       67.7795410156,     -366.5161132812
1489457423.5223979950,1489457423.5246870518,       -3.5292968750,       -0.8476562500,        0.5166015625,       26.5960693359,       67.7795410156,     -366.5161132812
1489457423.5249719620,1489457423.5272629261,       -3.5292968750,       -0.8476562500,        0.5166015625,       27.8625488281,       56.4270019531,     -409.2407226562
1489457423.5275480747,1489457423.5299069881,       -3.5292968750,       -0.8476562500,        0.5166015625,       27.8625488281,       56.4270019531,     -409.2407226562
1489457423.5301980972,1489457423.5326120853,       -3.5292968750,       -0.8476562500,        0.3916015625,       40.2526855469,       42.1905517578,     -444.6563720703
1489457423.5329020023,1489457423.5353190899,       -3.4780273438,       -1.3330078125,        0.4375000000,       40.2526855469,       42.1905517578,     -444.6563720703
1489457423.5356090069,1489457423.5380229950,       -3.4780273438,       -1.3330078125,        0.4375000000,       29.4952392578,       25.4364013672,     -460.1135253906
1489457423.5383141041,1489457423.5407450199,       -3.4780273438,       -1.3330078125,        0.4375000000,       29.4952392578,       25.4364013672,     -460.1135253906
1489457423.5410339832,1489457423.5434510708,       -3.4780273438,       -0.2138671875,        0.7055664062,      -20.4162597656,        3.8299560547,     -431.3659667969
1489457423.5437390804,1489457423.5461540222,       -3.6347656250,       -0.2138671875,        0.7055664062,      -20.4162597656,        3.8299560547,     -431.3659667969
1489457423.5464410782,1489457423.5488710403,       -3.6347656250,       -0.2138671875,        0.7055664062,      -37.1704101562,        3.3416748047,     -342.5292968750
1489457423.5491609573,1489457423.5515830517,       -3.6347656250,       -0.2138671875,        0.7055664062,      -37.1704101562,        3.3416748047,     -342.5292968750
1489457423.5518729687,1489457423.5542941093,       -1.8647460938,        4.3906250000,        1.2548828125,      -11.6882324219,       75.6530761719,     -223.2208251953
1489457423.5545830727,1489457423.5569980145,       -1.8647460938,        4.3906250000,        1.2548828125,      -11.6882324219,       75.6530761719,     -223.2208251953
1489457423.5572869778,1489457423.5597178936,       -1.8647460938,        4.3906250000,        1.2548828125,      -14.9841308594,       87.5701904297,     -114.4714355469
1489457423.5600059032,1489457423.5624198914,       -1.8647460938,        4.3906250000,        1.2548828125,      -14.9841308594,       87.5701904297,     -114.4714355469
1489457423.5627100468,1489457423.5653200150,        2.4062500000,        4.8017578125,        1.0771484375,       62.6831054688,      -25.5279541016,      -13.9160156250
1489457423.5656070709,1489457423.5679891109,        2.4062500000,        4.8017578125,        1.0771484375,       62.6831054688,      -25.5279541016,      -13.9160156250
1489457423.5686590672,1489457423.5709810257,        2.4062500000,        4.8017578125,        1.0771484375,      122.2991943359,      -69.7021484375,       90.7440185547
1489457423.5712640285,1489457423.5735569000,        2.4062500000,       -0.8579101562,        0.3461914062,      122.2991943359,      -69.7021484375,       90.7440185547
1489457423.5738430023,1489457423.5761349201,       -0.6767578125,       -0.8579101562,        0.3461914062,      121.9177246094,      -31.6009521484,      176.0559082031
1489457423.5764219761,1489457423.5787189007,       -0.6767578125,       -0.8579101562,        0.3461914062,      121.9177246094,      -31.6009521484,      176.0559082031
1489457423.5790710449,1489457423.5814819336,       -0.6767578125,       -0.8579101562,        0.3461914062,      125.5798339844,      -22.4761962891,      233.2763671875
1489457423.5817749500,1489457423.5841920376,       -1.2734375000,       -0.0849609375,       -0.6494140625,      125.5798339844,      -22.4761962891,      233.2763671875
1489457423.5845909119,1489457423.5870120525,       -1.2734375000,       -0.0849609375,       -0.6494140625,       67.8863525391,      -17.2424316406,      277.4047851562
1489457423.5873041153,1489457423.5897309780,       -1.2734375000,       -0.0849609375,       -0.6494140625,       67.8863525391,      -17.2424316406,      277.4047851562
1489457423.5900230408,1489457423.5924398899,       -1.2734375000,       -0.0849609375,       -0.6494140625,      -10.4522705078,      -13.2751464844,      308.7768554688
1489457423.5927340984,1489457423.5951499939,       -0.7661132812,        0.6630859375,       -0.0488281250,      -10.4522705078,      -13.2751464844,      308.7768554688
1489457423.5954430103,1489457423.5978639126,       -0.7661132812,        0.6630859375,       -0.0488281250,      -62.2711181641,      -24.4598388672,      312.7593994141
1489457423.5981559753,1489457423.6004850864,       -0.7661132812,        0.6630859375,       -0.0488281250,      -62.2711181641,      -24.4598388672,      312.7593994141
1489457423.6007709503,1489457423.6030669212,       -0.7661132812,        0.6630859375,       -0.2988281250,      -89.6148681641,      -35.5224609375,      301.2847900391
1489457423.6033530235,1489457423.6056489944,       -0.9487304688,       -0.5532226562,       -0.3613281250,      -87.6922607422,      -35.5224609375,      301.2847900391
1489457423.6059350967,1489457423.6082239151,       -0.9487304688,       -0.5532226562,       -0.3613281250,      -87.6922607422,      -34.7595214844,      283.8592529297
1489457423.6085081100,1489457423.6108930111,       -0.9487304688,       -0.5532226562,       -0.3613281250,      -95.8404541016,      -34.7595214844,      283.8592529297
1489457423.6111791134,1489457423.6134760380,       -0.9487304688,       -0.5532226562,       -0.8686523438,      -95.8404541016,      -30.8532714844,      262.5732421875
1489457423.6137609482,1489457423.6160540581,       -0.9809570312,       -1.1123046875,       -0.8686523438,     -107.5134277344,      -30.1055908203,      262.5732421875
1489457423.6163389683,1489457423.6186320782,       -0.9809570312,       -1.1123046875,       -0.8686523438,     -107.5134277344,      -30.1055908203,      240.5242919922
1489457423.6190180779,1489457423.6214520931,       -0.9809570312,       -1.1123046875,       -0.8686523438,     -125.5340576172,      -28.0914306641,      240.5242919922
1489457423.6217451096,1489457423.6241610050,       -0.9809570312,       -0.4379882812,       -0.6923828125,     -125.5340576172,      -28.0914306641,      219.8638916016
1489457423.6244559288,1489457423.6268680096,       -0.4760742188,       -0.4379882812,       -0.6923828125,     -133.4991455078,      -28.0761718750,      219.8638916016
1489457423.6271591187,1489457423.6296250820,       -0.4760742188,       -0.4379882812,       -0.6923828125,     -133.4991455078,      -28.0761718750,      199.9511718750
1489457423.6299180984,1489457423.6323349476,       -0.4760742188,       -0.4379882812,       -0.6923828125,     -123.1689453125,      -32.1197509766,      199.9511718750
1489457423.6326260567,1489457423.6350419521,       -0.0854492188,       -0.2207031250,       -0.6206054688,     -123.1689453125,      -32.1197509766,      179.4738769531
1489457423.6353359222,1489457423.6377511024,       -0.0854492188,       -0.2207031250,       -0.6206054688,      -98.6022949219,      -35.7818603516,      179.4738769531
1489457423.6380460262,1489457423.6404700279,       -0.0854492188,       -0.2207031250,       -0.6206054688,      -98.6022949219,      -35.7818603516,      154.1595458984
1489457423.6407620907,1489457423.6431779861,       -0.0854492188,       -0.2207031250,       -0.6206054688,      -70.4193115234,      -27.1148681641,      154.1595458984
1489457423.6434700489,1489457423.6458868980,       -0.1621093750,       -1.1264648438,       -0.6850585938,      -70.4193115234,      -27.1148681641,      121.2921142578
1489457423.6461811066,1489457423.6486010551,       -0.1621093750,       -1.1264648438,       -0.6850585938,      -55.2673339844,       -6.8511962891,      121.2921142578
1489457423.6490390301,1489457423.6513350010,       -0.1621093750,       -1.1264648438,       -0.6850585938,      -55.2673339844,       -6.8511962891,       84.4879150391
1489457423.6516160965,1489457423.6539080143,       -0.1621093750,       -1.1264648438,       -0.5854492188,      -63.9648437500,       11.9171142578,       84.4879150391
1489457423.6541910172,1489457423.6564829350,        0.1337890625,       -1.6826171875,       -0.5854492188,      -63.9648437500,       11.9171142578,       84.4879150391
1489457423.6567659378,1489457423.6590878963,        0.1337890625,       -1.6826171875,       -0.5854492188,      -91.8884277344,       21.4538574219,       47.7600097656
1489457423.6593720913,1489457423.6616640091,        0.1337890625,       -1.6826171875,       -0.5854492188,      -91.8884277344,       21.4538574219,       47.7600097656
1489457423.6619479656,1489457423.6642370224,        0.1337890625,       -1.4326171875,       -0.4750976562,     -123.4436035156,       25.3906250000,       12.1307373047
1489457423.6645209789,1489457423.6668150425,        0.6962890625,       -1.3984375000,       -0.4750976562,     -123.4436035156,       25.3906250000,       12.1307373047
1489457423.6670999527,1489457423.6694550514,        0.6962890625,       -1.3984375000,       -0.4750976562,     -145.3094482422,       27.1759033203,      -20.7366943359
1489457423.6697409153,1489457423.6720321178,        0.6962890625,       -1.3984375000,       -0.4750976562,     -145.3094482422,       27.1759033203,      -20.7366943359
1489457423.6723148823,1489457423.6746039391,        0.6962890625,       -0.5737304688,       -0.1054687500,     -152.2674560547,       25.2380371094,      -51.6510009766
1489457423.6748909950,1489457423.6772949696,        0.7939453125,       -0.5737304688,       -0.1054687500,     -152.2674560547,       25.2380371094,      -51.6510009766
1489457423.6775839329,1489457423.6802489758,        0.7939453125,       -0.5737304688,       -0.1054687500,     -142.7459716797,       21.7437744141,      -77.6214599609
1489457423.6805369854,1489457423.6828320026,        0.7939453125,       -0.5737304688,       -0.1054687500,     -142.7459716797,       21.7437744141,      -77.6214599609
1489457423.6831169128,1489457423.6854090691,        0.2724609375,        0.1743164062,        0.0854492188,     -118.8659667969,       24.1851806641,      -95.4132080078
1489457423.6856949329,1489457423.6879858971,        0.2724609375,        0.1743164062,        0.0854492188,     -118.8659667969,       24.1851806641,      -95.4132080078
1489457423.6882719994,1489457423.6905930042,        0.2724609375,        0.1743164062,        0.0854492188,      -82.0617675781,       28.4881591797,     -101.2420654297
1489457423.6908779144,1489457423.6931669712,        0.2724609375,        0.1743164062,        0.0854492188,      -82.0617675781,       28.4881591797,     -101.2420654297
1489457423.6934518814,1489457423.6957440376,       -0.0517578125,        0.3291015625,        0.0971679688,      -36.9262695312,       26.6113281250,     -106.5216064453
1489457423.6960299015,1489457423.6983180046,       -0.0517578125,        0.3291015625,        0.0971679688,      -36.9262695312,       26.6113281250,     -106.5216064453
1489457423.6986050606,1489457423.7009429932,       -0.0517578125,        0.3291015625,        0.0971679688,        2.1362304688,       27.5573730469,     -104.3090820312
1489457423.7012240887,1489457423.7035129070,       -0.0517578125,        0.3291015625,        0.0971679688,        0.4425048828,       27.5573730469,     -104.3090820312
1489457423.7037949562,1489457423.7060840130,       -0.1689453125,        0.1948242188,        0.0800781250,        0.4425048828,       23.6511230469,     -103.5766601562
1489457423.7063679695,1489457423.7086560726,       -0.1689453125,        0.1948242188,        0.0800781250,       23.6511230469,       25.4058837891,     -103.5766601562
1489457423.7089390755,1489457423.7112319469,       -0.1689453125,        0.1948242188,        0.0800781250,       23.6511230469,       25.4058837891,     -103.3325195312
1489457423.7116351128,1489457423.7139229774,       -0.1689453125,        0.1948242188,        0.0800781250,       36.2396240234,       22.4761962891,     -103.3325195312
1489457423.7142078876,1489457423.7164990902,       -0.1406250000,        0.0620117188,       -0.0102539062,       36.2396240234,       22.4761962891,      -99.4262695312
1489457423.7167820930,1489457423.7190880775,       -0.1406250000,        0.0620117188,       -0.0102539062,       41.5954589844,       17.9290771484,     -100.4638671875
1489457423.7193748951,1489457423.7216699123,       -0.1406250000,        0.0620117188,       -0.0102539062,       41.5954589844,       17.9290771484,     -100.4638671875
1489457423.7219560146,1489457423.7242500782,       -0.1406250000,        0.0620117188,       -0.0102539062,       45.0134277344,       11.6119384766,      -95.7946777344
1489457423.7245368958,1489457423.7268350124,       -0.0971679688,        0.0922851562,       -0.0209960938,       45.0134277344,       11.6119384766,      -95.7946777344
1489457423.7271211147,1489457423.7295620441,       -0.0971679688,        0.0922851562,       -0.0209960938,       51.6052246094,        5.7983398438,      -88.3941650391
1489457423.7298429012,1489457423.7321360111,       -0.0971679688,        0.0922851562,       -0.0209960938,       51.6052246094,        5.7983398438,      -88.3941650391
1489457423.7324149609,1489457423.7347149849,       -0.0971679688,        0.0922851562,       -0.0390625000,       63.5070800781,        3.0517578125,      -80.1086425781
1489457423.7349960804,1489457423.7372899055,       -0.0981445312,        0.2373046875,       -0.0390625000,       63.5070800781,        3.0517578125,      -80.1086425781
1489457423.7375729084,1489457423.7399590015,       -0.0981445312,        0.2373046875,       -0.0390625000,       77.6672363281,        1.8768310547,      -71.6705322266
1489457423.7402420044,1489457423.7425339222,       -0.0981445312,        0.2373046875,       -0.0390625000,       77.6672363281,        1.8768310547,      -71.6705322266
1489457423.7428181171,1489457423.7451100349,       -0.0981445312,        0.3227539062,       -0.0991210938,       89.1418457031,        0.9765625000,      -63.6901855469
1489457423.7453949451,1489457423.7476840019,       -0.1118164062,        0.3227539062,       -0.0991210938,       89.1418457031,        0.9765625000,      -63.6901855469
1489457423.7479689121,1489457423.7502710819,       -0.1118164062,        0.3227539062,       -0.0991210938,       97.3510742188,        0.0457763672,      -56.7626953125
1489457423.7505550385,1489457423.7528469563,       -0.1118164062,        0.3227539062,       -0.0991210938,       97.3510742188,        0.0457763672,      -56.7626953125
1489457423.7531309128,1489457423.7554221153,       -0.1118164062,        0.2768554688,       -0.1518554688,      105.1635742188,       -0.1068115234,      -51.1322021484
1489457423.7557070255,1489457423.7579929829,       -0.1718750000,        0.2768554688,       -0.1518554688,      102.3712158203,       -0.1068115234,      -51.1322021484
1489457423.7582759857,1489457423.7606060505,       -0.1718750000,        0.2768554688,       -0.1518554688,      102.3712158203,        3.7994384766,      -45.3186035156
1489457423.7608869076,1489457423.7631790638,       -0.1718750000,        0.2768554688,       -0.1518554688,      101.4709472656,        0.3051757812,      -45.3186035156
1489457423.7634611130,1489457423.7657508850,       -0.1718750000,        0.1489257812,       -0.1762695312,      101.4709472656,        0.3051757812,      -39.5812988281
1489457423.7660329342,1489457423.7683210373,       -0.1840820312,        0.1489257812,       -0.1762695312,       93.9941406250,        1.0375976562,      -39.5812988281
1489457423.7686018944,1489457423.7709589005,       -0.1840820312,        0.1489257812,       -0.1762695312,       93.9941406250,        1.0375976562,      -31.7687988281
1489457423.7712409496,1489457423.7735319138,       -0.1840820312,        0.1489257812,       -0.1762695312,       81.9244384766,        1.9531250000,      -33.0810546875
1489457423.7739140987,1489457423.7762060165,       -0.1323242188,       -0.0078125000,       -0.1743164062,       81.9244384766,        1.9531250000,      -33.0810546875
1489457423.7764890194,1489457423.7787730694,       -0.1323242188,       -0.0078125000,       -0.1743164062,       67.2607421875,        2.9907226562,      -26.5655517578
1489457423.7791121006,1489457423.7814049721,       -0.1323242188,       -0.0078125000,       -0.1743164062,       67.2607421875,        2.9907226562,      -26.5655517578
1489457423.7816870213,1489457423.7839760780,       -0.1323242188,       -0.0078125000,       -0.1743164062,       51.5594482422,        4.3334960938,      -21.1486816406
1489457423.7842590809,1489457423.7865490913,       -0.0839843750,       -0.0849609375,       -0.1660156250,       51.5594482422,        4.3334960938,      -21.1486816406
1489457423.7868299484,1489457423.7891149521,       -0.0839843750,       -0.0849609375,       -0.1660156250,       36.1633300781,        4.9743652344,      -17.5323486328
1489457423.7893950939,1489457423.7916860580,       -0.0839843750,       -0.0849609375,       -0.1660156250,       36.1633300781,        4.9743652344,      -17.5323486328
1489457423.7919681072,1489457423.7942640781,       -0.0839843750,       -0.0849609375,       -0.1660156250,       22.8424072266,        5.3710937500,      -15.4418945312
1489457423.7945470810,1489457423.7969210148,       -0.0488281250,       -0.0268554688,       -0.1279296875,       22.8424072266,        5.3710937500,      -15.4418945312
1489457423.7972040176,1489457423.7998800278,       -0.0488281250,       -0.0268554688,       -0.1279296875,       13.0310058594,        6.0882568359,      -14.6484375000
1489457423.8001708984,1489457423.8025879860,       -0.0488281250,       -0.0268554688,       -0.1279296875,       13.0310058594,        6.0882568359,      -14.6484375000
1489457423.8028779030,1489457423.8052918911,       -0.0488281250,       -0.0268554688,       -0.0029296875,        7.2021484375,        6.3629150391,      -15.3045654297
1489457423.8055779934,1489457423.8079950809,       -0.0229492188,        0.0620117188,       -0.0908203125,        7.2021484375,        6.3629150391,      -15.3045654297
1489457423.8082780838,1489457423.8106141090,       -0.0229492188,        0.0620117188,       -0.0908203125,        5.3405761719,        6.8511962891,      -16.1132812500
1489457423.8108921051,1489457423.8131868839,       -0.0229492188,        0.0620117188,       -0.0908203125,        5.3405761719,        6.8511962891,      -16.1132812500
1489457423.8134651184,1489457423.8157539368,       -0.0229492188,        0.0620117188,       -0.0463867188,        7.6904296875,        6.7596435547,      -18.1274414062
1489457423.8160319328,1489457423.8183228970,       -0.0034179688,        0.1220703125,       -0.0463867188,        7.6904296875,        6.7596435547,      -18.1274414062
1489457423.8186020851,1489457423.8210570812,       -0.0034179688,        0.1220703125,       -0.0463867188,       12.5732421875,        7.0190429688,      -20.9350585938
1489457423.8213460445,1489457423.8237650394,       -0.0034179688,        0.1220703125,       -0.0463867188,       12.5732421875,        7.0190429688,      -20.9350585938
1489457423.8240549564,1489457423.8264720440,       -0.0034179688,        0.1337890625,        0.0009765625,       19.2260742188,        6.8359375000,      -22.7050781250
1489457423.8267629147,1489457423.8292090893,       -0.0273437500,        0.1337890625,        0.0009765625,       19.2260742188,        6.8359375000,      -22.7050781250
1489457423.8294920921,1489457423.8317799568,       -0.0273437500,        0.1337890625,        0.0009765625,       26.3977050781,        6.1950683594,      -24.4750976562
1489457423.8320600986,1489457423.8343570232,       -0.0273437500,        0.1337890625,        0.0009765625,       26.3977050781,        6.1950683594,      -24.4750976562
1489457423.8346369267,1489457423.8369340897,       -0.0361328125,        0.1323242188,        0.0322265625,       26.3977050781,        5.6304931641,      -25.2227783203
1489457423.8372139931,1489457423.8395121098,       -0.0361328125,        0.1323242188,        0.0322265625,       34.1339111328,        5.6304931641,      -25.2227783203
1489457423.8399000168,1489457423.8422009945,       -0.0361328125,        0.1323242188,        0.0322265625,       34.1339111328,        5.6304931641,      -25.0854492188
1489457423.8424820900,1489457423.8447749615,       -0.0361328125,        0.1323242188,        0.0322265625,       41.7633056641,        4.7760009766,      -25.0854492188
1489457423.8450560570,1489457423.8473529816,       -0.0434570312,        0.1049804688,        0.0727539062,       41.7633056641,        4.7760009766,      -23.8342285156
1489457423.8476350307,1489457423.8501100540,       -0.0434570312,        0.1049804688,        0.0727539062,       48.6907958984,        3.0212402344,      -23.8342285156
1489457423.8503959179,1489457423.8526890278,       -0.0434570312,        0.1049804688,        0.0727539062,       48.6907958984,        3.0212402344,      -21.3470458984
1489457423.8529710770,1489457423.8552649021,       -0.0434570312,        0.1049804688,        0.0727539062,       55.5419921875,        1.9073486328,      -21.3470458984
1489457423.8555469513,1489457423.8578419685,       -0.0341796875,        0.0878906250,        0.1108398438,       55.5419921875,        1.9073486328,      -21.3470458984
1489457423.8581240177,1489457423.8605840206,       -0.0341796875,        0.0878906250,        0.1108398438,       62.7136230469,        0.4730224609,      -18.0511474609
1489457423.8608748913,1489457423.8632950783,       -0.0341796875,        0.0878906250,        0.1108398438,       62.7136230469,        0.4730224609,      -18.0511474609
1489457423.8635799885,1489457423.8658719063,       -0.0341796875,        0.0878906250,        0.1357421875,       69.5648193359,       -1.8768310547,      -14.9841308594
1489457423.8661530018,1489457423.8684489727,        0.0009765625,        0.0258789062,        0.1357421875,       69.5648193359,       -1.8768310547,      -14.9841308594
1489457423.8687310219,1489457423.8711969852,        0.0009765625,        0.0258789062,        0.1357421875,       76.2634277344,       -4.6539306641,      -12.9699707031
1489457423.8714869022,1489457423.8738620281,        0.0009765625,        0.0258789062,        0.1357421875,       76.2634277344,       -4.6539306641,      -12.9699707031
1489457423.8749339581,1489457423.8772339821,       -0.0039062500,       -0.0527343750,        0.0810546875,       82.0770263672,       -6.9885253906,      -12.6190185547
1489457423.8775179386,1489457423.8798680305,       -0.0039062500,       -0.0527343750,        0.0810546875,       82.0770263672,       -6.9885253906,      -12.6190185547
1489457423.8801510334,1489457423.8824369907,       -0.0039062500,       -0.0527343750,        0.0810546875,       87.3718261719,       -8.6364746094,      -13.3666992188
1489457423.8827199936,1489457423.8850150108,       -0.0039062500,       -0.0527343750,        0.0810546875,       87.3718261719,       -8.6364746094,      -13.3666992188
1489457423.8852980137,1489457423.8875830173,       -0.0332031250,       -0.1635742188,       -0.0092773438,       90.7745361328,       -8.4228515625,      -16.2658691406
1489457423.8878679276,1489457423.8902180195,       -0.0332031250,       -0.1635742188,       -0.0092773438,       90.7745361328,       -8.4228515625,      -16.2658691406
1489457423.8905019760,1489457423.8927979469,       -0.0332031250,       -0.1635742188,       -0.0092773438,       90.8355712891,       -6.4849853516,      -19.9279785156
1489457423.8930809498,1489457423.8953690529,       -0.0332031250,       -0.1635742188,       -0.0092773438,       90.8355712891,       -6.4849853516,      -19.9279785156
1489457423.8956499100,1489457423.8979449272,       -0.0341796875,       -0.2543945312,       -0.0800781250,       86.8377685547,       -4.1351318359,      -24.5208740234
1489457423.8982269764,1489457423.9005579948,       -0.0341796875,       -0.2543945312,       -0.0800781250,       86.8377685547,       -4.1351318359,      -24.5208740234
1489457423.9008390903,1489457423.9031250477,       -0.0341796875,       -0.2543945312,       -0.0800781250,       78.2623291016,       -1.1291503906,      -29.4647216797
1489457423.9035348892,1489457423.9058330059,       -0.0341796875,       -0.2543945312,       -0.0800781250,       78.2623291016,       -1.1291503906,      -29.4647216797
1489457423.9061150551,1489457423.9084079266,       -0.0019531250,       -0.2939453125,       -0.0883789062,       65.8721923828,        1.5106201172,      -34.3475341797
1489457423.9086909294,1489457423.9109849930,       -0.0019531250,       -0.2939453125,       -0.0883789062,       65.8721923828,        1.5106201172,      -34.3475341797
1489457423.9112679958,1489457423.9135599136,       -0.0019531250,       -0.2939453125,       -0.0883789062,       50.9033203125,        3.0975341797,      -39.0472412109
1489457423.9138419628,1489457423.9161369801,       -0.0019531250,       -0.2939453125,       -0.0883789062,       50.9033203125,        3.0975341797,      -39.0472412109
1489457423.9164199829,1489457423.9187180996,        0.0371093750,       -0.2763671875,       -0.0419921875,       31.3720703125,        4.1503906250,      -43.6401367188
