time_stamp before, time_stamp after, Acceleration x, Acceleration y, Acceleration z, Gyro x, Gyro y, Gyro z
1489457302.0202770233,1489457302.0328419209,       -0.7348632812,        0.0644531250,        0.0209960938,        0.6561279297,       -0.2899169922,       -1.2207031250
1489457302.0331509113,1489457302.0364789963,       -0.7348632812,        0.0649414062,        0.0180664062,        1.0223388672,       -0.1678466797,       -1.0681152344
1489457302.0367701054,1489457302.0392329693,       -0.7348632812,        0.0649414062,        0.0180664062,        1.0223388672,       -0.1678466797,       -1.0681152344
1489457302.0395119190,1489457302.0421500206,       -0.7348632812,        0.0649414062,        0.0180664062,        0.7476806641,       -0.3356933594,       -0.9918212891
1489457302.0424408913,1489457302.0452909470,       -0.7348632812,        0.0649414062,        0.0273437500,        0.7476806641,       -0.3356933594,       -0.9918212891
1489457302.0455811024,1489457302.0479960442,       -0.7333984375,        0.0590820312,        0.0273437500,        0.6713867188,       -0.1678466797,       -1.0986328125
1489457302.0482800007,1489457302.0506100655,       -0.7333984375,        0.0590820312,        0.0273437500,        0.6713867188,       -0.1678466797,       -1.0986328125
1489457302.0508830547,1489457302.0531721115,       -0.7333984375,        0.0590820312,        0.0273437500,        1.0986328125,       -0.3509521484,       -0.8392333984
1489457302.0534439087,1489457302.0557320118,       -0.7309570312,        0.0556640625,        0.0205078125,        1.0986328125,       -0.3509521484,       -0.8392333984
1489457302.0560030937,1489457302.0582880974,       -0.7309570312,        0.0556640625,        0.0205078125,        0.7171630859,       -0.3356933594,       -0.7171630859
1489457302.0585589409,1489457302.0611829758,       -0.7309570312,        0.0556640625,        0.0205078125,        0.7171630859,       -0.3356933594,       -0.7171630859
1489457302.0614581108,1489457302.0637569427,       -0.7309570312,        0.0556640625,        0.0205078125,        0.7171630859,       -0.2593994141,       -0.8087158203
1489457302.0640320778,1489457302.0663149357,       -0.7373046875,        0.0527343750,        0.0180664062,        0.7171630859,       -0.2593994141,       -0.8087158203
1489457302.0665891171,1489457302.0688869953,       -0.7373046875,        0.0527343750,        0.0180664062,        0.7171630859,       -0.1220703125,       -0.1983642578
1489457302.0691599846,1489457302.0714850426,       -0.7373046875,        0.0527343750,        0.0180664062,        0.7171630859,       -0.1220703125,       -0.1983642578
1489457302.0717580318,1489457302.0740408897,       -0.7373046875,        0.0527343750,        0.0180664062,        0.1831054688,       -0.3356933594,       -0.1525878906
1489457302.0743129253,1489457302.0766079426,       -0.7333984375,        0.0634765625,        0.0239257812,        0.1831054688,       -0.3356933594,       -0.1525878906
1489457302.0768799782,1489457302.0792970657,       -0.7333984375,        0.0634765625,        0.0239257812,        0.5798339844,       -0.3967285156,       -0.5798339844
1489457302.0795779228,1489457302.0819640160,       -0.7333984375,        0.0634765625,        0.0239257812,        0.5798339844,       -0.3967285156,       -0.5798339844
1489457302.0822429657,1489457302.0846319199,       -0.7333984375,        0.0634765625,        0.0239257812,        0.5035400391,       -0.4425048828,       -0.6713867188
1489457302.0849120617,1489457302.0872941017,       -0.7412109375,        0.0576171875,        0.0195312500,        0.5035400391,       -0.4425048828,       -0.6713867188
1489457302.0875759125,1489457302.0899779797,       -0.7412109375,        0.0576171875,        0.0195312500,        0.7781982422,       -0.5493164062,       -0.6408691406
1489457302.0902600288,1489457302.0926830769,       -0.7412109375,        0.0576171875,        0.0195312500,        0.7781982422,       -0.5493164062,       -0.6408691406
1489457302.0929648876,1489457302.0953800678,       -0.7412109375,        0.0576171875,        0.0273437500,        0.5645751953,       -0.6103515625,       -0.5187988281
1489457302.0958418846,1489457302.0982670784,       -0.7451171875,        0.0522460938,        0.0273437500,        0.5645751953,       -0.6103515625,       -0.5187988281
1489457302.0985500813,1489457302.1008560658,       -0.7451171875,        0.0522460938,        0.0273437500,        0.5950927734,       -0.2136230469,       -0.4577636719
1489457302.1011331081,1489457302.1034278870,       -0.7451171875,        0.0522460938,        0.0273437500,        0.5950927734,       -0.2136230469,       -0.4577636719
1489457302.1037030220,1489457302.1060030460,       -0.7451171875,        0.0541992188,        0.0219726562,        0.5950927734,       -0.5187988281,       -0.4425048828
1489457302.1062769890,1489457302.1085700989,       -0.7373046875,        0.0541992188,        0.0219726562,        1.4801025391,       -0.5187988281,       -0.4425048828
1489457302.1089711189,1489457302.1112699509,       -0.7373046875,        0.0541992188,        0.0219726562,        1.4801025391,       -0.4882812500,       -0.4272460938
1489457302.1115450859,1489457302.1138479710,       -0.7373046875,        0.0541992188,        0.0219726562,        0.6561279297,       -0.4882812500,       -0.4272460938
1489457302.1141240597,1489457302.1164150238,       -0.7353515625,        0.0576171875,        0.0219726562,        0.6561279297,       -0.4882812500,       -0.5035400391
1489457302.1166899204,1489457302.1191570759,       -0.7353515625,        0.0576171875,        0.0219726562,        0.3814697266,       -0.6713867188,       -0.5035400391
1489457302.1194400787,1489457302.1218390465,       -0.7353515625,        0.0576171875,        0.0219726562,        0.3814697266,       -0.6713867188,       -0.1678466797
1489457302.1221189499,1489457302.1245169640,       -0.7353515625,        0.0576171875,        0.0219726562,        0.4119873047,       -0.3509521484,       -0.1678466797
1489457302.1247971058,1489457302.1271998882,       -0.7382812500,        0.0595703125,        0.0161132812,        0.4119873047,       -0.3509521484,       -0.1983642578
1489457302.1274800301,1489457302.1298909187,       -0.7382812500,        0.0595703125,        0.0161132812,        0.2441406250,       -0.3509521484,       -0.1983642578
1489457302.1301710606,1489457302.1325669289,       -0.7382812500,        0.0595703125,        0.0161132812,        0.2441406250,       -0.3509521484,       -0.1220703125
1489457302.1328470707,1489457302.1352479458,       -0.7382812500,        0.0595703125,        0.0161132812,       -0.3509521484,       -0.1983642578,       -0.1220703125
1489457302.1355299950,1489457302.1379270554,       -0.7343750000,        0.0595703125,        0.0170898438,       -0.3509521484,       -0.1983642578,       -0.2136230469
1489457302.1382079124,1489457302.1406109333,       -0.7343750000,        0.0595703125,        0.0170898438,       -0.3662109375,       -0.1220703125,       -0.2136230469
1489457302.1408898830,1489457302.1434469223,       -0.7343750000,        0.0595703125,        0.0170898438,       -0.3662109375,       -0.1220703125,       -0.1831054688
1489457302.1437339783,1489457302.1461479664,       -0.7343750000,        0.0639648438,        0.0278320312,       -0.3662109375,       -0.4577636719,       -0.1831054688
1489457302.1464290619,1489457302.1488559246,       -0.7373046875,        0.0639648438,        0.0278320312,       -0.3662109375,       -0.4577636719,       -0.2441406250
1489457302.1491379738,1489457302.1515550613,       -0.7373046875,        0.0639648438,        0.0278320312,        0.0152587891,       -0.3814697266,       -0.2441406250
1489457302.1518371105,1489457302.1542539597,       -0.7373046875,        0.0639648438,        0.0278320312,        0.0152587891,       -0.3814697266,       -0.1983642578
1489457302.1545350552,1489457302.1569569111,       -0.7324218750,        0.0664062500,        0.0190429688,        0.0762939453,       -0.2746582031,       -0.1983642578
1489457302.1572380066,1489457302.1596989632,       -0.7324218750,        0.0664062500,        0.0190429688,        0.0762939453,       -0.2746582031,        0.0152587891
1489457302.1600849628,1489457302.1623830795,       -0.7324218750,        0.0664062500,        0.0190429688,       -0.1983642578,       -0.2746582031,        0.0152587891
1489457302.1626579762,1489457302.1649510860,       -0.7324218750,        0.0664062500,        0.0190429688,       -0.1983642578,       -0.2746582031,       -3.8909912109
1489457302.1652259827,1489457302.1675140858,       -0.7285156250,        0.0585937500,        0.0263671875,       -0.0457763672,       -0.3967285156,       -0.1220703125
1489457302.1677889824,1489457302.1701641083,       -0.7285156250,        0.0585937500,        0.0263671875,       -0.0457763672,       -0.3967285156,       -0.1220703125
1489457302.1704459190,1489457302.1728670597,       -0.7285156250,        0.0585937500,        0.0263671875,        0.9002685547,       -0.3814697266,       -0.3356933594
1489457302.1731500626,1489457302.1756880283,       -0.7285156250,        0.0585937500,        0.0263671875,        0.9002685547,       -0.3814697266,       -0.3356933594
1489457302.1759719849,1489457302.1783840656,       -0.7382812500,        0.0576171875,        0.0273437500,        0.6408691406,       -0.6408691406,       -0.3204345703
1489457302.1786661148,1489457302.1810910702,       -0.7382812500,        0.0576171875,        0.0273437500,        0.6408691406,       -0.6408691406,       -0.3204345703
1489457302.1813728809,1489457302.1837940216,       -0.7382812500,        0.0576171875,        0.0273437500,        0.7629394531,       -0.3967285156,       -0.1220703125
1489457302.1840760708,1489457302.1864960194,       -0.7382812500,        0.0581054688,        0.0273437500,        0.7629394531,       -0.3967285156,       -0.1220703125
1489457302.1867780685,1489457302.1892349720,       -0.7392578125,        0.0581054688,        0.0273437500,        0.8239746094,       -0.2746582031,       -0.0610351562
1489457302.1895170212,1489457302.1919350624,       -0.7392578125,        0.0581054688,        0.0273437500,        0.8239746094,       -0.2746582031,       -0.0610351562
1489457302.1922180653,1489457302.1946320534,       -0.7392578125,        0.0581054688,        0.0273437500,        0.9002685547,       -0.2746582031,        0.2746582031
1489457302.1949141026,1489457302.1973369122,       -0.7353515625,        0.0615234375,        0.0219726562,        0.9002685547,       -0.2746582031,        0.2746582031
1489457302.1976189613,1489457302.2000429630,       -0.7353515625,        0.0615234375,        0.0219726562,        0.9765625000,       -0.6256103516,       -0.0915527344
1489457302.2003250122,1489457302.2027409077,       -0.7353515625,        0.0615234375,        0.0219726562,        0.9765625000,       -0.6256103516,       -0.0915527344
1489457302.2030239105,1489457302.2054419518,       -0.7353515625,        0.0615234375,        0.0219726562,        0.5798339844,       -0.7019042969,       -0.1373291016
1489457302.2057249546,1489457302.2081429958,       -0.7382812500,        0.0566406250,        0.0200195312,        0.5798339844,       -0.7019042969,       -0.1373291016
1489457302.2084250450,1489457302.2107489109,       -0.7382812500,        0.0566406250,        0.0200195312,        0.1525878906,       -0.5645751953,        0.0762939453
1489457302.2110230923,1489457302.2133181095,       -0.7382812500,        0.0566406250,        0.0200195312,        0.1525878906,       -0.5645751953,        0.0762939453
1489457302.2135920525,1489457302.2158830166,       -0.7382812500,        0.0566406250,        0.0200195312,        0.4425048828,       -0.7171630859,       -0.1831054688
1489457302.2161569595,1489457302.2184538841,       -0.7402343750,        0.0644531250,        0.0214843750,        0.4425048828,       -0.7171630859,       -0.1831054688
1489457302.2187290192,1489457302.2211520672,       -0.7402343750,        0.0644531250,        0.0214843750,        0.8850097656,       -0.6103515625,       -0.3051757812
1489457302.2214279175,1489457302.2237179279,       -0.7402343750,        0.0644531250,        0.0214843750,        0.8850097656,       -0.6103515625,       -0.3051757812
1489457302.2241020203,1489457302.2263929844,       -0.7402343750,        0.0644531250,        0.0239257812,        0.3509521484,       -0.3356933594,       -0.0457763672
1489457302.2266678810,1489457302.2289929390,       -0.7304687500,        0.0610351562,        0.0239257812,        0.3509521484,       -0.3356933594,       -0.0457763672
1489457302.2292768955,1489457302.2316770554,       -0.7304687500,        0.0610351562,        0.0239257812,        0.2746582031,       -0.0762939453,       -0.0762939453
1489457302.2319579124,1489457302.2343618870,       -0.7304687500,        0.0610351562,        0.0239257812,        0.2746582031,       -0.0762939453,       -0.0762939453
1489457302.2346420288,1489457302.2370460033,       -0.7304687500,        0.0610351562,        0.0219726562,       -0.0762939453,        0.1373291016,        0.1068115234
1489457302.2373280525,1489457302.2397329807,       -0.7363281250,        0.0610351562,        0.0219726562,       -0.0762939453,        0.1373291016,        0.1068115234
1489457302.2400128841,1489457302.2424349785,       -0.7363281250,        0.0610351562,        0.0219726562,       -0.5493164062,       -0.2746582031,        0.2593994141
1489457302.2427179813,1489457302.2451341152,       -0.7363281250,        0.0610351562,        0.0219726562,       -0.5493164062,       -0.2746582031,        0.2593994141
1489457302.2454171181,1489457302.2478339672,       -0.7275390625,        0.0634765625,        0.0283203125,       -0.7019042969,       -0.3051757812,        0.2746582031
1489457302.2481150627,1489457302.2505419254,       -0.7275390625,        0.0634765625,        0.0283203125,       -0.7019042969,       -0.3051757812,        0.2746582031
1489457302.2508230209,1489457302.2532379627,       -0.7275390625,        0.0634765625,        0.0283203125,       -0.2441406250,       -0.1831054688,        0.1373291016
1489457302.2535209656,1489457302.2559390068,       -0.7275390625,        0.0634765625,        0.0283203125,       -0.2441406250,       -0.1831054688,        0.1373291016
1489457302.2562210560,1489457302.2586359978,       -0.7363281250,        0.0605468750,        0.0297851562,        0.4425048828,       -0.0915527344,       -0.1983642578
1489457302.2589280605,1489457302.2613439560,       -0.7363281250,        0.0605468750,        0.0297851562,        0.4425048828,       -0.0915527344,       -0.1983642578
1489457302.2616260052,1489457302.2640440464,       -0.7363281250,        0.0605468750,        0.0297851562,        0.0000000000,       -0.3051757812,       -0.0152587891
1489457302.2643260956,1489457302.2668449879,       -0.7363281250,        0.0605468750,        0.0170898438,        0.0000000000,       -0.3051757812,       -0.0152587891
1489457302.2671389580,1489457302.2696139812,       -0.7294921875,        0.0683593750,        0.0170898438,       -0.0152587891,       -0.4425048828,        0.0915527344
1489457302.2698950768,1489457302.2722759247,       -0.7294921875,        0.0683593750,        0.0170898438,       -0.0152587891,       -0.4425048828,        0.0915527344
1489457302.2725560665,1489457302.2750320435,       -0.7294921875,        0.0683593750,        0.0170898438,       -0.3204345703,       -0.6713867188,       -0.3356933594
1489457302.2753109932,1489457302.2776970863,       -0.7294921875,        0.0576171875,        0.0268554688,       -0.3204345703,       -0.6713867188,       -0.3356933594
1489457302.2783648968,1489457302.2808299065,       -0.7338867188,        0.0576171875,        0.0268554688,        0.0152587891,       -0.7476806641,       -0.4425048828
1489457302.2811141014,1489457302.2835259438,       -0.7338867188,        0.0576171875,        0.0268554688,        0.0152587891,       -0.7476806641,       -0.4425048828
1489457302.2838089466,1489457302.2862238884,       -0.7338867188,        0.0576171875,        0.0268554688,        0.0457763672,       -0.1373291016,       -0.1983642578
1489457302.2865049839,1489457302.2889320850,       -0.7343750000,        0.0556640625,        0.0239257812,        0.0457763672,       -0.1373291016,       -0.1983642578
1489457302.2893218994,1489457302.2917408943,       -0.7343750000,        0.0556640625,        0.0239257812,        0.1373291016,        0.3051757812,       -0.0457763672
1489457302.2920238972,1489457302.2944409847,       -0.7343750000,        0.0556640625,        0.0239257812,        0.1373291016,        0.3051757812,       -0.0457763672
1489457302.2947220802,1489457302.2971420288,       -0.7343750000,        0.0556640625,        0.0239257812,       -0.0915527344,        0.2441406250,       -0.2746582031
1489457302.2974259853,1489457302.2998518944,       -0.7368164062,        0.0664062500,        0.0239257812,       -0.0915527344,        0.2441406250,       -0.2746582031
1489457302.3001339436,1489457302.3025529385,       -0.7368164062,        0.0664062500,        0.0239257812,       -0.0305175781,       -0.0305175781,       -0.2441406250
1489457302.3028349876,1489457302.3052580357,       -0.7368164062,        0.0664062500,        0.0239257812,       -0.0305175781,       -0.0305175781,       -0.2441406250
1489457302.3055410385,1489457302.3079628944,       -0.7368164062,        0.0644531250,        0.0224609375,        0.1678466797,       -0.2899169922,       -0.2441406250
1489457302.3082458973,1489457302.3105809689,       -0.7353515625,        0.0644531250,        0.0224609375,        0.1678466797,       -0.2899169922,       -0.2441406250
1489457302.3108561039,1489457302.3131530285,       -0.7353515625,        0.0644531250,        0.0224609375,        0.0762939453,        0.0762939453,       -0.2136230469
1489457302.3134291172,1489457302.3157238960,       -0.7353515625,        0.0644531250,        0.0224609375,        0.0762939453,        0.0762939453,       -0.2136230469
1489457302.3159980774,1489457302.3182909489,       -0.7407226562,        0.0673828125,        0.0214843750,       -3.8299560547,        0.3204345703,       -0.2746582031
1489457302.3185660839,1489457302.3208999634,       -0.7407226562,        0.0673828125,        0.0214843750,       -0.1983642578,        0.3204345703,       -0.2746582031
1489457302.3211770058,1489457302.3234670162,       -0.7407226562,        0.0673828125,        0.0214843750,       -0.1983642578,       -0.0915527344,       -0.3509521484
1489457302.3237419128,1489457302.3260359764,       -0.7407226562,        0.0673828125,        0.0214843750,        0.0457763672,       -0.0915527344,       -0.3509521484
1489457302.3263099194,1489457302.3286030293,       -0.7324218750,        0.0620117188,        0.0219726562,        0.0457763672,       -0.0915527344,       -0.2136230469
1489457302.3289520741,1489457302.3313739300,       -0.7324218750,        0.0620117188,        0.0219726562,        0.0610351562,       -0.2899169922,       -0.2136230469
1489457302.3316569328,1489457302.3340759277,       -0.7324218750,        0.0620117188,        0.0219726562,        0.0610351562,       -0.2899169922,        0.0610351562
1489457302.3343570232,1489457302.3367729187,       -0.7324218750,        0.0620117188,        0.0219726562,        0.1983642578,        0.0915527344,        0.0610351562
1489457302.3370549679,1489457302.3394858837,       -0.7348632812,        0.0571289062,        0.0200195312,        0.1983642578,        0.0915527344,        0.2593994141
1489457302.3397669792,1489457302.3421809673,       -0.7348632812,        0.0571289062,        0.0200195312,       -0.0762939453,        0.0457763672,        0.2593994141
1489457302.3424630165,1489457302.3448801041,       -0.7348632812,        0.0571289062,        0.0200195312,       -0.0762939453,        0.0457763672,        0.1983642578
1489457302.3451609612,1489457302.3475799561,       -0.7348632812,        0.0571289062,        0.0253906250,       -0.0152587891,       -0.2593994141,        0.1983642578
1489457302.3478629589,1489457302.3502979279,       -0.7373046875,        0.0625000000,        0.0253906250,       -0.0152587891,       -0.2593994141,       -0.0152587891
1489457302.3505790234,1489457302.3529980183,       -0.7373046875,        0.0625000000,        0.0253906250,       -0.1373291016,       -0.0762939453,       -0.0152587891
1489457302.3533849716,1489457302.3558080196,       -0.7373046875,        0.0625000000,        0.0253906250,       -0.1373291016,       -0.0762939453,       -0.1068115234
1489457302.3560910225,1489457302.3585081100,       -0.7343750000,        0.0629882812,        0.0180664062,       -0.1068115234,        0.0915527344,       -0.1068115234
1489457302.3588318825,1489457302.3611330986,       -0.7343750000,        0.0629882812,        0.0180664062,       -0.1068115234,        0.0915527344,       -0.2746582031
1489457302.3614070415,1489457302.3636970520,       -0.7343750000,        0.0629882812,        0.0180664062,        0.1220703125,       -0.0305175781,       -0.2746582031
1489457302.3639709949,1489457302.3662619591,       -0.7343750000,        0.0629882812,        0.0180664062,        0.1220703125,       -0.0305175781,       -0.2746582031
1489457302.3665380478,1489457302.3688778877,       -0.7304687500,        0.0659179688,        0.0234375000,        0.2593994141,       -0.4119873047,        0.1831054688
1489457302.3691630363,1489457302.3715710640,       -0.7304687500,        0.0659179688,        0.0234375000,        0.2593994141,       -0.4119873047,        0.1831054688
1489457302.3718559742,1489457302.3742740154,       -0.7304687500,        0.0659179688,        0.0234375000,        0.6713867188,       -0.3509521484,       -0.0915527344
1489457302.3745551109,1489457302.3769810200,       -0.7304687500,        0.0659179688,        0.0234375000,        0.6713867188,       -0.3509521484,       -0.0915527344
1489457302.3772630692,1489457302.3796908855,       -0.7314453125,        0.0566406250,        0.0224609375,        0.5493164062,       -0.2746582031,       -0.3051757812
1489457302.3799738884,1489457302.3823928833,       -0.7314453125,        0.0566406250,        0.0224609375,        0.5493164062,       -0.2746582031,       -0.3051757812
1489457302.3826739788,1489457302.3851718903,       -0.7314453125,        0.0566406250,        0.0224609375,        0.6561279297,       -0.0610351562,        0.1220703125
1489457302.3856110573,1489457302.3880128860,       -0.7314453125,        0.0566406250,        0.0180664062,        0.6561279297,       -0.0610351562,        0.1220703125
1489457302.3882949352,1489457302.3909840584,       -0.7353515625,        0.0581054688,        0.0180664062,        0.4272460938,       -0.1983642578,        0.1525878906
1489457302.3912689686,1489457302.3936879635,       -0.7353515625,        0.0581054688,        0.0180664062,        0.4272460938,       -0.1983642578,        0.1525878906
1489457302.3939709663,1489457302.3963980675,       -0.7353515625,        0.0581054688,        0.0180664062,       -0.1525878906,       -0.1983642578,        0.0762939453
1489457302.3966810703,1489457302.3991088867,       -0.7397460938,        0.0576171875,        0.0224609375,       -0.1525878906,       -0.1983642578,       -3.8299560547
1489457302.3993909359,1489457302.4018039703,       -0.7397460938,        0.0576171875,        0.0224609375,       -0.2746582031,       -0.1678466797,       -0.0762939453
1489457302.4020841122,1489457302.4045040607,       -0.7397460938,        0.0576171875,        0.0224609375,       -0.2746582031,       -0.1678466797,       -0.0762939453
1489457302.4047861099,1489457302.4072029591,       -0.7397460938,        0.0576171875,        0.0224609375,       -0.1678466797,        0.0457763672,       -0.0915527344
1489457302.4074850082,1489457302.4098610878,       -0.7309570312,        0.0698242188,        0.0224609375,       -0.1678466797,        0.0457763672,       -0.0915527344
1489457302.4101359844,1489457302.4124350548,       -0.7309570312,        0.0698242188,        0.0224609375,        0.0610351562,       -0.1068115234,        0.0762939453
1489457302.4127109051,1489457302.4149999619,       -0.7309570312,        0.0698242188,        0.0224609375,        0.0610351562,       -0.1068115234,        0.0762939453
1489457302.4152750969,1489457302.4175729752,       -0.7309570312,        0.0698242188,        0.0224609375,        0.0915527344,       -0.0610351562,        0.3051757812
1489457302.4179461002,1489457302.4202649593,       -0.7363281250,        0.0644531250,        0.0185546875,        0.0915527344,       -0.0610351562,        0.3051757812
1489457302.4205400944,1489457302.4228351116,       -0.7363281250,        0.0644531250,        0.0185546875,        0.1983642578,       -0.0457763672,        0.2593994141
1489457302.4231090546,1489457302.4254078865,       -0.7363281250,        0.0644531250,        0.0185546875,        0.1983642578,       -0.0457763672,        0.2593994141
1489457302.4256820679,1489457302.4279758930,       -0.7363281250,        0.0644531250,        0.0185546875,        0.1983642578,       -0.3509521484,        0.2136230469
1489457302.4282500744,1489457302.4305930138,       -0.7329101562,        0.0698242188,        0.0229492188,        0.1983642578,       -0.3509521484,        0.2136230469
1489457302.4308669567,1489457302.4331610203,       -0.7329101562,        0.0698242188,        0.0229492188,        0.1220703125,       -0.2288818359,       -0.0915527344
1489457302.4334359169,1489457302.4357240200,       -0.7329101562,        0.0698242188,        0.0229492188,        0.1220703125,       -0.2288818359,       -0.0915527344
1489457302.4360001087,1489457302.4382970333,       -0.7329101562,        0.0698242188,        0.0288085938,        0.2136230469,        0.2288818359,        0.0000000000
1489457302.4385709763,1489457302.4409101009,       -0.7358398438,        0.0693359375,        0.0288085938,        0.2136230469,        0.2288818359,        0.0000000000
1489457302.4411840439,1489457302.4434759617,       -0.7358398438,        0.0693359375,        0.0288085938,       -3.6926269531,        0.0457763672,        0.0000000000
1489457302.4437479973,1489457302.4460480213,       -0.7358398438,        0.0693359375,        0.0288085938,       -0.1525878906,        0.0457763672,        0.0000000000
1489457302.4463219643,1489457302.4486119747,       -0.7358398438,        0.0693359375,        0.0209960938,       -0.1525878906,       -3.8604736328,       -0.0152587891
1489457302.4489510059,1489457302.4513690472,       -0.7329101562,        0.0561523438,        0.0209960938,       -0.0305175781,       -0.2136230469,       -0.0152587891
1489457302.4516530037,1489457302.4540779591,       -0.7329101562,        0.0561523438,        0.0209960938,       -0.0305175781,       -0.2136230469,        0.1220703125
1489457302.4543600082,1489457302.4567730427,       -0.7329101562,        0.0561523438,        0.0209960938,        0.0762939453,       -0.1678466797,        0.1220703125
1489457302.4570550919,1489457302.4594581127,       -0.7412109375,        0.0668945312,        0.0224609375,        0.0762939453,        3.7384033203,        0.3051757812
1489457302.4597320557,1489457302.4620280266,       -0.7412109375,        0.0668945312,        0.0224609375,        0.0457763672,        0.0000000000,        0.3051757812
1489457302.4623019695,1489457302.4645969868,       -0.7412109375,        0.0668945312,        0.0224609375,        0.0457763672,        0.0000000000,        0.2136230469
1489457302.4648718834,1489457302.4671690464,       -0.7412109375,        0.0668945312,        0.0224609375,        0.1678466797,        0.1373291016,        0.2136230469
1489457302.4674439430,1489457302.4698441029,       -0.7358398438,        0.0708007812,        0.0244140625,        0.1678466797,        0.1373291016,        0.2136230469
1489457302.4701271057,1489457302.4725430012,       -0.7358398438,        0.0708007812,        0.0244140625,        0.0610351562,       -0.1983642578,        0.3051757812
1489457302.4728240967,1489457302.4752480984,       -0.7358398438,        0.0708007812,        0.0244140625,        0.0610351562,       -0.1983642578,        0.3051757812
1489457302.4755289555,1489457302.4779438972,       -0.7358398438,        0.0708007812,        0.0244140625,        0.2593994141,       -0.1525878906,        0.1983642578
1489457302.4782249928,1489457302.4806559086,       -0.7402343750,        0.0625000000,        0.0214843750,        0.2593994141,       -0.1525878906,       -3.7078857422
1489457302.4809389114,1489457302.4833540916,       -0.7402343750,        0.0625000000,        0.0214843750,       -0.2593994141,        0.0610351562,       -0.1678466797
1489457302.4837439060,1489457302.4861640930,       -0.7402343750,        0.0625000000,        0.0214843750,       -0.2593994141,        0.0610351562,        3.7384033203
1489457302.4864470959,1489457302.4888739586,       -0.7402343750,        0.0625000000,        0.0214843750,       -0.1831054688,       -0.0457763672,        0.0000000000
1489457302.4891569614,1489457302.4915781021,       -0.7368164062,        0.0659179688,        0.0214843750,       -0.1831054688,       -0.0457763672,        0.0000000000
1489457302.4918589592,1489457302.4942770004,       -0.7368164062,        0.0659179688,        0.0214843750,       -0.0762939453,       -0.0305175781,        0.0915527344
1489457302.4945600033,1489457302.4969780445,       -0.7368164062,        0.0659179688,        0.0214843750,       -0.0762939453,       -0.0305175781,        0.0915527344
1489457302.4972600937,1489457302.4996519089,       -0.7368164062,        0.0610351562,        0.0229492188,       -0.2136230469,        0.1983642578,        0.3204345703
1489457302.4999270439,1489457302.5022270679,       -0.7402343750,        0.0610351562,        0.0229492188,       -0.2136230469,        0.1983642578,        0.3204345703
1489457302.5025010109,1489457302.5048720837,       -0.7402343750,        0.0610351562,        0.0229492188,       -0.0762939453,        0.0152587891,        0.3509521484
1489457302.5051469803,1489457302.5074388981,       -0.7402343750,        0.0610351562,        0.0229492188,       -0.0762939453,        0.0152587891,        0.3509521484
1489457302.5077118874,1489457302.5102610588,       -0.7353515625,        0.0546875000,        0.0185546875,        0.1068115234,       -0.1831054688,        0.6408691406
1489457302.5105390549,1489457302.5128340721,       -0.7353515625,        0.0546875000,        0.0185546875,        0.1068115234,       -0.1831054688,        0.6408691406
1489457302.5131099224,1489457302.5154109001,       -0.7353515625,        0.0546875000,        0.0185546875,       -0.3204345703,       -0.1983642578,        0.4272460938
1489457302.5156860352,1489457302.5179779530,       -0.7353515625,        0.0546875000,        0.0185546875,       -0.3204345703,       -0.1983642578,        0.4272460938
1489457302.5182530880,1489457302.5206000805,       -0.7421875000,        0.0634765625,        0.0219726562,       -1.0070800781,       -0.1525878906,        0.1373291016
1489457302.5208780766,1489457302.5236480236,       -0.7421875000,        0.0634765625,        0.0219726562,       -1.0070800781,       -0.1525878906,        0.1373291016
1489457302.5239260197,1489457302.5262160301,       -0.7421875000,        0.0634765625,        0.0219726562,       -1.0070800781,       -0.2593994141,        0.2899169922
1489457302.5264909267,1489457302.5287830830,       -0.7421875000,        0.0634765625,        0.0219726562,       -1.0070800781,       -0.2593994141,        0.2899169922
1489457302.5291340351,1489457302.5314218998,       -0.7368164062,        0.0654296875,        0.0234375000,       -1.1138916016,       -0.1525878906,        0.3356933594
1489457302.5316960812,1489457302.5339829922,       -0.7368164062,        0.0654296875,        0.0234375000,       -1.1138916016,       -0.1525878906,        0.3356933594
1489457302.5342559814,1489457302.5365469456,       -0.7368164062,        0.0654296875,        0.0234375000,       -0.7781982422,        0.0305175781,        0.1525878906
1489457302.5368208885,1489457302.5391190052,       -0.7368164062,        0.0654296875,        0.0234375000,       -0.7781982422,        0.0305175781,        0.1525878906
1489457302.5393950939,1489457302.5416810513,       -0.7368164062,        0.0703125000,        0.0244140625,       -0.7476806641,       -0.2593994141,        0.2288818359
1489457302.5419569016,1489457302.5442459583,       -0.7368164062,        0.0703125000,        0.0244140625,       -0.7476806641,       -0.2593994141,        0.2288818359
1489457302.5445210934,1489457302.5468099117,       -0.7368164062,        0.0703125000,        0.0244140625,       -0.7476806641,       -0.1983642578,        0.5645751953
1489457302.5471930504,1489457302.5494930744,       -0.7368164062,        0.0703125000,        0.0190429688,       -0.2136230469,       -0.1983642578,        0.5645751953
1489457302.5497701168,1489457302.5520548820,       -0.7358398438,        0.0625000000,        0.0190429688,       -0.2136230469,       -0.1983642578,        0.6103515625
1489457302.5523300171,1489457302.5546200275,       -0.7358398438,        0.0625000000,        0.0190429688,        0.0457763672,       -0.3662109375,        0.6103515625
1489457302.5548939705,1489457302.5571839809,       -0.7358398438,        0.0625000000,        0.0190429688,        0.0457763672,       -0.3662109375,        0.4577636719
1489457302.5574569702,1489457302.5598011017,       -0.7358398438,        0.0625000000,        0.0224609375,       -0.9460449219,       -0.2288818359,        0.4577636719
1489457302.5600759983,1489457302.5623691082,       -0.7387695312,        0.0629882812,        0.0224609375,       -0.9460449219,       -0.2288818359,        0.4577636719
1489457302.5626440048,1489457302.5649330616,       -0.7387695312,        0.0629882812,        0.0224609375,       -0.9307861328,        0.0457763672,        0.5187988281
1489457302.5652079582,1489457302.5674960613,       -0.7387695312,        0.0629882812,        0.0224609375,       -0.9307861328,        0.0457763672,        0.5187988281
1489457302.5677709579,1489457302.5701448917,       -0.7387695312,        0.0625000000,        0.0234375000,       -0.8087158203,       -0.0610351562,        0.4882812500
1489457302.5704209805,1489457302.5727109909,       -0.7343750000,        0.0625000000,        0.0234375000,       -0.8087158203,       -0.0610351562,        0.4882812500
1489457302.5729858875,1489457302.5752780437,       -0.7343750000,        0.0625000000,        0.0234375000,       -0.7476806641,       -0.0457763672,        0.4119873047
1489457302.5755529404,1489457302.5778489113,       -0.7343750000,        0.0625000000,        0.0234375000,       -0.7476806641,       -0.0457763672,        0.4119873047
1489457302.5781230927,1489457302.5806000233,       -0.7338867188,        0.0654296875,        0.0263671875,       -0.8392333984,        0.0457763672,        0.4882812500
1489457302.5808839798,1489457302.5832970142,       -0.7338867188,        0.0654296875,        0.0263671875,       -0.8392333984,        0.0457763672,        0.4882812500
1489457302.5835800171,1489457302.5859940052,       -0.7338867188,        0.0654296875,        0.0263671875,       -0.8850097656,       -0.1068115234,        0.5035400391
1489457302.5862770081,1489457302.5886929035,       -0.7338867188,        0.0654296875,        0.0263671875,       -0.8850097656,       -0.1068115234,        0.5035400391
1489457302.5889749527,1489457302.5913898945,       -0.7333984375,        0.0664062500,        0.0278320312,       -0.5493164062,       -0.1983642578,        0.3204345703
1489457302.5916719437,1489457302.5940830708,       -0.7333984375,        0.0664062500,        0.0278320312,       -0.5493164062,       -0.1983642578,        0.3204345703
1489457302.5943660736,1489457302.5967769623,       -0.7333984375,        0.0664062500,        0.0278320312,       -0.6561279297,       -0.1983642578,        0.2899169922
1489457302.5970580578,1489457302.5994539261,       -0.7333984375,        0.0664062500,        0.0278320312,       -0.6561279297,       -0.1983642578,        0.2899169922
1489457302.5997290611,1489457302.6020228863,       -0.7358398438,        0.0673828125,        0.0244140625,       -0.3814697266,       -0.0915527344,        0.3204345703
1489457302.6022970676,1489457302.6045858860,       -0.7358398438,        0.0673828125,        0.0244140625,       -0.3814697266,       -0.0915527344,        0.3204345703
1489457302.6048610210,1489457302.6071529388,       -0.7358398438,        0.0673828125,        0.0244140625,       -0.6103515625,        0.0000000000,        0.1678466797
1489457302.6074268818,1489457302.6097269058,       -0.7358398438,        0.0673828125,        0.0244140625,       -0.6103515625,        0.0000000000,        0.1678466797
1489457302.6101078987,1489457302.6124019623,       -0.7329101562,        0.0659179688,        0.0190429688,       -0.5035400391,       -0.1983642578,        0.0762939453
1489457302.6126770973,1489457302.6149690151,       -0.7329101562,        0.0659179688,        0.0190429688,       -0.5035400391,       -0.1983642578,        0.0762939453
1489457302.6152429581,1489457302.6175360680,       -0.7329101562,        0.0659179688,        0.0190429688,       -0.5035400391,       -0.2288818359,        0.1525878906
1489457302.6178090572,1489457302.6201820374,       -0.7329101562,        0.0659179688,        0.0234375000,       -0.3967285156,       -0.2288818359,        0.1525878906
1489457302.6204659939,1489457302.6228818893,       -0.7373046875,        0.0629882812,        0.0234375000,       -0.3967285156,        0.0305175781,        0.4272460938
1489457302.6231648922,1489457302.6255800724,       -0.7373046875,        0.0629882812,        0.0234375000,       -0.1068115234,        0.0305175781,        0.4272460938
1489457302.6258630753,1489457302.6282799244,       -0.7373046875,        0.0629882812,        0.0234375000,       -0.1068115234,       -3.8757324219,        0.3662109375
1489457302.6285610199,1489457302.6309878826,       -0.7285156250,        0.0629882812,        0.0249023438,       -0.2441406250,       -0.2288818359,        0.3662109375
1489457302.6312699318,1489457302.6336820126,       -0.7285156250,        0.0629882812,        0.0249023438,       -0.2441406250,        3.6773681641,        0.1525878906
1489457302.6339619160,1489457302.6365358829,       -0.7285156250,        0.0629882812,        0.0249023438,       -0.3967285156,        0.0000000000,        0.1525878906
1489457302.6368210316,1489457302.6392290592,       -0.7285156250,        0.0629882812,        0.0249023438,       -0.3967285156,       -0.0762939453,        0.3204345703
1489457302.6399230957,1489457302.6423408985,       -0.7314453125,        0.0629882812,        0.0200195312,       -0.3814697266,       -0.0762939453,        0.3204345703
1489457302.6426239014,1489457302.6450450420,       -0.7314453125,        0.0629882812,        0.0200195312,       -0.9002685547,       -0.1373291016,        0.2136230469
1489457302.6453270912,1489457302.6477460861,       -0.7314453125,        0.0629882812,        0.0200195312,       -0.9002685547,       -0.1373291016,        0.2136230469
1489457302.6480290890,1489457302.6503739357,       -0.7314453125,        0.0629882812,        0.0214843750,       -0.8392333984,       -0.0457763672,        0.3204345703
1489457302.6506490707,1489457302.6529400349,       -0.7324218750,        0.0639648438,        0.0214843750,       -0.8392333984,       -0.0457763672,        0.3204345703
1489457302.6532130241,1489457302.6555039883,       -0.7324218750,        0.0639648438,        0.0214843750,       -0.8392333984,       -0.3051757812,        0.7171630859
1489457302.6557779312,1489457302.6580629349,       -0.7324218750,        0.0639648438,        0.0214843750,       -0.3662109375,       -0.3051757812,        0.7171630859
1489457302.6583371162,1489457302.6607398987,       -0.7324218750,        0.0639648438,        0.0151367188,       -0.3662109375,       -0.3051757812,        0.8850097656
1489457302.6610229015,1489457302.6634368896,       -0.7338867188,        0.0654296875,        0.0151367188,       -0.7171630859,       -0.2441406250,        0.8850097656
1489457302.6637189388,1489457302.6661369801,       -0.7338867188,        0.0654296875,        0.0151367188,       -0.7171630859,       -0.2441406250,        0.7019042969
1489457302.6664209366,1489457302.6688458920,       -0.7338867188,        0.0654296875,        0.0151367188,       -0.5187988281,       -0.2746582031,        0.7019042969
1489457302.6691229343,1489457302.6714138985,       -0.7299804688,        0.0541992188,        0.0175781250,       -0.5187988281,       -0.2746582031,        0.6713867188
1489457302.6716868877,1489457302.6739749908,       -0.7299804688,        0.0541992188,        0.0175781250,       -0.7781982422,       -0.3204345703,        0.6713867188
1489457302.6743650436,1489457302.6766600609,       -0.7299804688,        0.0541992188,        0.0175781250,       -0.7781982422,       -0.3204345703,        0.6713867188
1489457302.6769340038,1489457302.6792640686,       -0.7299804688,        0.0541992188,        0.0175781250,       -1.0681152344,       -0.4119873047,        0.7324218750
1489457302.6795389652,1489457302.6818289757,       -0.7333984375,        0.0605468750,        0.0209960938,       -1.0681152344,       -0.4119873047,        0.7324218750
1489457302.6821029186,1489457302.6843929291,       -0.7333984375,        0.0605468750,        0.0209960938,       -1.4190673828,       -0.8697509766,        0.4882812500
1489457302.6846671104,1489457302.6869580746,       -0.7333984375,        0.0605468750,        0.0209960938,       -1.4190673828,       -0.8697509766,        0.4882812500
1489457302.6872329712,1489457302.6895680428,       -0.7333984375,        0.0605468750,        0.0209960938,       -2.1667480469,       -0.8087158203,        0.7781982422
1489457302.6898438931,1489457302.6921389103,       -0.7333984375,        0.0615234375,        0.0239257812,       -2.1667480469,       -0.8087158203,        0.7781982422
1489457302.6924140453,1489457302.6947050095,       -0.7333984375,        0.0615234375,        0.0239257812,       -1.8768310547,       -0.4119873047,        0.8544921875
1489457302.6949789524,1489457302.6972749233,       -0.7333984375,        0.0615234375,        0.0239257812,       -1.8768310547,       -0.4119873047,        0.8544921875
1489457302.6975500584,1489457302.6999359131,       -0.7333984375,        0.0615234375,        0.0239257812,       -1.4648437500,       -0.5493164062,        1.2512207031
1489457302.7002120018,1489457302.7025039196,       -0.7343750000,        0.0493164062,        0.0307617188,       -1.4648437500,       -0.5493164062,        1.2512207031
1489457302.7027790546,1489457302.7050719261,       -0.7343750000,        0.0493164062,        0.0307617188,       -1.4038085938,       -0.0762939453,        1.6021728516
1489457302.7053430080,1489457302.7076370716,       -0.7343750000,        0.0493164062,        0.0307617188,       -1.4038085938,       -0.0762939453,        1.6021728516
1489457302.7079100609,1489457302.7102870941,       -0.7343750000,        0.0493164062,        0.0307617188,       -1.4038085938,       -0.3356933594,        1.7700195312
1489457302.7105689049,1489457302.7129859924,       -0.7377929688,        0.0512695312,        0.0302734375,       -1.6174316406,       -0.3356933594,        1.7700195312
1489457302.7132680416,1489457302.7156810760,       -0.7377929688,        0.0512695312,        0.0302734375,       -1.6174316406,       -0.4119873047,        1.5716552734
1489457302.7159619331,1489457302.7183759212,       -0.7377929688,        0.0512695312,        0.0302734375,       -1.7242431641,       -0.4119873047,        1.5716552734
1489457302.7186589241,1489457302.7210869789,       -0.7377929688,        0.0512695312,        0.0278320312,       -1.7242431641,       -0.7019042969,        1.7852783203
1489457302.7213680744,1489457302.7237780094,       -0.7324218750,        0.0625000000,        0.0278320312,       -1.8310546875,       -0.7019042969,        1.7852783203
1489457302.7240600586,1489457302.7264759541,       -0.7324218750,        0.0625000000,        0.0278320312,       -1.8310546875,       -0.1678466797,        2.5787353516
1489457302.7267589569,1489457302.7291738987,       -0.7324218750,        0.0625000000,        0.0278320312,       -1.8463134766,       -0.1678466797,        2.5787353516
1489457302.7294549942,1489457302.7318670750,       -0.7324218750,        0.0625000000,        0.0175781250,       -1.8463134766,       -0.5035400391,        2.9296875000
1489457302.7321488857,1489457302.7345640659,       -0.7275390625,        0.0625000000,        0.0175781250,       -1.6174316406,       -0.5035400391,        2.9296875000
1489457302.7348461151,1489457302.7372629642,       -0.7275390625,        0.0625000000,        0.0175781250,       -1.6174316406,       -0.2746582031,        2.8686523438
1489457302.7376499176,1489457302.7400801182,       -0.7275390625,        0.0625000000,        0.0175781250,       -1.4801025391,       -0.2746582031,        2.8686523438
1489457302.7403628826,1489457302.7427709103,       -0.7299804688,        0.0644531250,        0.0263671875,       -1.4801025391,       -0.2593994141,        3.0059814453
1489457302.7430529594,1489457302.7454690933,       -0.7299804688,        0.0644531250,        0.0263671875,       -1.8463134766,       -0.2593994141,        3.0059814453
1489457302.7457499504,1489457302.7481639385,       -0.7299804688,        0.0644531250,        0.0263671875,       -1.8463134766,       -0.3967285156,        3.3416748047
1489457302.7484459877,1489457302.7507729530,       -0.7299804688,        0.0644531250,        0.0263671875,       -2.4261474609,       -0.3967285156,        3.3416748047
1489457302.7510480881,1489457302.7533390522,       -0.7226562500,        0.0644531250,        0.0092773438,       -2.4261474609,       -0.3967285156,        3.8757324219
1489457302.7536139488,1489457302.7560620308,       -0.7226562500,        0.0644531250,        0.0092773438,       -2.7618408203,       -0.7324218750,        3.8757324219
1489457302.7563378811,1489457302.7586259842,       -0.7226562500,        0.0644531250,        0.0092773438,       -2.7618408203,       -0.7324218750,        4.2877197266
1489457302.7592959404,1489457302.7617208958,       -0.7226562500,        0.0644531250,        0.0063476562,       -2.5634765625,       -0.2288818359,        4.2877197266
1489457302.7620050907,1489457302.7644228935,       -0.7421875000,        0.0742187500,        0.0063476562,       -2.5634765625,       -0.2593994141,        4.6081542969
1489457302.7647070885,1489457302.7671229839,       -0.7421875000,        0.0742187500,        0.0063476562,       -1.7852783203,       -0.2593994141,        4.6081542969
1489457302.7674050331,1489457302.7698299885,       -0.7421875000,        0.0742187500,        0.0063476562,       -1.7852783203,        0.0305175781,        4.3792724609
1489457302.7701110840,1489457302.7725310326,       -0.7548828125,        0.0815429688,        0.0092773438,       -0.7019042969,        0.0305175781,        4.3792724609
1489457302.7728149891,1489457302.7752299309,       -0.7548828125,        0.0815429688,        0.0092773438,       -0.7019042969,        0.0305175781,        5.0811767578
1489457302.7755119801,1489457302.7779269218,       -0.7548828125,        0.0815429688,        0.0092773438,        0.1678466797,        0.0152587891,        5.0811767578
1489457302.7782099247,1489457302.7806360722,       -0.7548828125,        0.0815429688,        0.0092773438,        0.1678466797,       -3.8909912109,        5.2032470703
1489457302.7809169292,1489457302.7833359241,       -0.7236328125,        0.0659179688,        0.0229492188,        0.8392333984,       -0.5493164062,        5.2032470703
1489457302.7836189270,1489457302.7860341072,       -0.7236328125,        0.0659179688,        0.0229492188,        0.8392333984,       -0.5493164062,        5.5999755859
1489457302.7863149643,1489457302.7887310982,       -0.7236328125,        0.0659179688,        0.0229492188,        0.0915527344,       -0.7629394531,        5.5999755859
1489457302.7890560627,1489457302.7913479805,       -0.7236328125,        0.0659179688,        0.0229492188,        0.0915527344,       -0.7629394531,        6.1035156250
1489457302.7916200161,1489457302.7939119339,       -0.7304687500,        0.0224609375,        0.0278320312,       -0.5340576172,       -0.7171630859,        6.1035156250
1489457302.7941870689,1489457302.7964770794,       -0.7304687500,        0.0224609375,        0.0278320312,       -0.5340576172,       -0.7171630859,        6.1035156250
1489457302.7967519760,1489457302.7990760803,       -0.7304687500,        0.0224609375,        0.0278320312,       -0.6866455078,       -0.7781982422,        6.7291259766
1489457302.7993519306,1489457302.8016428947,       -0.7304687500,        0.0224609375,        0.0317382812,       -0.6866455078,       -0.7781982422,        6.7291259766
1489457302.8020269871,1489457302.8043229580,       -0.7456054688,        0.0307617188,        0.0317382812,       -1.4038085938,       -0.7324218750,        7.1105957031
1489457302.8045969009,1489457302.8068859577,       -0.7456054688,        0.0307617188,        0.0317382812,       -1.4038085938,       -0.7324218750,        7.1105957031
1489457302.8071579933,1489457302.8095440865,       -0.7456054688,        0.0307617188,        0.0317382812,       -2.7008056641,       -0.5187988281,        7.8125000000
1489457302.8098199368,1489457302.8121130466,       -0.7456054688,        0.0629882812,        0.0224609375,       -2.7008056641,       -0.5187988281,        7.8125000000
1489457302.8123869896,1489457302.8146820068,       -0.7358398438,        0.0629882812,        0.0224609375,       -4.1961669922,       -0.4882812500,        8.7585449219
1489457302.8149559498,1489457302.8172481060,       -0.7358398438,        0.0629882812,        0.0224609375,       -4.1961669922,       -0.4882812500,        8.7585449219
1489457302.8175220490,1489457302.8199889660,       -0.7358398438,        0.0629882812,        0.0224609375,       -5.3863525391,       -1.4495849609,        9.3536376953
1489457302.8202710152,1489457302.8226869106,       -0.7358398438,        0.0449218750,        0.0180664062,       -5.3863525391,       -1.4495849609,        9.3536376953
1489457302.8229699135,1489457302.8253829479,       -0.7329101562,        0.0449218750,        0.0180664062,       -5.5084228516,       -1.9073486328,        9.9487304688
1489457302.8256640434,1489457302.8280839920,       -0.7329101562,        0.0449218750,        0.0180664062,       -5.5084228516,       -1.9073486328,        9.9487304688
1489457302.8283650875,1489457302.8307869434,       -0.7329101562,        0.0449218750,        0.0180664062,       -4.3334960938,       -1.3732910156,        9.8114013672
1489457302.8310670853,1489457302.8335039616,       -0.7534179688,        0.0527343750,        0.0180664062,       -4.3334960938,       -1.3732910156,        9.8114013672
1489457302.8337790966,1489457302.8360710144,       -0.7534179688,        0.0527343750,        0.0180664062,       -3.8757324219,       -1.1138916016,       10.2539062500
1489457302.8363509178,1489457302.8386499882,       -0.7534179688,        0.0527343750,        0.0180664062,       -3.8757324219,       -1.1138916016,       10.2539062500
1489457302.8389949799,1489457302.8413009644,       -0.7534179688,        0.0527343750,        0.0180664062,       -4.0893554688,       -1.0681152344,       11.0015869141
1489457302.8415811062,1489457302.8439390659,       -0.7309570312,        0.0708007812,        0.0126953125,       -4.0893554688,       -1.0681152344,       11.0015869141
1489457302.8447530270,1489457302.8470420837,       -0.7309570312,        0.0708007812,        0.0126953125,       -4.3792724609,       -1.0833740234,       12.5274658203
1489457302.8473229408,1489457302.8496689796,       -0.7309570312,        0.0708007812,        0.0126953125,       -4.3792724609,       -1.0833740234,       12.5274658203
1489457302.8499479294,1489457302.8522419930,       -0.7309570312,        0.0708007812,        0.0146484375,       -5.5541992188,       -1.5258789062,       13.2141113281
1489457302.8525209427,1489457302.8548059464,       -0.7216796875,        0.0288085938,        0.0146484375,       -5.5541992188,       -1.5258789062,       13.2141113281
1489457302.8550839424,1489457302.8573710918,       -0.7216796875,        0.0288085938,        0.0146484375,       -5.8593750000,       -1.7089843750,       13.6718750000
1489457302.8576478958,1489457302.8599851131,       -0.7216796875,        0.0288085938,        0.0146484375,       -5.8593750000,       -1.7089843750,       13.6718750000
1489457302.8602619171,1489457302.8625490665,       -0.7216796875,        0.0258789062,        0.0166015625,       -5.8593750000,       -1.6326904297,       13.9312744141
1489457302.8628270626,1489457302.8651180267,       -0.7500000000,        0.0258789062,        0.0166015625,       -5.6304931641,       -1.6326904297,       13.9312744141
1489457302.8655049801,1489457302.8677968979,       -0.7500000000,        0.0258789062,        0.0166015625,       -5.6304931641,       -1.2054443359,       14.5874023438
1489457302.8680748940,1489457302.8704040051,       -0.7500000000,        0.0258789062,        0.0166015625,       -6.6223144531,       -1.2054443359,       14.5874023438
1489457302.8706820011,1489457302.8729720116,       -0.7500000000,        0.0761718750,        0.0063476562,       -6.6223144531,       -1.2054443359,       15.5029296875
1489457302.8732509613,1489457302.8755390644,       -0.7475585938,        0.0761718750,        0.0063476562,       -8.5601806641,       -1.1444091797,       15.5029296875
1489457302.8758170605,1489457302.8781049252,       -0.7475585938,        0.0761718750,        0.0063476562,       -8.5601806641,       -1.1444091797,       19.4091796875
1489457302.8783850670,1489457302.8807160854,       -0.7475585938,        0.0761718750,        0.0063476562,       -9.7503662109,       -1.1138916016,       15.9912109375
1489457302.8809959888,1489457302.8832800388,       -0.7226562500,        0.0864257812,        0.0375976562,       -9.7503662109,       -1.1138916016,       15.9912109375
1489457302.8835580349,1489457302.8858530521,       -0.7226562500,        0.0864257812,        0.0375976562,       -9.4604492188,       -1.0528564453,       16.3726806641
1489457302.8861320019,1489457302.8884201050,       -0.7226562500,        0.0864257812,        0.0375976562,       -9.4604492188,       -1.0528564453,       16.3726806641
1489457302.8886990547,1489457302.8910999298,       -0.7226562500,        0.0864257812,        0.0375976562,       -8.7280273438,       -0.9613037109,       17.0745849609
1489457302.8913800716,1489457302.8936779499,       -0.7299804688,        0.0698242188,        0.0395507812,       -8.7280273438,       -0.9613037109,       17.0745849609
1489457302.8939580917,1489457302.8962509632,       -0.7299804688,        0.0698242188,        0.0395507812,       -7.3852539062,       -0.5645751953,       16.8914794922
1489457302.8965311050,1489457302.8989629745,       -0.7299804688,        0.0698242188,        0.0395507812,       -7.3852539062,       -0.5645751953,       16.8914794922
1489457302.8992490768,1489457302.9016530514,       -0.7299804688,        0.0698242188,        0.0395507812,       -5.6762695312,       -0.2899169922,       17.2119140625
1489457302.9019379616,1489457302.9043409824,       -0.7231445312,        0.0952148438,        0.0400390625,       -5.6762695312,       -0.2899169922,       17.2119140625
1489457302.9046258926,1489457302.9070270061,       -0.7231445312,        0.0952148438,        0.0400390625,       -5.3253173828,       -0.3662109375,       17.5933837891
1489457302.9073119164,1489457302.9097249508,       -0.7231445312,        0.0952148438,        0.0400390625,       -5.3253173828,       -0.3662109375,       17.5933837891
1489457302.9100100994,1489457302.9124109745,       -0.7231445312,        0.0952148438,        0.0400390625,       -4.8980712891,       -0.1373291016,       17.6391601562
1489457302.9126970768,1489457302.9150979519,       -0.7275390625,        0.0898437500,        0.0463867188,       -4.8980712891,       -0.1373291016,       17.6391601562
1489457302.9153840542,1489457302.9177839756,       -0.7275390625,        0.0898437500,        0.0463867188,       -4.4250488281,       -0.1220703125,       17.2729492188
1489457302.9180688858,1489457302.9204809666,       -0.7275390625,        0.0898437500,        0.0463867188,       -4.4250488281,       -0.1220703125,       17.2729492188
1489457302.9207639694,1489457302.9231669903,       -0.7275390625,        0.0898437500,        0.0415039062,       -4.3182373047,       -0.1831054688,       17.2119140625
1489457302.9234509468,1489457302.9258511066,       -0.7314453125,        0.0942382812,        0.0415039062,       -4.3182373047,       -0.1831054688,       17.2119140625
1489457302.9261379242,1489457302.9285409451,       -0.7314453125,        0.0942382812,        0.0415039062,       -4.1198730469,        0.1220703125,       17.7001953125
1489457302.9289450645,1489457302.9313499928,       -0.7314453125,        0.0942382812,        0.0415039062,       -4.1198730469,        0.1220703125,       17.7001953125
1489457302.9316339493,1489457302.9340360165,       -0.7436523438,        0.1010742188,        0.0234375000,       -4.0283203125,        0.5645751953,       17.3492431641
1489457302.9343209267,1489457302.9367249012,       -0.7436523438,        0.1010742188,        0.0234375000,       -4.0283203125,        0.5645751953,       17.3492431641
1489457302.9370100498,1489457302.9394290447,       -0.7436523438,        0.1010742188,        0.0234375000,       -5.3405761719,        0.1373291016,       17.3187255859
1489457302.9397089481,1489457302.9419999123,       -0.7436523438,        0.1010742188,        0.0234375000,       -5.3405761719,        0.1373291016,       17.3187255859
1489457302.9422810078,1489457302.9446020126,       -0.7270507812,        0.0888671875,        0.0166015625,       -8.0566406250,        0.4119873047,       16.7236328125
1489457302.9448819160,1489457302.9471778870,       -0.7270507812,        0.0888671875,        0.0166015625,       -8.0566406250,        0.4119873047,       16.7236328125
1489457302.9474558830,1489457302.9498009682,       -0.7270507812,        0.0888671875,        0.0166015625,      -10.6964111328,        0.3509521484,       16.0827636719
1489457302.9500849247,1489457302.9523799419,       -0.7270507812,        0.0888671875,        0.0166015625,      -10.6964111328,        0.3509521484,       16.0827636719
1489457302.9526619911,1489457302.9550449848,       -0.7080078125,        0.0971679688,        0.0058593750,      -10.6964111328,        0.3356933594,       15.9606933594
1489457302.9553470612,1489457302.9576580524,       -0.7080078125,        0.0971679688,        0.0058593750,      -13.1530761719,        0.3356933594,       15.9606933594
1489457302.9579429626,1489457302.9604630470,       -0.7080078125,        0.0971679688,        0.0058593750,      -13.1530761719,        0.8087158203,       15.4571533203
1489457302.9607489109,1489457302.9630410671,       -0.7080078125,        0.0971679688,        0.0136718750,      -15.4418945312,        0.8087158203,       15.4571533203
1489457302.9633240700,1489457302.9656128883,       -0.6933593750,        0.1391601562,        0.0136718750,      -15.4418945312,        0.8087158203,       15.1062011719
1489457302.9658958912,1489457302.9681859016,       -0.6933593750,        0.1391601562,        0.0136718750,      -16.9677734375,        1.7395019531,       15.1062011719
1489457302.9684689045,1489457302.9707970619,       -0.6933593750,        0.1391601562,        0.0136718750,      -16.9677734375,        1.7395019531,       14.6636962891
1489457302.9710819721,1489457302.9733700752,       -0.6933593750,        0.1391601562,        0.0151367188,      -17.5933837891,        1.7852783203,       14.6636962891
1489457302.9736530781,1489457302.9759399891,       -0.7138671875,        0.1528320312,        0.0151367188,      -17.5933837891,        1.7852783203,       14.6636962891
1489457302.9762210846,1489457302.9785099030,       -0.7138671875,        0.1528320312,        0.0151367188,      -17.8985595703,        1.1138916016,       14.5874023438
1489457302.9788370132,1489457302.9811270237,       -0.7138671875,        0.1528320312,        0.0151367188,      -17.8985595703,        1.1138916016,       14.5874023438
1489457302.9814081192,1489457302.9836969376,       -0.7138671875,        0.1171875000,        0.0263671875,      -18.0816650391,        0.1525878906,       13.6108398438
1489457302.9839780331,1489457302.9862620831,       -0.7236328125,        0.1171875000,        0.0263671875,      -18.0816650391,        0.1525878906,       13.6108398438
1489457302.9865438938,1489457302.9888749123,       -0.7236328125,        0.1171875000,        0.0263671875,      -16.8914794922,       -0.1831054688,       12.2985839844
1489457302.9891569614,1489457302.9914510250,       -0.7236328125,        0.1171875000,        0.0263671875,      -16.8914794922,       -0.1831054688,       12.2985839844
1489457302.9918510914,1489457302.9941411018,       -0.7236328125,        0.1401367188,        0.0268554688,      -14.5721435547,       -0.5645751953,       11.0931396484
1489457302.9944250584,1489457302.9967110157,       -0.7451171875,        0.1401367188,        0.0268554688,      -14.5721435547,       -0.5645751953,       11.0931396484
1489457302.9969930649,1489457302.9992909431,       -0.7451171875,        0.1401367188,        0.0268554688,      -12.0239257812,       -0.5798339844,       10.4064941406
1489457302.9995739460,1489457303.0018670559,       -0.7451171875,        0.1401367188,        0.0268554688,      -12.0239257812,       -0.5798339844,       10.4064941406
1489457303.0021500587,1489457303.0044341087,       -0.7675781250,        0.1645507812,        0.0039062500,       -9.4604492188,       -0.3051757812,        9.5825195312
1489457303.0047109127,1489457303.0069980621,       -0.7675781250,        0.1645507812,        0.0039062500,       -9.4604492188,       -0.3051757812,        9.5825195312
1489457303.0072739124,1489457303.0097439289,       -0.7675781250,        0.1645507812,        0.0039062500,       -5.5541992188,       -0.6713867188,        8.3160400391
1489457303.0100200176,1489457303.0123178959,       -0.7675781250,        0.1645507812,        0.0039062500,       -7.7972412109,       -0.6713867188,        8.3160400391
1489457303.0125920773,1489457303.0148890018,       -0.7470703125,        0.1508789062,        0.0073242188,       -7.7972412109,       -1.0070800781,        7.5225830078
1489457303.0151619911,1489457303.0174560547,       -0.7470703125,        0.1508789062,        0.0073242188,       -7.1563720703,       -1.0070800781,        7.5225830078
1489457303.0177299976,1489457303.0202150345,       -0.7470703125,        0.1508789062,        0.0073242188,       -7.1563720703,       -1.1444091797,        7.3089599609
1489457303.0204980373,1489457303.0228989124,       -0.7470703125,        0.1508789062,        0.0073242188,       -6.5917968750,       -1.1444091797,        7.3089599609
1489457303.0231800079,1489457303.0255830288,       -0.7290039062,        0.1259765625,        0.0317382812,       -6.5917968750,       -1.1444091797,        6.6833496094
1489457303.0258629322,1489457303.0282649994,       -0.7290039062,        0.1259765625,        0.0317382812,       -5.6762695312,       -1.5258789062,        6.6833496094
1489457303.0285439491,1489457303.0309939384,       -0.7290039062,        0.1259765625,        0.0317382812,       -5.6762695312,       -1.5258789062,        6.7443847656
1489457303.0312740803,1489457303.0336899757,       -0.7290039062,        0.1259765625,        0.0317382812,       -4.7149658203,       -1.5258789062,        6.7443847656
1489457303.0339729786,1489457303.0363879204,       -0.7246093750,        0.1215820312,        0.0273437500,       -4.7149658203,       -1.5258789062,        6.6223144531
1489457303.0366699696,1489457303.0390839577,       -0.7246093750,        0.1215820312,        0.0273437500,       -4.3640136719,       -1.4648437500,        6.6223144531
1489457303.0393590927,1489457303.0416469574,       -0.7246093750,        0.1215820312,        0.0273437500,       -4.3640136719,       -1.4648437500,        7.0495605469
1489457303.0419220924,1489457303.0442140102,       -0.7246093750,        0.1049804688,        0.0195312500,       -3.9062500000,       -1.2664794922,        7.0495605469
1489457303.0444900990,1489457303.0467829704,       -0.7329101562,        0.1049804688,        0.0195312500,       -3.9062500000,       -1.2664794922,        7.0495605469
1489457303.0470569134,1489457303.0494210720,       -0.7329101562,        0.1049804688,        0.0195312500,       -3.7231445312,       -1.7700195312,        7.7514648438
1489457303.0497019291,1489457303.0521059036,       -0.7329101562,        0.1049804688,        0.0195312500,       -3.7231445312,       -1.7700195312,        7.7514648438
1489457303.0523879528,1489457303.0547919273,       -0.7329101562,        0.0820312500,        0.0307617188,       -3.6163330078,       -1.8310546875,        9.0942382812
1489457303.0551791191,1489457303.0575830936,       -0.7387695312,        0.0820312500,        0.0307617188,       -3.6163330078,       -1.8310546875,        9.0942382812
1489457303.0578639507,1489457303.0603079796,       -0.7387695312,        0.0820312500,        0.0307617188,       -4.4250488281,       -2.2735595703,       10.4064941406
1489457303.0605940819,1489457303.0629959106,       -0.7387695312,        0.0820312500,        0.0307617188,       -4.4250488281,       -2.2735595703,       10.4064941406
1489457303.0632810593,1489457303.0656840801,       -0.7558593750,        0.0429687500,        0.0136718750,       -4.6691894531,       -1.5411376953,       12.0391845703
1489457303.0659689903,1489457303.0683679581,       -0.7558593750,        0.0429687500,        0.0136718750,       -4.6691894531,       -1.5411376953,       12.0391845703
1489457303.0686519146,1489457303.0710639954,       -0.7558593750,        0.0429687500,        0.0136718750,       -4.3334960938,       -1.2664794922,       15.0756835938
1489457303.0713479519,1489457303.0737450123,       -0.7558593750,        0.0429687500,        0.0136718750,       -4.3334960938,       -1.2664794922,       15.0756835938
1489457303.0740311146,1489457303.0765960217,       -0.7597656250,        0.0126953125,       -0.0175781250,       -3.8604736328,       -0.5035400391,       19.6533203125
1489457303.0768818855,1489457303.0792860985,       -0.7597656250,        0.0126953125,       -0.0175781250,       -3.8604736328,       -0.5035400391,       19.6533203125
1489457303.0799999237,1489457303.0823879242,       -0.7597656250,        0.0126953125,       -0.0175781250,       -4.3029785156,       -0.0457763672,       24.7192382812
1489457303.0826730728,1489457303.0850598812,       -0.7597656250,       -0.0014648438,        0.0009765625,       -4.3029785156,       -0.0457763672,       28.8543701172
1489457303.0853450298,1489457303.0877289772,       -0.7705078125,       -0.0014648438,        0.0009765625,       -5.2032470703,       -0.8697509766,       28.8543701172
1489457303.0880150795,1489457303.0903670788,       -0.7705078125,       -0.0014648438,        0.0009765625,       -5.2032470703,       -0.8697509766,       32.7606201172
1489457303.0906488895,1489457303.0929379463,       -0.7705078125,       -0.0014648438,        0.0009765625,       -6.2103271484,       -1.7852783203,       33.1878662109
1489457303.0932168961,1489457303.0955109596,       -0.7944335938,       -0.0263671875,       -0.0141601562,       -6.2103271484,       -1.7852783203,       33.1878662109
1489457303.0957889557,1489457303.0980770588,       -0.7944335938,       -0.0263671875,       -0.0141601562,       -7.9040527344,       -2.1667480469,       37.5976562500
1489457303.0983541012,1489457303.1007440090,       -0.7944335938,       -0.0263671875,       -0.0141601562,       -7.9040527344,       -2.1667480469,       37.5976562500
1489457303.1010301113,1489457303.1034450531,       -0.7944335938,       -0.0263671875,       -0.0141601562,      -11.3525390625,       -1.0833740234,       41.2445068359
1489457303.1037349701,1489457303.1061489582,       -0.7778320312,       -0.0913085938,       -0.0156250000,      -11.3525390625,       -1.0833740234,       41.2445068359
1489457303.1064369678,1489457303.1088650227,       -0.7778320312,       -0.0913085938,       -0.0156250000,      -16.0522460938,       -0.4577636719,       44.9371337891
1489457303.1091489792,1489457303.1114449501,       -0.7778320312,       -0.0913085938,       -0.0156250000,      -16.0522460938,       -0.4577636719,       44.9371337891
1489457303.1117289066,1489457303.1140201092,       -0.7778320312,       -0.0913085938,       -0.0156250000,      -20.7824707031,       -0.5950927734,       48.3093261719
1489457303.1143031120,1489457303.1165900230,       -0.7221679688,       -0.0102539062,       -0.0043945312,      -20.7824707031,       -0.5950927734,       48.3093261719
1489457303.1168730259,1489457303.1192140579,       -0.7221679688,       -0.0102539062,       -0.0043945312,      -26.5197753906,       -1.8768310547,       50.5371093750
1489457303.1195940971,1489457303.1218860149,       -0.7221679688,       -0.0102539062,       -0.0043945312,      -26.5197753906,       -1.8768310547,       50.5371093750
1489457303.1221671104,1489457303.1244618893,       -0.7221679688,       -0.0102539062,        0.1206054688,      -32.3638916016,       -3.8299560547,       52.2918701172
1489457303.1247439384,1489457303.1270360947,       -0.6967773438,        0.1503906250,        0.0283203125,      -32.3638916016,       -3.8299560547,       52.2918701172
1489457303.1273179054,1489457303.1297481060,       -0.6967773438,        0.1503906250,        0.0283203125,      -33.9660644531,       -5.8593750000,       53.2226562500
1489457303.1300330162,1489457303.1323270798,       -0.6967773438,        0.1503906250,        0.0283203125,      -33.9660644531,       -5.8593750000,       53.2226562500
1489457303.1326110363,1489457303.1348969936,       -0.6967773438,        0.1503906250,        0.0722656250,      -30.4870605469,       -6.6375732422,       52.4291992188
1489457303.1351790428,1489457303.1376171112,       -0.6694335938,        0.2465820312,        0.0722656250,      -30.4870605469,       -6.6375732422,       52.4291992188
1489457303.1379001141,1489457303.1404149532,       -0.6694335938,        0.2465820312,        0.0722656250,      -23.8952636719,       -7.9650878906,       49.9420166016
1489457303.1407001019,1489457303.1429939270,       -0.6694335938,        0.2465820312,        0.0722656250,      -23.8952636719,       -7.9650878906,       49.9420166016
1489457303.1432750225,1489457303.1455760002,       -0.6552734375,        0.3339843750,        0.1054687500,      -12.1765136719,       -9.3078613281,       47.9736328125
1489457303.1458570957,1489457303.1481521130,       -0.6552734375,        0.3339843750,        0.1054687500,      -15.2740478516,       -9.3078613281,       47.9736328125
1489457303.1484351158,1489457303.1509740353,       -0.6552734375,        0.3339843750,        0.1054687500,       -7.4615478516,       -9.4757080078,       46.8139648438
1489457303.1512610912,1489457303.1536490917,       -0.6552734375,        0.3339843750,        0.1054687500,       -5.7067871094,       -9.4757080078,       46.8139648438
1489457303.1539320946,1489457303.1565608978,       -0.6938476562,        0.2172851562,        0.0727539062,        2.1057128906,       -7.7667236328,       46.0662841797
1489457303.1568489075,1489457303.1592879295,       -0.6938476562,        0.2172851562,        0.0727539062,        2.7770996094,       -7.7667236328,       46.0662841797
1489457303.1595718861,1489457303.1619899273,       -0.6938476562,        0.2172851562,        0.0727539062,       10.5895996094,       -6.3781738281,       45.5017089844
1489457303.1622779369,1489457303.1646931171,       -0.6938476562,        0.2172851562,        0.0727539062,        8.6059570312,       -6.3781738281,       45.5017089844
1489457303.1649808884,1489457303.1673960686,       -0.6625976562,        0.0756835938,        0.0522460938,        8.6059570312,       -5.4473876953,       46.3256835938
1489457303.1676819324,1489457303.1701099873,       -0.6625976562,        0.0756835938,        0.0522460938,        8.4686279297,       -5.4473876953,       46.3256835938
1489457303.1703939438,1489457303.1728200912,       -0.6625976562,        0.0756835938,        0.0522460938,        4.5623779297,       -5.3253173828,       48.2177734375
1489457303.1731040478,1489457303.1755208969,       -0.6625976562,        0.1137695312,        0.0991210938,        4.1351318359,       -5.3253173828,       48.2177734375
1489457303.1758069992,1489457303.1782300472,       -0.6748046875,        0.1137695312,        0.0991210938,       -3.6773681641,       -5.2795410156,       49.7283935547
1489457303.1785159111,1489457303.1809470654,       -0.6748046875,        0.1137695312,        0.0991210938,       -2.4108886719,       -5.2795410156,       49.7283935547
1489457303.1812319756,1489457303.1836481094,       -0.6748046875,        0.1137695312,        0.0991210938,       -6.3171386719,       -5.1879882812,       51.2237548828
1489457303.1839330196,1489457303.1863489151,       -0.7377929688,        0.2021484375,        0.1044921875,       -7.1868896484,       -5.1879882812,       51.2237548828
1489457303.1867420673,1489457303.1891500950,       -0.7377929688,        0.2021484375,        0.1044921875,      -11.0931396484,       -4.7302246094,       52.3681640625
1489457303.1894330978,1489457303.1917269230,       -0.7377929688,        0.2021484375,        0.1044921875,       -8.0108642578,       -4.7302246094,       52.3681640625
1489457303.1920061111,1489457303.1943020821,       -0.7377929688,        0.2021484375,        0.1044921875,       -8.0108642578,       -4.7302246094,       53.5583496094
1489457303.1945788860,1489457303.1968710423,       -0.7607421875,        0.2543945312,        0.0756835938,       -5.7983398438,       -4.4708251953,       53.5583496094
1489457303.1971490383,1489457303.1995599270,       -0.7607421875,        0.2543945312,        0.0756835938,       -5.7983398438,       -4.4708251953,       54.1839599609
1489457303.1998379230,1489457303.2021369934,       -0.7607421875,        0.2543945312,        0.0756835938,       -1.9073486328,       -4.2572021484,       54.1839599609
1489457303.2024149895,1489457303.2047069073,       -0.7607421875,        0.2543945312,        0.0756835938,       -1.9073486328,       -4.2572021484,       58.0902099609
1489457303.2049839497,1489457303.2072789669,       -0.7504882812,        0.1279296875,       -0.0185546875,        2.4566650391,       -3.3416748047,       55.2062988281
1489457303.2075569630,1489457303.2099969387,       -0.7504882812,        0.1279296875,       -0.0185546875,        2.4566650391,       -3.3416748047,       55.2062988281
1489457303.2102839947,1489457303.2127010822,       -0.7504882812,        0.1279296875,       -0.0185546875,        3.7689208984,       -1.2054443359,       57.7545166016
1489457303.2129850388,1489457303.2154068947,       -0.7504882812,        0.1279296875,       -0.0839843750,        3.7689208984,       -1.2054443359,       57.7545166016
1489457303.2156929970,1489457303.2181060314,       -0.6035156250,       -0.1245117188,       -0.0839843750,       -2.3193359375,        2.0904541016,       62.8356933594
1489457303.2183930874,1489457303.2208540440,       -0.6035156250,       -0.1245117188,       -0.0839843750,       -2.3193359375,        2.0904541016,       62.8356933594
1489457303.2211410999,1489457303.2235610485,       -0.6035156250,       -0.1245117188,       -0.0839843750,      -15.4418945312,        2.5024414062,       68.4051513672
1489457303.2238519192,1489457303.2262709141,       -0.6035156250,       -0.0737304688,        0.0151367188,      -15.4418945312,        2.5024414062,       68.4051513672
1489457303.2265610695,1489457303.2290399075,       -0.5488281250,       -0.0737304688,        0.0151367188,      -31.0668945312,       -0.1373291016,       73.5473632812
1489457303.2293310165,1489457303.2317550182,       -0.5488281250,       -0.0737304688,        0.0151367188,      -31.0668945312,       -0.1373291016,       73.5473632812
1489457303.2320470810,1489457303.2344639301,       -0.5488281250,       -0.0737304688,        0.0151367188,      -44.9829101562,       -4.0588378906,       76.3854980469
1489457303.2347550392,1489457303.2371799946,       -0.6816406250,        0.1215820312,        0.0805664062,      -44.9829101562,       -4.0588378906,       76.3854980469
1489457303.2374711037,1489457303.2398440838,       -0.6816406250,        0.1215820312,        0.0805664062,      -53.4362792969,       -5.7373046875,       77.9724121094
1489457303.2401280403,1489457303.2424190044,       -0.6816406250,        0.1215820312,        0.0805664062,      -53.4362792969,       -5.7373046875,       77.9724121094
1489457303.2427010536,1489457303.2449960709,       -0.6816406250,        0.1215820312,        0.0805664062,      -54.5959472656,       -8.4228515625,       79.3151855469
1489457303.2452790737,1489457303.2475709915,       -0.6811523438,        0.3022460938,        0.0805664062,      -54.5959472656,       -8.4228515625,       79.3151855469
1489457303.2478520870,1489457303.2502620220,       -0.6811523438,        0.3022460938,        0.0805664062,      -49.8046875000,      -14.8468017578,       80.3070068359
1489457303.2506630421,1489457303.2530820370,       -0.6811523438,        0.3022460938,        0.0805664062,      -49.8046875000,      -14.8468017578,       80.3070068359
1489457303.2533750534,1489457303.2557909489,       -0.6811523438,        0.3022460938,        0.0786132812,      -31.6772460938,      -16.8457031250,       77.8961181641
1489457303.2560830116,1489457303.2584960461,       -0.7299804688,        0.3813476562,        0.0786132812,      -31.6772460938,      -16.8457031250,       77.8961181641
1489457303.2588241100,1489457303.2612531185,       -0.7299804688,        0.3813476562,        0.0786132812,       -7.6599121094,      -15.4724121094,       74.6765136719
1489457303.2615408897,1489457303.2639560699,       -0.7299804688,        0.3813476562,        0.0786132812,       -7.6599121094,      -15.4724121094,       74.6765136719
1489457303.2642469406,1489457303.2667350769,       -0.8549804688,        0.3691406250,       -0.0219726562,        8.6975097656,      -13.7176513672,       73.3337402344
1489457303.2670269012,1489457303.2697389126,       -0.8061523438,        0.3691406250,       -0.0219726562,        8.6975097656,      -13.7176513672,       73.3337402344
1489457303.2700250149,1489457303.2723259926,       -0.8061523438,        0.3691406250,       -0.0219726562,       19.4091796875,      -12.5274658203,       73.7915039062
1489457303.2726120949,1489457303.2749071121,       -0.8061523438,        0.3691406250,       -0.0219726562,       19.4091796875,      -12.5274658203,       73.7915039062
1489457303.2751910686,1489457303.2774848938,       -0.7290039062,        0.1279296875,       -0.0644531250,       24.5361328125,      -13.1378173828,       75.5920410156
1489457303.2777690887,1489457303.2800738811,       -0.7290039062,        0.1279296875,       -0.0644531250,       24.5361328125,      -13.1378173828,       75.5920410156
1489457303.2803599834,1489457303.2826449871,       -0.7290039062,        0.1279296875,       -0.0644531250,       20.1416015625,      -13.6871337891,       77.7130126953
1489457303.2829320431,1489457303.2852220535,       -0.7290039062,        0.1279296875,       -0.0644531250,       20.1416015625,      -13.6871337891,       77.7130126953
1489457303.2855091095,1489457303.2877988815,       -0.6811523438,        0.1523437500,       -0.0219726562,       10.6353759766,      -13.5040283203,       79.5745849609
1489457303.2880840302,1489457303.2904250622,       -0.6811523438,        0.1523437500,       -0.0219726562,       10.6353759766,      -13.5040283203,       79.5745849609
1489457303.2907099724,1489457303.2930068970,       -0.6811523438,        0.1523437500,       -0.0219726562,        0.0457763672,      -11.9628906250,       82.1075439453
1489457303.2932898998,1489457303.2955780029,       -0.6811523438,        0.1523437500,       -0.0219726562,        0.0457763672,      -11.9628906250,       82.1075439453
1489457303.2958610058,1489457303.2981500626,       -0.6142578125,        0.2514648438,        0.0014648438,       -8.5296630859,      -12.6953125000,       83.9233398438
1489457303.2984330654,1489457303.3007810116,       -0.6142578125,        0.2514648438,        0.0014648438,       -8.5296630859,      -12.6953125000,       83.9233398438
1489457303.3010640144,1489457303.3033499718,       -0.6142578125,        0.2514648438,        0.0014648438,      -12.4359130859,      -15.7318115234,       84.3811035156
1489457303.3036348820,1489457303.3059239388,       -0.6142578125,        0.2514648438,        0.0014648438,      -13.7023925781,      -15.7318115234,       84.3811035156
1489457303.3062109947,1489457303.3085019588,       -0.5917968750,        0.3369140625,        0.0410156250,      -13.7023925781,      -15.7318115234,       83.4960937500
1489457303.3087871075,1489457303.3111329079,       -0.5917968750,        0.3369140625,        0.0410156250,      -16.6015625000,      -17.4713134766,       83.4960937500
1489457303.3114180565,1489457303.3137109280,       -0.5917968750,        0.3369140625,        0.0410156250,      -16.6015625000,      -17.4713134766,       82.7026367188
1489457303.3141040802,1489457303.3163940907,       -0.5917968750,        0.3369140625,        0.0214843750,      -15.5181884766,      -16.8151855469,       82.7026367188
1489457303.3166790009,1489457303.3190190792,       -0.5683593750,        0.3178710938,        0.0214843750,      -15.5181884766,      -16.8151855469,       82.7026367188
1489457303.3193058968,1489457303.3216009140,       -0.5683593750,        0.3178710938,        0.0214843750,      -12.7258300781,      -16.2506103516,       83.1756591797
1489457303.3218860626,1489457303.3241748810,       -0.5683593750,        0.3178710938,        0.0214843750,      -12.7258300781,      -16.2506103516,       83.1756591797
1489457303.3244609833,1489457303.3267459869,       -0.5683593750,        0.3178710938,        0.0610351562,      -13.0310058594,      -17.2882080078,       83.7554931641
1489457303.3270308971,1489457303.3294489384,       -0.5712890625,        0.3217773438,        0.0610351562,      -13.0310058594,      -17.2882080078,       83.7554931641
1489457303.3297429085,1489457303.3321590424,       -0.5712890625,        0.3217773438,        0.0610351562,      -14.4195556641,      -18.7683105469,       83.2519531250
1489457303.3324530125,1489457303.3348701000,       -0.5712890625,        0.3217773438,        0.0610351562,      -14.4195556641,      -18.7683105469,       83.2519531250
1489457303.3351631165,1489457303.3375759125,       -0.6806640625,        0.2807617188,        0.0424804688,      -13.1988525391,      -19.0582275391,       82.5958251953
1489457303.3378670216,1489457303.3402230740,       -0.6806640625,        0.2807617188,        0.0424804688,      -13.1988525391,      -19.0582275391,       82.5958251953
1489457303.3405089378,1489457303.3428030014,       -0.6806640625,        0.2807617188,        0.0424804688,      -11.1999511719,      -20.2331542969,       82.7636718750
1489457303.3430869579,1489457303.3453791142,       -0.6806640625,        0.2807617188,        0.0424804688,      -11.1999511719,      -20.2331542969,       82.7636718750
1489457303.3456649780,1489457303.3479549885,       -0.6928710938,        0.2548828125,        0.0107421875,       -7.2631835938,      -20.1263427734,       83.1451416016
1489457303.3482379913,1489457303.3506779671,       -0.6928710938,        0.2548828125,        0.0107421875,       -7.2631835938,      -20.1263427734,       83.1451416016
1489457303.3509669304,1489457303.3533830643,       -0.6928710938,        0.2548828125,        0.0107421875,        0.9918212891,      -17.2119140625,       81.5124511719
1489457303.3536739349,1489457303.3560900688,       -0.6928710938,        0.2548828125,        0.0107421875,        0.9918212891,      -17.2119140625,       81.5124511719
1489457303.3563790321,1489457303.3588349819,       -0.7783203125,        0.4648437500,        0.0996093750,       -0.3814697266,      -16.7541503906,       79.1778564453
1489457303.3591170311,1489457303.3614089489,       -0.7783203125,        0.4648437500,        0.0996093750,       -0.3814697266,      -16.7541503906,       79.1778564453
1489457303.3616929054,1489457303.3639869690,       -0.7783203125,        0.4648437500,        0.0996093750,       -2.3803710938,      -16.5710449219,       76.9653320312
1489457303.3642699718,1489457303.3665618896,       -0.7783203125,        0.4648437500,        0.0996093750,       -2.3803710938,      -16.5710449219,       76.9653320312
1489457303.3668439388,1489457303.3692409992,       -0.7158203125,        0.4780273438,        0.0317382812,        2.0446777344,      -17.8680419922,       75.5310058594
1489457303.3695240021,1489457303.3718209267,       -0.7158203125,        0.4780273438,        0.0317382812,        2.0446777344,      -17.8680419922,       75.5310058594
1489457303.3721029758,1489457303.3743939400,       -0.7158203125,        0.4780273438,        0.0317382812,        5.7983398438,      -18.6309814453,       73.7915039062
1489457303.3746759892,1489457303.3769741058,       -0.7158203125,        0.4780273438,        0.0937500000,        5.7983398438,      -18.6309814453,       73.7915039062
1489457303.3773651123,1489457303.3797919750,       -0.5795898438,        0.4667968750,        0.0937500000,        5.7983398438,      -18.1274414062,       71.9909667969
1489457303.3800790310,1489457303.3824589252,       -0.5795898438,        0.4667968750,        0.0937500000,        7.7209472656,      -18.1274414062,       71.9909667969
1489457303.3827459812,1489457303.3852729797,       -0.5795898438,        0.4667968750,        0.0937500000,       11.6271972656,      -17.4407958984,       69.6868896484
1489457303.3855669498,1489457303.3879830837,       -0.5610351562,        0.4028320312,        0.0947265625,        8.4075927734,      -17.4407958984,       69.6868896484
1489457303.3882730007,1489457303.3906080723,       -0.5610351562,        0.4028320312,        0.0947265625,        6.6986083984,      -17.8375244141,       67.3980712891
1489457303.3908910751,1489457303.3931829929,       -0.5610351562,        0.4028320312,        0.0947265625,        6.6986083984,      -17.8375244141,       67.3980712891
1489457303.3934650421,1489457303.3957540989,       -0.5610351562,        0.4028320312,        0.0947265625,        6.6986083984,      -17.9290771484,       66.0552978516
1489457303.3960359097,1489457303.3983249664,       -0.5595703125,        0.3886718750,        0.0830078125,        3.9062500000,      -17.9290771484,       66.0552978516
1489457303.3986079693,1489457303.4010620117,       -0.5595703125,        0.3886718750,        0.0830078125,        3.9062500000,      -17.9290771484,       66.2384033203
1489457303.4013519287,1489457303.4037671089,       -0.5595703125,        0.3886718750,        0.0830078125,        1.6937255859,      -17.3034667969,       66.2384033203
1489457303.4040551186,1489457303.4064750671,       -0.5595703125,        0.3886718750,        0.0830078125,        1.6937255859,      -17.3034667969,       66.7114257812
1489457303.4067630768,1489457303.4092230797,       -0.5463867188,        0.4321289062,        0.0874023438,       -0.3509521484,      -16.6625976562,       66.7114257812
1489457303.4095129967,1489457303.4119300842,       -0.5463867188,        0.4321289062,        0.0874023438,       -0.3509521484,      -16.6625976562,       65.0939941406
1489457303.4122209549,1489457303.4146409035,       -0.5463867188,        0.4321289062,        0.0874023438,        0.1068115234,      -16.4337158203,       65.0939941406
1489457303.4149310589,1489457303.4173469543,       -0.5463867188,        0.4321289062,        0.0771484375,        0.1068115234,      -16.4337158203,       63.2019042969
1489457303.4176371098,1489457303.4200038910,       -0.6157226562,        0.4218750000,        0.0771484375,        0.1068115234,      -16.0522460938,       63.2019042969
1489457303.4202880859,1489457303.4225769043,       -0.6157226562,        0.4218750000,        0.0771484375,        0.1068115234,      -16.0522460938,       62.5915527344
1489457303.4228599072,1489457303.4251561165,       -0.6157226562,        0.4218750000,        0.0771484375,        0.0915527344,      -16.4489746094,       62.5915527344
1489457303.4254369736,1489457303.4277269840,       -0.6157226562,        0.3750000000,        0.0942382812,        0.0915527344,      -16.4489746094,       58.6853027344
1489457303.4280068874,1489457303.4304680824,       -0.6640625000,        0.3750000000,        0.0942382812,        0.4882812500,      -15.8691406250,       61.8896484375
1489457303.4307520390,1489457303.4330430031,       -0.6640625000,        0.3750000000,        0.0942382812,        0.4882812500,      -15.8691406250,       61.8896484375
1489457303.4333250523,1489457303.4356179237,       -0.6640625000,        0.3750000000,        0.0942382812,        2.1667480469,      -13.3361816406,       60.1501464844
1489457303.4358990192,1489457303.4381909370,       -0.6640625000,        0.4433593750,        0.1152343750,        2.1667480469,      -13.3361816406,       60.1501464844
1489457303.4384710789,1489457303.4408800602,       -0.7065429688,        0.4433593750,        0.1152343750,        0.9002685547,      -11.8560791016,       56.9458007812
1489457303.4412729740,1489457303.4437220097,       -0.7065429688,        0.4433593750,        0.1152343750,        0.9002685547,      -11.8560791016,       56.9458007812
1489457303.4440050125,1489457303.4462940693,       -0.7065429688,        0.4433593750,        0.1152343750,        2.2735595703,      -12.0697021484,       54.7790527344
1489457303.4465761185,1489457303.4490129948,       -0.6132812500,        0.5034179688,        0.0751953125,        2.2735595703,      -12.0697021484,       54.7790527344
1489457303.4493019581,1489457303.4516730309,       -0.6132812500,        0.5034179688,        0.0751953125,        5.3253173828,      -12.4664306641,       52.7191162109
1489457303.4519588947,1489457303.4543390274,       -0.6132812500,        0.5034179688,        0.0751953125,        5.3253173828,      -12.4664306641,       52.7191162109
1489457303.4546840191,1489457303.4570720196,       -0.6132812500,        0.5034179688,        0.0751953125,        8.1634521484,      -10.4980468750,       50.3234863281
1489457303.4573600292,1489457303.4601440430,       -0.5683593750,        0.5673828125,        0.0898437500,        8.1634521484,      -10.4980468750,       50.3234863281
1489457303.4604361057,1489457303.4628579617,       -0.5683593750,        0.5673828125,        0.0898437500,        7.4462890625,       -7.9193115234,       46.7834472656
1489457303.4631440639,1489457303.4655539989,       -0.5683593750,        0.5673828125,        0.0898437500,        7.4462890625,       -7.9193115234,       46.7834472656
1489457303.4658389091,1489457303.4682550430,       -0.5683593750,        0.4995117188,        0.0781250000,        6.9122314453,       -7.5073242188,       42.6330566406
1489457303.4685399532,1489457303.4709661007,       -0.5751953125,        0.4995117188,        0.0781250000,        6.9122314453,       -7.5073242188,       42.6330566406
1489457303.4712519646,1489457303.4736690521,       -0.5751953125,        0.4995117188,        0.0781250000,        9.3536376953,       -8.3618164062,       40.2679443359
1489457303.4739549160,1489457303.4763751030,       -0.5751953125,        0.4995117188,        0.0781250000,        9.3536376953,       -8.3618164062,       40.2679443359
1489457303.4766619205,1489457303.4790840149,       -0.5712890625,        0.4755859375,        0.0786132812,       10.6811523438,       -9.0637207031,       38.6505126953
1489457303.4793739319,1489457303.4817979336,       -0.5712890625,        0.4755859375,        0.0786132812,       10.6811523438,       -9.0637207031,       38.6505126953
1489457303.4820880890,1489457303.4845089912,       -0.5712890625,        0.4755859375,        0.0786132812,       11.2609863281,       -8.6059570312,       37.3229980469
1489457303.4847989082,1489457303.4872100353,       -0.5712890625,        0.4755859375,        0.0786132812,       11.2609863281,       -8.6059570312,       37.3229980469
1489457303.4874989986,1489457303.4898750782,       -0.5468750000,        0.5234375000,        0.0483398438,       11.2457275391,       -8.0871582031,       35.0341796875
1489457303.4901559353,1489457303.4924519062,       -0.5468750000,        0.5234375000,        0.0483398438,       11.2457275391,       -8.0871582031,       35.0341796875
1489457303.4927361012,1489457303.4950230122,       -0.5468750000,        0.5234375000,        0.0483398438,        9.1705322266,       -8.1939697266,       31.1737060547
1489457303.4953029156,1489457303.4975988865,       -0.5468750000,        0.5234375000,        0.0483398438,        9.1705322266,       -8.1939697266,       31.1737060547
1489457303.4978768826,1489457303.5002169609,       -0.5581054688,        0.5629882812,        0.0605468750,        7.6599121094,       -8.3312988281,       27.4200439453
1489457303.5004959106,1489457303.5027918816,       -0.5581054688,        0.5629882812,        0.0605468750,        7.6599121094,       -8.3312988281,       27.4200439453
1489457303.5030689240,1489457303.5053710938,       -0.5581054688,        0.5629882812,        0.0605468750,        7.7209472656,       -9.5672607422,       24.0325927734
1489457303.5057599545,1489457303.5080549717,       -0.5581054688,        0.5629882812,        0.0815429688,        7.7209472656,       -9.5672607422,       24.0325927734
1489457303.5083329678,1489457303.5107650757,       -0.5395507812,        0.5771484375,        0.0815429688,        7.2479248047,      -11.0473632812,       19.8364257812
1489457303.5110480785,1489457303.5133490562,       -0.5395507812,        0.5771484375,        0.0815429688,        7.2479248047,      -11.0473632812,       19.8364257812
1489457303.5136311054,1489457303.5159230232,       -0.5395507812,        0.5771484375,        0.0815429688,        5.9356689453,      -12.5732421875,       15.1214599609
1489457303.5162029266,1489457303.5185010433,       -0.5395507812,        0.5771484375,        0.0957031250,        5.9356689453,      -12.5732421875,       15.1214599609
1489457303.5187830925,1489457303.5212330818,       -0.5126953125,        0.6215820312,        0.0957031250,        5.6610107422,      -13.6413574219,        9.7198486328
1489457303.5215110779,1489457303.5237970352,       -0.5126953125,        0.6215820312,        0.0957031250,        5.6610107422,      -13.6413574219,        9.7198486328
1489457303.5240759850,1489457303.5263659954,       -0.5126953125,        0.6215820312,        0.0957031250,        5.6610107422,      -14.7552490234,        4.2266845703
1489457303.5266449451,1489457303.5290060043,       -0.3876953125,        0.6577148438,        0.1040039062,        5.5236816406,      -14.7552490234,        4.2266845703
1489457303.5293040276,1489457303.5315949917,       -0.4985351562,        0.6577148438,        0.1040039062,        5.5236816406,      -14.7552490234,       -2.3193359375
1489457303.5318748951,1489457303.5341660976,       -0.4985351562,        0.6577148438,        0.1040039062,        4.1351318359,      -14.4958496094,       -2.3193359375
1489457303.5344440937,1489457303.5367300510,       -0.4985351562,        0.6577148438,        0.1040039062,        4.1351318359,      -14.4958496094,      -10.1318359375
1489457303.5370109081,1489457303.5393118858,       -0.4926757812,        0.6699218750,        0.1157226562,        3.9520263672,      -13.1530761719,       -8.7127685547
1489457303.5395910740,1489457303.5418798923,       -0.4926757812,        0.6699218750,        0.1157226562,        3.9520263672,      -13.1530761719,       -8.7127685547
1489457303.5421569347,1489457303.5444440842,       -0.4926757812,        0.6699218750,        0.1157226562,        3.9215087891,      -12.6800537109,      -14.7399902344
1489457303.5447258949,1489457303.5471661091,       -0.4926757812,        0.6699218750,        0.1157226562,        3.9215087891,      -12.6800537109,      -14.7399902344
1489457303.5474510193,1489457303.5499351025,       -0.5214843750,        0.6855468750,        0.1381835938,        3.4332275391,      -11.5966796875,      -22.0642089844
1489457303.5502190590,1489457303.5525069237,       -0.5214843750,        0.6855468750,        0.1381835938,        3.4332275391,      -11.5966796875,      -22.0642089844
1489457303.5527880192,1489457303.5552859306,       -0.5214843750,        0.6855468750,        0.1381835938,        5.2337646484,      -10.4370117188,      -29.8309326172
1489457303.5556299686,1489457303.5579330921,       -0.5214843750,        0.6855468750,        0.1381835938,        5.2337646484,      -10.4370117188,      -29.8309326172
1489457303.5582170486,1489457303.5605680943,       -0.5571289062,        0.6889648438,        0.1562500000,        9.5825195312,       -9.9945068359,      -37.5823974609
1489457303.5608460903,1489457303.5631349087,       -0.5571289062,        0.6889648438,        0.1562500000,        9.5825195312,       -9.9945068359,      -37.5823974609
1489457303.5634119511,1489457303.5656969547,       -0.5571289062,        0.6889648438,        0.1562500000,       14.2364501953,       -8.5906982422,      -45.0897216797
1489457303.5659780502,1489457303.5682680607,       -0.5571289062,        0.6889648438,        0.1562500000,       14.2364501953,       -8.5906982422,      -45.0897216797
1489457303.5686581135,1489457303.5709669590,       -0.6245117188,        0.6894531250,        0.1801757812,       18.8293457031,       -7.0495605469,      -52.7496337891
1489457303.5712490082,1489457303.5735421181,       -0.6245117188,        0.6894531250,        0.1801757812,       18.8293457031,       -7.0495605469,      -52.7496337891
1489457303.5738248825,1489457303.5761129856,       -0.6245117188,        0.6894531250,        0.1801757812,       22.4151611328,       -4.9438476562,      -60.3637695312
1489457303.5763978958,1489457303.5786910057,       -0.6245117188,        0.6894531250,        0.1728515625,       22.4151611328,       -4.9438476562,      -60.3637695312
1489457303.5789709091,1489457303.5812609196,       -0.7026367188,        0.6875000000,        0.1728515625,       26.3061523438,       -2.8686523438,      -68.4967041016
1489457303.5815429688,1489457303.5838301182,       -0.7026367188,        0.6875000000,        0.1728515625,       26.3061523438,       -2.8686523438,      -68.4967041016
1489457303.5841109753,1489457303.5864000320,       -0.7026367188,        0.6875000000,        0.1728515625,       34.1186523438,       -0.0915527344,      -75.5157470703
1489457303.5866839886,1489457303.5890550613,       -0.7026367188,        0.6875000000,        0.1860351562,       31.5704345703,       -0.0915527344,      -75.5157470703
1489457303.5893380642,1489457303.5916230679,       -0.7456054688,        0.6235351562,        0.1860351562,       31.5704345703,        3.8146972656,      -82.4279785156
1489457303.5919039249,1489457303.5941920280,       -0.7456054688,        0.6235351562,        0.1860351562,       36.4379882812,        1.5258789062,      -82.4279785156
1489457303.5944728851,1489457303.5967600346,       -0.7456054688,        0.6235351562,        0.1860351562,       36.4379882812,        1.5258789062,      -90.4235839844
1489457303.5970408916,1489457303.5993831158,       -0.7456054688,        0.6845703125,        0.1894531250,       38.0401611328,        3.1127929688,      -90.4235839844
1489457303.5996639729,1489457303.6019530296,       -0.7758789062,        0.6845703125,        0.1894531250,       38.0401611328,        3.1127929688,      -98.2360839844
1489457303.6022360325,1489457303.6045229435,       -0.7758789062,        0.6845703125,        0.1894531250,       37.4145507812,        4.7607421875,      -98.1445312500
1489457303.6048040390,1489457303.6070930958,       -0.7758789062,        0.6845703125,        0.1894531250,       37.4145507812,        4.7607421875,      -98.1445312500
1489457303.6073760986,1489457303.6097490788,       -0.7758789062,        0.6684570312,        0.1499023438,       38.3148193359,        6.2255859375,     -105.4687500000
1489457303.6100320816,1489457303.6123209000,       -0.8652343750,        0.6684570312,        0.1499023438,       38.3148193359,        6.2255859375,     -105.4687500000
1489457303.6126029491,1489457303.6148900986,       -0.8652343750,        0.6684570312,        0.1499023438,       38.5589599609,        7.9803466797,     -113.2507324219
1489457303.6151719093,1489457303.6174631119,       -0.8652343750,        0.6684570312,        0.1499023438,       38.5589599609,        7.9803466797,     -113.2507324219
1489457303.6177439690,1489457303.6201329231,       -0.9160156250,        0.6215820312,        0.1069335938,       37.6892089844,       10.1623535156,     -120.5749511719
1489457303.6204180717,1489457303.6227068901,       -0.9160156250,        0.6215820312,        0.1069335938,       37.6892089844,       10.1623535156,     -120.5749511719
1489457303.6229920387,1489457303.6252779961,       -0.9160156250,        0.6215820312,        0.1069335938,       34.4390869141,       13.7176513672,     -126.9989013672
1489457303.6255629063,1489457303.6278519630,       -0.9160156250,        0.6215820312,        0.1069335938,       34.4390869141,       13.7176513672,     -126.9989013672
1489457303.6281390190,1489457303.6304500103,       -1.0634765625,        0.6972656250,        0.0405273438,       31.7687988281,       16.4794921875,     -134.0332031250
1489457303.6308450699,1489457303.6331369877,       -1.0634765625,        0.6972656250,        0.0405273438,       31.7687988281,       16.4794921875,     -134.0332031250
1489457303.6334218979,1489457303.6357159615,       -1.0634765625,        0.6972656250,        0.0405273438,       32.7911376953,       18.4326171875,     -140.3656005859
1489457303.6360011101,1489457303.6382958889,       -1.0634765625,        0.6972656250,        0.0405273438,       32.7911376953,       18.4326171875,     -140.3656005859
1489457303.6385800838,1489457303.6410410404,       -1.4370117188,        0.7846679688,       -0.0581054688,       27.7557373047,       21.1029052734,     -145.5230712891
1489457303.6413331032,1489457303.6437480450,       -1.4370117188,        0.7846679688,       -0.0581054688,       27.7557373047,       21.1029052734,     -145.5230712891
1489457303.6440389156,1489457303.6464509964,       -1.4370117188,        0.7846679688,       -0.0581054688,       31.6619873047,       23.9410400391,     -150.5889892578
1489457303.6467430592,1489457303.6493930817,       -1.4370117188,        0.7846679688,       -0.0581054688,       32.0739746094,       23.9410400391,     -150.5889892578
1489457303.6496860981,1489457303.6520640850,       -1.7211914062,        0.4169921875,       -0.0361328125,       37.7044677734,       27.7404785156,     -157.0281982422
1489457303.6523530483,1489457303.6548810005,       -1.7211914062,        0.4169921875,       -0.0361328125,       37.7044677734,       27.7404785156,     -157.0281982422
1489457303.6551849842,1489457303.6574819088,       -1.7211914062,        0.4169921875,       -0.0361328125,       37.8265380859,       30.0750732422,     -163.6657714844
1489457303.6577680111,1489457303.6601870060,       -1.7211914062,        0.3491210938,       -0.0415039062,       37.8265380859,       30.0750732422,     -163.6657714844
1489457303.6604731083,1489457303.6627581120,       -1.6503906250,        0.3491210938,       -0.0415039062,       32.4859619141,       28.2745361328,     -168.7927246094
1489457303.6630430222,1489457303.6653299332,       -1.6503906250,        0.3491210938,       -0.0415039062,       32.4859619141,       28.2745361328,     -168.7927246094
1489457303.6656150818,1489457303.6678969860,       -1.6503906250,        0.3491210938,       -0.0415039062,       32.4859619141,       24.6887207031,     -172.7752685547
1489457303.6681818962,1489457303.6704730988,       -1.6430664062,        0.2973632812,        0.0615234375,       29.6325683594,       24.6887207031,     -172.7752685547
1489457303.6707570553,1489457303.6730430126,       -1.6430664062,        0.2973632812,        0.0615234375,       29.6325683594,       24.6887207031,     -176.8646240234
1489457303.6733260155,1489457303.6756179333,       -1.6430664062,        0.2973632812,        0.0615234375,       30.7617187500,       21.8353271484,     -176.8646240234
1489457303.6759030819,1489457303.6781930923,       -1.6430664062,        0.2973632812,        0.0615234375,       30.7617187500,       21.8353271484,     -180.7708740234
1489457303.6784770489,1489457303.6807749271,       -1.5644531250,        0.0800781250,        0.1235351562,       37.2772216797,       17.1356201172,     -182.6019287109
1489457303.6810610294,1489457303.6833500862,       -1.5644531250,        0.0800781250,        0.1235351562,       37.2772216797,       17.1356201172,     -182.6019287109
1489457303.6836340427,1489457303.6859259605,       -1.5644531250,        0.0800781250,        0.1235351562,       44.4793701172,       11.9018554688,     -193.6187744141
1489457303.6862111092,1489457303.6884989738,       -1.5644531250,        0.0800781250,        0.1235351562,       44.4793701172,       11.9018554688,     -193.6187744141
1489457303.6887850761,1489457303.6911349297,       -1.3208007812,       -0.1054687500,        0.2211914062,       52.5360107422,        6.8054199219,     -206.5582275391
1489457303.6914179325,1489457303.6937060356,       -1.3208007812,       -0.1054687500,        0.2211914062,       52.5360107422,        6.8054199219,     -206.5582275391
1489457303.6940960884,1489457303.6963829994,       -1.3208007812,       -0.1054687500,        0.2211914062,       60.5621337891,        2.5482177734,     -216.0034179688
1489457303.6966650486,1489457303.6989870071,       -1.3208007812,       -0.1054687500,        0.2211914062,       60.5621337891,        2.5482177734,     -216.0034179688
1489457303.6992709637,1489457303.7015581131,       -0.9282226562,       -0.1640625000,        0.2358398438,       60.4858398438,        1.7547607422,     -221.3897705078
1489457303.7018399239,1489457303.7041289806,       -0.9282226562,       -0.1640625000,        0.2358398438,       60.4858398438,        1.7547607422,     -221.3897705078
1489457303.7044100761,1489457303.7066988945,       -0.9282226562,       -0.1640625000,        0.2358398438,       53.2989501953,        3.3416748047,     -225.5859375000
1489457303.7069818974,1489457303.7093830109,       -0.9282226562,       -0.1640625000,        0.2358398438,       53.2989501953,        3.3416748047,     -225.5859375000
1489457303.7096669674,1489457303.7119579315,       -0.5703125000,        0.0654296875,        0.1250000000,       42.1447753906,        8.4686279297,     -221.5728759766
1489457303.7122418880,1489457303.7145280838,       -0.5703125000,        0.0654296875,        0.1250000000,       42.1447753906,        8.4686279297,     -221.5728759766
1489457303.7148089409,1489457303.7170979977,       -0.5703125000,        0.0654296875,        0.1250000000,       34.3322753906,       15.7775878906,     -201.9500732422
1489457303.7173819542,1489457303.7196791172,       -0.5703125000,        0.0654296875,        0.1250000000,       32.7606201172,       15.7775878906,     -201.9500732422
1489457303.7199649811,1489457303.7222499847,       -0.4116210938,        0.3608398438,        0.0527343750,       32.7606201172,       23.5900878906,     -178.0395507812
1489457303.7225360870,1489457303.7248229980,       -0.4116210938,        0.3608398438,        0.0527343750,       30.3497314453,       23.4527587891,     -178.0395507812
1489457303.7251091003,1489457303.7273960114,       -0.4116210938,        0.3608398438,        0.0527343750,       30.3497314453,       23.4527587891,     -158.9965820312
1489457303.7276809216,1489457303.7300910950,       -0.4116210938,        0.3608398438,       -0.0722656250,       23.4680175781,       28.1372070312,     -158.9965820312
1489457303.7303850651,1489457303.7327969074,       -0.4560546875,        0.4624023438,       -0.0122070312,       23.4680175781,       28.1372070312,     -140.6707763672
1489457303.7330939770,1489457303.7355060577,       -0.4560546875,        0.4624023438,       -0.0122070312,       10.1318359375,       29.9072265625,     -140.6707763672
1489457303.7357990742,1489457303.7382140160,       -0.4560546875,        0.4624023438,       -0.0122070312,       10.1318359375,       29.9072265625,     -117.6757812500
1489457303.7385070324,1489457303.7409400940,       -0.8310546875,        0.6967773438,        0.0161132812,       -3.5858154297,       33.7829589844,     -117.6757812500
1489457303.7412281036,1489457303.7436389923,       -0.7622070312,        0.6967773438,        0.0161132812,       -3.5858154297,       33.7829589844,      -91.6290283203
1489457303.7439270020,1489457303.7463378906,       -0.7622070312,        0.6967773438,        0.0161132812,      -12.7868652344,       40.0390625000,      -91.6290283203
1489457303.7466320992,1489457303.7490570545,       -0.7622070312,        0.6967773438,        0.0161132812,      -12.7868652344,       40.0390625000,      -68.2525634766
1489457303.7493500710,1489457303.7517650127,       -0.6386718750,        0.7739257812,        0.0332031250,      -13.8702392578,       40.2526855469,      -68.2525634766
1489457303.7520580292,1489457303.7544770241,       -0.6386718750,        0.7739257812,        0.0332031250,      -13.8702392578,       40.2526855469,      -48.7213134766
1489457303.7547690868,1489457303.7571880817,       -0.6386718750,        0.7739257812,        0.0332031250,      -10.0555419922,       34.1796875000,      -47.3480224609
1489457303.7575819492,1489457303.7600440979,       -0.6386718750,        0.7739257812,        0.0332031250,      -10.0555419922,       34.1796875000,      -27.7709960938
1489457303.7603380680,1489457303.7627549171,       -0.2729492188,        0.8457031250,        0.2812500000,      -12.4511718750,       22.5067138672,      -27.7709960938
1489457303.7630469799,1489457303.7656140327,       -0.2729492188,        0.8457031250,        0.2812500000,      -12.4511718750,       22.5067138672,      -12.4969482422
1489457303.7659049034,1489457303.7683188915,       -0.2729492188,        0.8457031250,        0.2812500000,      -23.0712890625,       12.7716064453,      -12.4969482422
1489457303.7690649033,1489457303.7713539600,       -0.1997070312,        0.3740234375,       -0.0146484375,      -23.0712890625,        7.5073242188,       -2.5634765625
1489457303.7716369629,1489457303.7739260197,       -0.1997070312,        0.3740234375,       -0.0146484375,      -29.9835205078,        7.5073242188,       -2.5634765625
1489457303.7742040157,1489457303.7764949799,       -0.1997070312,        0.3740234375,       -0.0146484375,      -29.9835205078,        7.5073242188,        6.4544677734
1489457303.7767720222,1489457303.7790839672,       -0.1997070312,        0.3740234375,       -0.0146484375,      -35.2478027344,        2.9449462891,        6.4544677734
1489457303.7793700695,1489457303.7817890644,       -0.2480468750,        0.2006835938,       -0.1103515625,      -35.2478027344,        2.9449462891,       16.9372558594
1489457303.7820799351,1489457303.7844960690,       -0.2480468750,        0.2006835938,       -0.1103515625,      -43.4722900391,       -1.0833740234,       16.9372558594
1489457303.7847850323,1489457303.7871959209,       -0.2480468750,        0.2006835938,       -0.1103515625,      -43.4722900391,       -1.0833740234,       25.1007080078
1489457303.7874839306,1489457303.7899138927,       -0.2480468750,        0.2006835938,       -0.1103515625,      -51.7730712891,       -3.4790039062,       25.1007080078
1489457303.7902059555,1489457303.7926270962,       -0.3076171875,        0.0444335938,       -0.1074218750,      -51.7730712891,       -3.4790039062,       30.4718017578
1489457303.7929170132,1489457303.7953319550,       -0.3076171875,        0.0444335938,       -0.1074218750,      -57.7697753906,       -4.5471191406,       30.4718017578
1489457303.7956221104,1489457303.7980389595,       -0.3076171875,        0.0444335938,       -0.1074218750,      -57.7697753906,       -4.5471191406,       32.7758789062
1489457303.7983279228,1489457303.8006548882,       -0.3076171875,        0.0444335938,       -0.0703125000,      -64.0411376953,       -5.0048828125,       32.7758789062
1489457303.8009369373,1489457303.8032350540,       -0.2167968750,       -0.0258789062,       -0.0703125000,      -64.0411376953,       -5.0048828125,       32.7758789062
1489457303.8035171032,1489457303.8058090210,       -0.2167968750,       -0.0258789062,       -0.0703125000,      -68.8018798828,       -6.1035156250,       33.6456298828
1489457303.8060920238,1489457303.8083798885,       -0.2167968750,       -0.0258789062,       -0.0703125000,      -68.8018798828,       -6.1035156250,       33.6456298828
1489457303.8086628914,1489457303.8109729290,       -0.2167968750,       -0.0258789062,       -0.0527343750,      -70.6329345703,       -7.1105957031,       33.7371826172
1489457303.8112549782,1489457303.8135449886,       -0.1054687500,       -0.0361328125,       -0.0527343750,      -70.6329345703,       -7.1105957031,       33.7371826172
1489457303.8138270378,1489457303.8161129951,       -0.1054687500,       -0.0361328125,       -0.0527343750,      -69.0002441406,       -7.0190429688,       33.6151123047
1489457303.8163959980,1489457303.8186860085,       -0.1054687500,       -0.0361328125,       -0.0527343750,      -69.0002441406,       -7.0190429688,       33.6151123047
1489457303.8190369606,1489457303.8213460445,       -0.1054687500,       -0.0473632812,       -0.0302734375,      -64.1021728516,       -6.2408447266,       33.6761474609
1489457303.8216309547,1489457303.8239219189,       -0.0292968750,       -0.0473632812,       -0.0302734375,      -64.1021728516,       -6.2408447266,       33.6761474609
1489457303.8243091106,1489457303.8266069889,       -0.0292968750,       -0.0473632812,       -0.0302734375,      -56.6406250000,       -5.1116943359,       33.3862304688
1489457303.8268880844,1489457303.8293719292,       -0.0292968750,       -0.0473632812,       -0.0302734375,      -56.6406250000,       -5.1116943359,       33.3862304688
1489457303.8296589851,1489457303.8320789337,       -0.0004882812,       -0.1064453125,       -0.0239257812,      -48.2025146484,       -3.6926269531,       31.3873291016
1489457303.8323700428,1489457303.8347818851,       -0.0004882812,       -0.1064453125,       -0.0239257812,      -48.2025146484,       -3.6926269531,       31.3873291016
1489457303.8350710869,1489457303.8374879360,       -0.0004882812,       -0.1064453125,       -0.0239257812,      -38.8488769531,       -3.0975341797,       28.0761718750
1489457303.8377780914,1489457303.8402400017,       -0.0004882812,       -0.1064453125,       -0.0239257812,      -38.8488769531,       -3.0975341797,       28.0761718750
1489457303.8405289650,1489457303.8429450989,       -0.0156250000,       -0.1879882812,       -0.0966796875,      -30.5328369141,       -2.7618408203,       23.1170654297
1489457303.8432350159,1489457303.8456439972,       -0.0156250000,       -0.1879882812,       -0.0966796875,      -30.5328369141,       -2.7618408203,       23.1170654297
1489457303.8459339142,1489457303.8483550549,       -0.0156250000,       -0.1879882812,       -0.0966796875,      -25.2075195312,       -1.5869140625,       16.9067382812
1489457303.8486449718,1489457303.8510758877,       -0.0156250000,       -0.1879882812,       -0.2216796875,      -25.2075195312,       -1.5869140625,       16.9067382812
1489457303.8513650894,1489457303.8537819386,       -0.0571289062,       -0.2739257812,       -0.1630859375,      -22.2625732422,        0.3814697266,       10.4522705078
1489457303.8540720940,1489457303.8564860821,       -0.0571289062,       -0.2739257812,       -0.1630859375,      -22.2625732422,        0.3814697266,       10.4522705078
1489457303.8567750454,1489457303.8592150211,       -0.0571289062,       -0.2739257812,       -0.1630859375,      -21.1181640625,        2.1514892578,        3.7994384766
1489457303.8594939709,1489457303.8617830276,       -0.0571289062,       -0.3037109375,       -0.1704101562,      -21.1181640625,        2.1514892578,        3.7994384766
1489457303.8620619774,1489457303.8643519878,       -0.0136718750,       -0.3037109375,       -0.1704101562,      -20.9808349609,        3.6926269531,       -2.3956298828
1489457303.8646318913,1489457303.8669219017,       -0.0136718750,       -0.3037109375,       -0.1704101562,      -20.9808349609,        3.6926269531,       -2.3956298828
1489457303.8671998978,1489457303.8695960045,       -0.0136718750,       -0.3037109375,       -0.1704101562,      -17.0745849609,        5.2185058594,       -8.8806152344
1489457303.8698759079,1489457303.8721671104,        0.1113281250,       -0.2353515625,       -0.1367187500,      -18.6614990234,        5.2185058594,       -8.8806152344
1489457303.8724470139,1489457303.8747398853,        0.0317382812,       -0.2353515625,       -0.1367187500,      -18.6614990234,        6.4544677734,      -15.7470703125
1489457303.8750219345,1489457303.8773109913,        0.0317382812,       -0.2353515625,       -0.1367187500,      -13.3361816406,        6.4544677734,      -15.7470703125
1489457303.8775920868,1489457303.8800311089,        0.0317382812,       -0.2353515625,       -0.1367187500,      -13.3361816406,        6.4544677734,      -22.1557617188
1489457303.8803191185,1489457303.8827009201,        0.0566406250,       -0.1264648438,       -0.1035156250,       -6.4392089844,        6.8206787109,      -22.1557617188
1489457303.8829839230,1489457303.8855130672,        0.0566406250,       -0.1264648438,       -0.1035156250,       -6.4392089844,        6.8206787109,      -27.4810791016
1489457303.8858020306,1489457303.8882050514,        0.0566406250,       -0.1264648438,       -0.1035156250,        2.3956298828,        7.4157714844,      -27.4810791016
1489457303.8890440464,1489457303.8914649487,        0.0566406250,       -0.1264648438,       -0.1035156250,       13.4277343750,        7.2174072266,      -32.2113037109
1489457303.8917579651,1489457303.8941769600,        0.0292968750,       -0.0136718750,       -0.0566406250,       13.4277343750,        7.2174072266,      -32.2113037109
1489457303.8944671154,1489457303.8968820572,        0.0292968750,       -0.0136718750,       -0.0566406250,       25.2380371094,        6.2103271484,      -36.7584228516
1489457303.8971691132,1489457303.8996329308,        0.0292968750,       -0.0136718750,       -0.0566406250,       25.2380371094,        6.2103271484,      -36.7584228516
1489457303.8999209404,1489457303.9023349285,        0.0292968750,        0.0854492188,       -0.0522460938,       36.7279052734,        5.8898925781,      -41.2902832031
1489457303.9026219845,1489457303.9050419331,       -0.0161132812,        0.0854492188,       -0.0522460938,       36.7279052734,        5.8898925781,      -41.2902832031
