time_stamp before, time_stamp after, Acceleration x, Acceleration y, Acceleration z, Gyro x, Gyro y, Gyro z
1489456822.0211479664,1489456822.0326640606,       -0.7397460938,        0.0629882812,        0.0581054688,       -0.0305175781,        0.4119873047,       -0.2593994141
1489456822.0329670906,1489456822.0357201099,       -0.7397460938,        0.0629882812,        0.0581054688,       -0.0305175781,        0.2593994141,       -0.2288818359
1489456822.0360190868,1489456822.0383019447,       -0.7397460938,        0.0629882812,        0.0419921875,       -0.0305175781,        0.2593994141,       -0.2288818359
1489456822.0385739803,1489456822.0408740044,       -0.7255859375,        0.0678710938,        0.0419921875,       -0.0610351562,        0.4272460938,       -0.1678466797
1489456822.0411469936,1489456822.0434269905,       -0.7255859375,        0.0678710938,        0.0419921875,       -0.0610351562,        0.4272460938,       -0.1678466797
1489456822.0436990261,1489456822.0459830761,       -0.7255859375,        0.0678710938,        0.0419921875,        0.1373291016,        0.2288818359,        0.1831054688
1489456822.0462539196,1489456822.0485479832,       -0.7255859375,        0.0678710938,        0.0488281250,        0.1373291016,        0.2288818359,        0.1831054688
1489456822.0488491058,1489456822.0511360168,       -0.7319335938,        0.0644531250,        0.0488281250,       -0.0152587891,        0.0152587891,        0.1525878906
1489456822.0514059067,1489456822.0536870956,       -0.7319335938,        0.0644531250,        0.0488281250,       -0.0152587891,        0.0152587891,        0.1525878906
1489456822.0539579391,1489456822.0562460423,       -0.7319335938,        0.0644531250,        0.0488281250,       -0.0152587891,        0.1678466797,       -0.2746582031
1489456822.0565180779,1489456822.0588400364,       -0.7319335938,        0.0644531250,        0.0419921875,       -0.3356933594,        0.1678466797,       -0.2746582031
1489456822.0591111183,1489456822.0613999367,       -0.7368164062,        0.0659179688,        0.0419921875,       -0.3356933594,        0.1678466797,       -0.5035400391
1489456822.0616719723,1489456822.0639550686,       -0.7368164062,        0.0659179688,        0.0419921875,       -0.2441406250,        0.2136230469,       -0.5035400391
1489456822.0642271042,1489456822.0665071011,       -0.7368164062,        0.0659179688,        0.0419921875,       -0.2441406250,        0.2136230469,       -0.4882812500
1489456822.0667800903,1489456822.0693540573,       -0.7368164062,        0.0678710938,        0.0556640625,        0.3662109375,       -0.0457763672,       -0.4882812500
1489456822.0696289539,1489456822.0719120502,       -0.7348632812,        0.0678710938,        0.0556640625,        0.3662109375,       -0.0457763672,       -0.1373291016
1489456822.0721850395,1489456822.0744700432,       -0.7348632812,        0.0678710938,        0.0556640625,        0.0610351562,        0.1831054688,       -0.1373291016
1489456822.0747430325,1489456822.0770380497,       -0.7348632812,        0.0678710938,        0.0556640625,        0.0610351562,        0.1831054688,       -0.1373291016
1489456822.0773110390,1489456822.0797960758,       -0.7348632812,        0.0703125000,        0.0434570312,       -0.1373291016,        0.0152587891,        0.0762939453
1489456822.0800709724,1489456822.0823659897,       -0.7290039062,        0.0703125000,        0.0434570312,       -0.1373291016,        0.0152587891,        0.0762939453
1489456822.0826408863,1489456822.0849270821,       -0.7290039062,        0.0703125000,        0.0434570312,        0.1831054688,       -0.1220703125,       -0.1678466797
1489456822.0852019787,1489456822.0874900818,       -0.7290039062,        0.0703125000,        0.0434570312,        0.1831054688,       -0.1220703125,       -0.1678466797
1489456822.0877649784,1489456822.0900640488,       -0.7348632812,        0.0634765625,        0.0463867188,        0.4425048828,        0.2899169922,       -0.1678466797
1489456822.0903379917,1489456822.0926280022,       -0.7348632812,        0.0634765625,        0.0463867188,        0.4425048828,        0.2899169922,       -0.1678466797
1489456822.0930619240,1489456822.0953469276,       -0.7348632812,        0.0634765625,        0.0463867188,        0.6103515625,        0.2746582031,       -0.3814697266
1489456822.0956239700,1489456822.0979158878,       -0.7348632812,        0.0634765625,        0.0463867188,        0.6103515625,        0.2746582031,       -0.3814697266
1489456822.0981879234,1489456822.1004838943,       -0.7280273438,        0.0629882812,        0.0449218750,        0.7324218750,       -0.3509521484,       -0.7019042969
1489456822.1007590294,1489456822.1030569077,       -0.7280273438,        0.0629882812,        0.0449218750,        0.7324218750,       -0.3509521484,       -0.7019042969
1489456822.1033320427,1489456822.1056189537,       -0.7280273438,        0.0629882812,        0.0449218750,        0.1983642578,       -0.0305175781,       -0.5340576172
1489456822.1058940887,1489456822.1081809998,       -0.7280273438,        0.0629882812,        0.0449218750,        0.1983642578,       -0.0305175781,       -0.5340576172
1489456822.1084549427,1489456822.1107840538,       -0.7392578125,        0.0615234375,        0.0502929688,        0.7019042969,       -0.1678466797,       -0.2899169922
1489456822.1110570431,1489456822.1133470535,       -0.7392578125,        0.0615234375,        0.0502929688,        0.7019042969,       -0.1678466797,       -0.2899169922
1489456822.1136209965,1489456822.1159100533,       -0.7392578125,        0.0615234375,        0.0502929688,        0.7019042969,       -0.3204345703,       -0.3204345703
1489456822.1161830425,1489456822.1184809208,       -0.7392578125,        0.0615234375,        0.0502929688,        0.5493164062,       -0.3204345703,       -0.3204345703
1489456822.1187551022,1489456822.1210498810,       -0.7348632812,        0.0649414062,        0.0380859375,        0.5493164062,       -0.3204345703,       -0.3356933594
1489456822.1213269234,1489456822.1236169338,       -0.7348632812,        0.0649414062,        0.0380859375,        0.4272460938,       -0.1373291016,       -0.3356933594
1489456822.1238920689,1489456822.1262569427,       -0.7348632812,        0.0649414062,        0.0380859375,        0.4272460938,       -0.1373291016,       -0.1831054688
1489456822.1265330315,1489456822.1288599968,       -0.7348632812,        0.0649414062,        0.0380859375,        0.0000000000,       -0.0457763672,       -0.1831054688
1489456822.1291720867,1489456822.1314740181,       -0.7368164062,        0.0654296875,        0.0429687500,        0.0000000000,       -0.0457763672,       -0.1831054688
1489456822.1317529678,1489456822.1340370178,       -0.7368164062,        0.0654296875,        0.0429687500,       -0.4730224609,       -0.1220703125,       -0.2441406250
1489456822.1343269348,1489456822.1367518902,       -0.7368164062,        0.0654296875,        0.0429687500,       -0.4730224609,       -0.1220703125,       -0.2441406250
1489456822.1370289326,1489456822.1400868893,       -0.7368164062,        0.0654296875,        0.0429687500,       -0.1068115234,       -0.0610351562,       -0.3814697266
1489456822.1403639317,1489456822.1426560879,       -0.7275390625,        0.0644531250,        0.0473632812,       -0.1068115234,       -0.0610351562,       -0.3051757812
1489456822.1429300308,1489456822.1452229023,       -0.7275390625,        0.0644531250,        0.0473632812,       -0.2136230469,       -0.2136230469,       -0.3051757812
1489456822.1454980373,1489456822.1477808952,       -0.7275390625,        0.0644531250,        0.0473632812,       -0.2136230469,       -0.2136230469,       -0.3051757812
1489456822.1480550766,1489456822.1503949165,       -0.7329101562,        0.0615234375,        0.0449218750,       -0.1525878906,       -0.1068115234,       -0.3509521484
1489456822.1506710052,1489456822.1529510021,       -0.7329101562,        0.0615234375,        0.0449218750,       -0.1525878906,       -0.1068115234,       -0.3509521484
1489456822.1532270908,1489456822.1555109024,       -0.7329101562,        0.0615234375,        0.0449218750,       -0.1373291016,        0.2288818359,       -0.4882812500
1489456822.1558969021,1489456822.1581890583,       -0.7329101562,        0.0615234375,        0.0449218750,       -0.1373291016,        0.2288818359,       -0.4882812500
1489456822.1584639549,1489456822.1607799530,       -0.7304687500,        0.0654296875,        0.0483398438,       -0.0152587891,        0.1983642578,       -0.2746582031
1489456822.1610550880,1489456822.1633388996,       -0.7304687500,        0.0654296875,        0.0483398438,       -0.0152587891,        0.1983642578,       -0.2746582031
1489456822.1636130810,1489456822.1659109592,       -0.7304687500,        0.0654296875,        0.0483398438,       -0.1068115234,        0.0305175781,       -0.2136230469
1489456822.1661849022,1489456822.1684699059,       -0.7304687500,        0.0654296875,        0.0483398438,       -0.1068115234,        0.0305175781,       -0.2136230469
1489456822.1687450409,1489456822.1710400581,       -0.7304687500,        0.0620117188,        0.0468750000,        0.0305175781,        0.0610351562,       -0.4119873047
1489456822.1713140011,1489456822.1735959053,       -0.7304687500,        0.0620117188,        0.0468750000,        0.0305175781,        0.0610351562,       -0.4119873047
1489456822.1738700867,1489456822.1761629581,       -0.7304687500,        0.0620117188,        0.0468750000,       -0.2288818359,       -0.2899169922,       -0.4119873047
1489456822.1764380932,1489456822.1787340641,       -0.7304687500,        0.0620117188,        0.0468750000,       -0.2288818359,       -0.2899169922,       -0.4119873047
1489456822.1790809631,1489456822.1813709736,       -0.7280273438,        0.0644531250,        0.0527343750,        3.6773681641,       -0.3967285156,       -0.2746582031
1489456822.1816461086,1489456822.1839408875,       -0.7280273438,        0.0644531250,        0.0527343750,        0.1220703125,       -0.3967285156,       -0.2746582031
1489456822.1842169762,1489456822.1865119934,       -0.7280273438,        0.0644531250,        0.0527343750,        0.1220703125,       -0.3967285156,       -0.0762939453
1489456822.1867880821,1489456822.1891748905,       -0.7280273438,        0.0644531250,        0.0527343750,        0.3356933594,       -0.4577636719,       -0.0762939453
1489456822.1894519329,1489456822.1917500496,       -0.7314453125,        0.0620117188,        0.0415039062,        0.3356933594,       -0.4577636719,       -0.3662109375
1489456822.1920249462,1489456822.1943171024,       -0.7314453125,        0.0620117188,        0.0415039062,        0.4882812500,       -0.5187988281,       -0.3662109375
1489456822.1945919991,1489456822.1968860626,       -0.7314453125,        0.0620117188,        0.0415039062,        0.4882812500,       -0.5187988281,       -0.3662109375
1489456822.1971600056,1489456822.1999690533,       -0.7314453125,        0.0620117188,        0.0415039062,        0.7019042969,       -0.5950927734,       -0.4119873047
1489456822.2002620697,1489456822.2036669254,       -0.7319335938,        0.0610351562,        0.0473632812,       -3.2043457031,       -0.4882812500,       -0.2746582031
1489456822.2039620876,1489456822.2070341110,       -0.7319335938,        0.0610351562,        0.0473632812,       -0.1220703125,       -0.4882812500,       -0.2746582031
1489456822.2073409557,1489456822.2097189426,       -0.7319335938,        0.0610351562,        0.0473632812,       -0.8239746094,        0.1373291016,       -0.2288818359
1489456822.2099940777,1489456822.2122840881,       -0.7324218750,        0.0620117188,        0.0434570312,       -0.8239746094,        0.1373291016,       -0.2288818359
1489456822.2125589848,1489456822.2148530483,       -0.7324218750,        0.0620117188,        0.0434570312,       -0.8544921875,        0.1525878906,       -0.2136230469
1489456822.2151269913,1489456822.2174179554,       -0.7324218750,        0.0620117188,        0.0434570312,       -0.8544921875,        0.1525878906,       -0.2136230469
1489456822.2176940441,1489456822.2200880051,       -0.7324218750,        0.0620117188,        0.0434570312,       -0.7171630859,       -0.1220703125,       -0.2899169922
1489456822.2205240726,1489456822.2229459286,       -0.7368164062,        0.0678710938,        0.0439453125,       -0.7171630859,       -0.1220703125,       -0.2899169922
1489456822.2232279778,1489456822.2256450653,       -0.7368164062,        0.0678710938,        0.0439453125,       -0.3967285156,        0.0152587891,       -0.4577636719
1489456822.2259259224,1489456822.2283449173,       -0.7368164062,        0.0678710938,        0.0439453125,       -0.3967285156,        0.0152587891,       -0.4577636719
1489456822.2286269665,1489456822.2309429646,       -0.7368164062,        0.0673828125,        0.0507812500,       -0.1678466797,       -0.2441406250,       -0.6408691406
1489456822.2312180996,1489456822.2335090637,       -0.7329101562,        0.0673828125,        0.0507812500,       -0.1678466797,       -0.2441406250,       -0.6408691406
1489456822.2337849140,1489456822.2360789776,       -0.7329101562,        0.0673828125,        0.0507812500,       -0.2593994141,        0.3051757812,       -0.6256103516
1489456822.2363550663,1489456822.2386450768,       -0.7329101562,        0.0673828125,        0.0507812500,       -0.2593994141,        0.3051757812,       -0.6256103516
1489456822.2390320301,1489456822.2413320541,       -0.7319335938,        0.0664062500,        0.0415039062,       -0.2593994141,       -0.3204345703,       -0.4119873047
1489456822.2416100502,1489456822.2439129353,       -0.7319335938,        0.0664062500,        0.0415039062,       -0.2593994141,       -0.3204345703,       -0.4119873047
1489456822.2441890240,1489456822.2464799881,       -0.7319335938,        0.0664062500,        0.0415039062,       -0.2593994141,       -0.1525878906,       -0.5645751953
1489456822.2467539310,1489456822.2491080761,       -0.7319335938,        0.0664062500,        0.0415039062,        0.4272460938,       -0.1525878906,       -0.5645751953
1489456822.2493898869,1489456822.2518138885,       -0.7377929688,        0.0644531250,        0.0571289062,        0.4272460938,        3.7536621094,       -0.2746582031
1489456822.2520968914,1489456822.2545089722,       -0.7377929688,        0.0644531250,        0.0571289062,       -0.2136230469,        0.2593994141,       -0.2746582031
1489456822.2548398972,1489456822.2573609352,       -0.7377929688,        0.0644531250,        0.0571289062,       -0.2136230469,        0.2593994141,       -0.3814697266
1489456822.2576448917,1489456822.2600109577,       -0.7377929688,        0.0644531250,        0.0571289062,       -0.3356933594,        0.0457763672,       -0.3814697266
1489456822.2602860928,1489456822.2625739574,       -0.7319335938,        0.0644531250,        0.0361328125,       -0.3356933594,        0.0457763672,       -0.9918212891
1489456822.2628479004,1489456822.2651429176,       -0.7319335938,        0.0644531250,        0.0361328125,        0.4119873047,        0.0000000000,       -0.9918212891
1489456822.2654159069,1489456822.2677059174,       -0.7319335938,        0.0644531250,        0.0361328125,        0.4119873047,        0.0000000000,       -0.9918212891
1489456822.2679800987,1489456822.2703590393,       -0.7319335938,        0.0644531250,        0.0361328125,        0.2593994141,       -0.1068115234,       -0.6713867188
1489456822.2706420422,1489456822.2730600834,       -0.7314453125,        0.0654296875,        0.0522460938,        0.2593994141,       -0.1068115234,       -0.6713867188
1489456822.2733418941,1489456822.2757558823,       -0.7314453125,        0.0654296875,        0.0522460938,        0.3204345703,       -0.1678466797,       -0.8850097656
1489456822.2760400772,1489456822.2784531116,       -0.7314453125,        0.0654296875,        0.0522460938,        0.3204345703,       -0.1678466797,       -0.8850097656
1489456822.2787339687,1489456822.2811551094,       -0.7314453125,        0.0654296875,        0.0468750000,        0.0762939453,       -0.2136230469,       -0.6561279297
1489456822.2814369202,1489456822.2838530540,       -0.7294921875,        0.0644531250,        0.0468750000,        0.0762939453,       -0.2136230469,       -0.6561279297
1489456822.2842419147,1489456822.2866609097,       -0.7294921875,        0.0644531250,        0.0468750000,       -0.2288818359,        0.2288818359,       -0.6866455078
1489456822.2869429588,1489456822.2893300056,       -0.7294921875,        0.0644531250,        0.0468750000,       -0.2288818359,        0.2288818359,       -0.6866455078
1489456822.2896039486,1489456822.2918910980,       -0.7275390625,        0.0654296875,        0.0434570312,       -0.0152587891,        0.4577636719,       -0.7781982422
1489456822.2921669483,1489456822.2944540977,       -0.7275390625,        0.0654296875,        0.0434570312,       -0.0152587891,        0.4577636719,       -0.7781982422
1489456822.2947289944,1489456822.2970170975,       -0.7275390625,        0.0654296875,        0.0434570312,        0.0457763672,        0.0305175781,       -0.7629394531
1489456822.2972910404,1489456822.2997319698,       -0.7275390625,        0.0654296875,        0.0434570312,        0.0457763672,        0.0305175781,       -0.7629394531
1489456822.3000080585,1489456822.3023040295,       -0.7329101562,        0.0634765625,        0.0449218750,       -0.2136230469,       -0.1068115234,       -0.8544921875
1489456822.3025779724,1489456822.3048670292,       -0.7329101562,        0.0634765625,        0.0449218750,       -0.2136230469,       -0.1068115234,       -0.8544921875
1489456822.3051419258,1489456822.3074319363,       -0.7329101562,        0.0634765625,        0.0449218750,       -0.1678466797,       -0.2899169922,       -0.9765625000
1489456822.3077061176,1489456822.3101201057,       -0.7329101562,        0.0634765625,        0.0449218750,       -0.1678466797,       -0.2899169922,       -0.9765625000
1489456822.3103950024,1489456822.3126840591,       -0.7343750000,        0.0610351562,        0.0483398438,        0.1068115234,       -0.1373291016,       -1.1444091797
1489456822.3129589558,1489456822.3152520657,       -0.7343750000,        0.0610351562,        0.0483398438,        0.1068115234,       -0.1373291016,       -1.1444091797
1489456822.3155279160,1489456822.3178169727,       -0.7343750000,        0.0610351562,        0.0483398438,       -0.0305175781,       -0.2288818359,       -1.2512207031
1489456822.3180909157,1489456822.3204889297,       -0.7343750000,        0.0610351562,        0.0483398438,       -0.0305175781,       -0.2288818359,       -1.2512207031
1489456822.3207709789,1489456822.3231830597,       -0.7333984375,        0.0668945312,        0.0498046875,       -0.2441406250,       -0.1678466797,       -1.0528564453
1489456822.3234629631,1489456822.3258869648,       -0.7333984375,        0.0668945312,        0.0498046875,       -0.2441406250,       -0.1678466797,       -1.0528564453
1489456822.3261630535,1489456822.3284609318,       -0.7333984375,        0.0668945312,        0.0498046875,       -0.2899169922,        0.0915527344,       -0.7781982422
1489456822.3287339211,1489456822.3311550617,       -0.7333984375,        0.0668945312,        0.0498046875,       -0.2899169922,        0.0915527344,       -0.7781982422
1489456822.3314359188,1489456822.3338201046,       -0.7338867188,        0.0625000000,        0.0517578125,       -0.2899169922,        0.3662109375,       -0.9460449219
1489456822.3341860771,1489456822.3365719318,       -0.7338867188,        0.0625000000,        0.0517578125,       -0.1678466797,        0.3662109375,       -0.9460449219
1489456822.3368539810,1489456822.3393559456,       -0.7338867188,        0.0625000000,        0.0517578125,       -0.1678466797,       -0.1983642578,       -1.2817382812
1489456822.3396320343,1489456822.3419239521,       -0.7338867188,        0.0654296875,        0.0415039062,       -0.1983642578,       -0.1983642578,       -1.2817382812
1489456822.3421990871,1489456822.3444859982,       -0.7314453125,        0.0654296875,        0.0415039062,       -0.1983642578,       -0.0457763672,       -0.9307861328
1489456822.3447608948,1489456822.3470480442,       -0.7314453125,        0.0654296875,        0.0415039062,       -0.2593994141,       -0.0457763672,       -0.9307861328
1489456822.3474280834,1489456822.3497250080,       -0.7314453125,        0.0654296875,        0.0415039062,       -0.2593994141,       -0.0457763672,       -0.7934570312
1489456822.3499999046,1489456822.3522911072,       -0.7314453125,        0.0581054688,        0.0620117188,       -0.3356933594,       -0.0457763672,       -0.7934570312
1489456822.3525650501,1489456822.3548560143,       -0.7343750000,        0.0581054688,        0.0620117188,       -0.3356933594,       -0.0457763672,       -0.8850097656
1489456822.3551290035,1489456822.3574159145,       -0.7343750000,        0.0581054688,        0.0620117188,       -0.3967285156,       -0.0457763672,       -0.8850097656
1489456822.3576889038,1489456822.3600211143,       -0.7343750000,        0.0581054688,        0.0620117188,       -0.3967285156,       -0.0457763672,       -0.8850097656
1489456822.3602960110,1489456822.3625879288,       -0.7319335938,        0.0610351562,        0.0400390625,       -0.6256103516,        0.0610351562,       -0.9460449219
1489456822.3628640175,1489456822.3651499748,       -0.7319335938,        0.0610351562,        0.0400390625,       -0.6256103516,        0.0610351562,       -0.9460449219
1489456822.3654251099,1489456822.3677101135,       -0.7319335938,        0.0610351562,        0.0400390625,        0.0000000000,       -0.1831054688,       -0.9765625000
1489456822.3679850101,1489456822.3702859879,       -0.7319335938,        0.0610351562,        0.0400390625,        0.0000000000,       -0.1831054688,       -0.9765625000
1489456822.3705599308,1489456822.3728480339,       -0.7373046875,        0.0620117188,        0.0478515625,        0.0000000000,       -0.2288818359,       -0.6256103516
1489456822.3731229305,1489456822.3754100800,       -0.7373046875,        0.0620117188,        0.0478515625,        0.0000000000,       -0.2288818359,       -0.6256103516
1489456822.3756849766,1489456822.3779759407,       -0.7373046875,        0.0620117188,        0.0478515625,       -0.6561279297,       -0.0305175781,       -0.5798339844
1489456822.3782510757,1489456822.3805849552,       -0.7373046875,        0.0620117188,        0.0478515625,       -0.6561279297,       -0.0305175781,       -0.5798339844
1489456822.3808610439,1489456822.3831489086,       -0.7304687500,        0.0532226562,        0.0498046875,       -0.7476806641,        0.1220703125,       -0.5645751953
1489456822.3834259510,1489456822.3857090473,       -0.7304687500,        0.0532226562,        0.0498046875,       -0.7476806641,        0.1220703125,       -0.5645751953
1489456822.3859829903,1489456822.3882699013,       -0.7304687500,        0.0532226562,        0.0498046875,       -0.7476806641,        0.1831054688,       -0.7934570312
1489456822.3885450363,1489456822.3909759521,       -0.7304687500,        0.0532226562,        0.0498046875,       -0.1678466797,        0.1831054688,       -0.7934570312
1489456822.3912529945,1489456822.3935399055,       -0.7368164062,        0.0576171875,        0.0454101562,       -0.1678466797,       -0.1678466797,       -1.0833740234
1489456822.3938140869,1489456822.3961150646,       -0.7368164062,        0.0576171875,        0.0454101562,       -0.2899169922,       -0.1678466797,       -1.0833740234
1489456822.3963899612,1489456822.3986830711,       -0.7368164062,        0.0576171875,        0.0454101562,       -0.2899169922,       -0.1678466797,       -0.7476806641
1489456822.3990700245,1489456822.4015030861,       -0.7368164062,        0.0576171875,        0.0454101562,       -0.3356933594,       -0.2441406250,       -0.7476806641
1489456822.4017860889,1489456822.4042079449,       -0.7309570312,        0.0625000000,        0.0302734375,       -0.3356933594,       -0.2441406250,       -0.5340576172
1489456822.4044899940,1489456822.4069039822,       -0.7309570312,        0.0625000000,        0.0302734375,       -0.5187988281,       -0.0610351562,       -0.5340576172
1489456822.4071860313,1489456822.4096050262,       -0.7309570312,        0.0625000000,        0.0302734375,       -0.5187988281,       -0.0610351562,       -0.9002685547
1489456822.4099791050,1489456822.4122719765,       -0.7309570312,        0.0625000000,        0.0463867188,       -0.6561279297,       -0.1983642578,       -0.9002685547
1489456822.4125459194,1489456822.4148359299,       -0.7290039062,        0.0639648438,        0.0463867188,       -0.6561279297,       -0.1983642578,       -0.9155273438
1489456822.4151110649,1489456822.4174098969,       -0.7290039062,        0.0639648438,        0.0463867188,        0.0000000000,       -0.2593994141,       -0.9155273438
1489456822.4176850319,1489456822.4200799465,       -0.7290039062,        0.0639648438,        0.0463867188,        0.0000000000,       -0.2593994141,       -0.9155273438
1489456822.4203619957,1489456822.4227800369,       -0.7290039062,        0.0532226562,        0.0478515625,        0.2288818359,       -0.3204345703,       -0.7629394531
1489456822.4230599403,1489456822.4254798889,       -0.7387695312,        0.0532226562,        0.0478515625,        0.2288818359,       -0.3204345703,       -0.7629394531
1489456822.4257600307,1489456822.4283549786,       -0.7387695312,        0.0532226562,        0.0478515625,       -0.1373291016,       -0.0762939453,       -0.5798339844
1489456822.4286320210,1489456822.4311809540,       -0.7387695312,        0.0532226562,        0.0478515625,       -0.1373291016,       -0.0762939453,       -0.7171630859
1489456822.4314620495,1489456822.4338459969,       -0.7290039062,        0.0654296875,        0.0375976562,       -0.4577636719,       -0.0762939453,       -0.7171630859
1489456822.4346859455,1489456822.4369769096,       -0.7290039062,        0.0654296875,        0.0375976562,       -0.4577636719,        0.3356933594,       -0.3967285156
1489456822.4372520447,1489456822.4396240711,       -0.7290039062,        0.0654296875,        0.0375976562,       -0.1373291016,        0.3356933594,       -0.3967285156
1489456822.4398989677,1489456822.4421830177,       -0.7290039062,        0.0654296875,        0.0375976562,       -0.1373291016,        0.3356933594,       -0.5340576172
1489456822.4424569607,1489456822.4447410107,       -0.7250976562,        0.0625000000,        0.0458984375,        0.0915527344,       -0.0762939453,       -0.5340576172
1489456822.4450170994,1489456822.4473059177,       -0.7250976562,        0.0625000000,        0.0458984375,        0.0915527344,       -0.0762939453,       -0.5340576172
1489456822.4475800991,1489456822.4498701096,       -0.7250976562,        0.0625000000,        0.0458984375,       -0.6561279297,        0.2746582031,       -0.4882812500
1489456822.4501450062,1489456822.4524369240,       -0.7250976562,        0.0625000000,        0.0458984375,       -0.6561279297,        0.2746582031,       -0.4882812500
1489456822.4527111053,1489456822.4550011158,       -0.7338867188,        0.0654296875,        0.0458984375,       -0.5493164062,       -0.0152587891,       -0.3509521484
1489456822.4552760124,1489456822.4575591087,       -0.7338867188,        0.0654296875,        0.0458984375,       -0.5493164062,       -0.0152587891,       -0.3509521484
1489456822.4578349590,1489456822.4601769447,       -0.7338867188,        0.0654296875,        0.0458984375,       -0.5645751953,       -0.2899169922,       -0.6256103516
1489456822.4604520798,1489456822.4627370834,       -0.7338867188,        0.0654296875,        0.0483398438,       -0.5645751953,       -0.2899169922,       -0.6256103516
1489456822.4630110264,1489456822.4653000832,       -0.7314453125,        0.0532226562,        0.0483398438,       -0.5187988281,       -0.1983642578,       -0.4882812500
1489456822.4655740261,1489456822.4678630829,       -0.7314453125,        0.0532226562,        0.0483398438,       -0.5187988281,       -0.1983642578,       -0.4882812500
1489456822.4681360722,1489456822.4704298973,       -0.7314453125,        0.0532226562,        0.0483398438,        0.0762939453,       -0.3204345703,       -0.7019042969
1489456822.4707050323,1489456822.4729928970,       -0.7314453125,        0.0532226562,        0.0463867188,        0.0762939453,       -0.3204345703,       -0.7019042969
1489456822.4732670784,1489456822.4755499363,       -0.7377929688,        0.0581054688,        0.0463867188,        0.0305175781,       -0.3814697266,       -0.4730224609
1489456822.4759290218,1489456822.4782249928,       -0.7377929688,        0.0581054688,        0.0463867188,        0.0305175781,       -0.3814697266,       -0.4730224609
1489456822.4784989357,1489456822.4808890820,       -0.7377929688,        0.0581054688,        0.0463867188,       -0.1525878906,        0.0000000000,       -0.5340576172
1489456822.4811649323,1489456822.4834599495,       -0.7377929688,        0.0639648438,        0.0390625000,       -0.1525878906,        0.0000000000,       -0.5340576172
1489456822.4837360382,1489456822.4860310555,       -0.7309570312,        0.0639648438,        0.0390625000,       -0.1525878906,       -0.5798339844,       -0.5950927734
1489456822.4863049984,1489456822.4885981083,       -0.7309570312,        0.0639648438,        0.0390625000,       -0.0152587891,       -0.5798339844,       -0.5950927734
1489456822.4889678955,1489456822.4913840294,       -0.7309570312,        0.0639648438,        0.0390625000,       -0.0152587891,       -0.5798339844,       -0.6866455078
1489456822.4916670322,1489456822.4940819740,       -0.7333984375,        0.0610351562,        0.0468750000,        0.2136230469,       -0.5187988281,       -0.6866455078
1489456822.4943640232,1489456822.4967770576,       -0.7333984375,        0.0610351562,        0.0468750000,        0.2136230469,       -0.5187988281,       -0.8239746094
1489456822.4970591068,1489456822.4994890690,       -0.7333984375,        0.0610351562,        0.0468750000,       -0.2288818359,       -0.0152587891,       -0.8239746094
1489456822.4997720718,1489456822.5021889210,       -0.7333984375,        0.0610351562,        0.0468750000,       -0.2288818359,        3.8909912109,       -0.6561279297
1489456822.5024700165,1489456822.5048859119,       -0.7309570312,        0.0590820312,        0.0512695312,       -0.4425048828,        0.0457763672,       -0.6561279297
1489456822.5051679611,1489456822.5075829029,       -0.7309570312,        0.0590820312,        0.0512695312,       -0.4425048828,       -3.8604736328,       -0.3967285156
1489456822.5078639984,1489456822.5102200508,       -0.7309570312,        0.0590820312,        0.0512695312,       -0.3662109375,       -0.2899169922,       -0.3967285156
1489456822.5104939938,1489456822.5127849579,       -0.7309570312,        0.0590820312,        0.0512695312,       -0.3662109375,       -0.2899169922,       -0.2136230469
1489456822.5130579472,1489456822.5153529644,       -0.7343750000,        0.0620117188,        0.0410156250,        0.4577636719,       -0.3051757812,       -0.2136230469
1489456822.5156280994,1489456822.5179181099,       -0.7343750000,        0.0620117188,        0.0410156250,        0.4577636719,       -0.3051757812,       -0.2136230469
1489456822.5181930065,1489456822.5204930305,       -0.7343750000,        0.0620117188,        0.0410156250,        0.0915527344,       -0.3204345703,       -0.2288818359
1489456822.5207660198,1489456822.5230569839,       -0.7343750000,        0.0620117188,        0.0410156250,        0.0915527344,       -0.3204345703,       -0.2288818359
1489456822.5233309269,1489456822.5256230831,       -0.7353515625,        0.0644531250,        0.0419921875,       -0.3509521484,        0.0305175781,       -0.4425048828
1489456822.5258960724,1489456822.5281898975,       -0.7353515625,        0.0644531250,        0.0419921875,       -0.3509521484,        0.0305175781,       -0.4425048828
1489456822.5284628868,1489456822.5308969021,       -0.7353515625,        0.0644531250,        0.0419921875,        0.0000000000,       -0.1831054688,       -0.5493164062
1489456822.5311810970,1489456822.5335969925,       -0.7353515625,        0.0644531250,        0.0351562500,        0.0000000000,       -0.1831054688,       -0.5493164062
1489456822.5338790417,1489456822.5362920761,       -0.7324218750,        0.0571289062,        0.0351562500,        0.0000000000,       -0.7476806641,       -0.7781982422
1489456822.5365738869,1489456822.5390288830,       -0.7324218750,        0.0571289062,        0.0351562500,        0.0000000000,       -0.7476806641,       -0.7781982422
1489456822.5394189358,1489456822.5418379307,       -0.7324218750,        0.0571289062,        0.0351562500,       -0.2441406250,       -0.1068115234,       -0.3051757812
1489456822.5421209335,1489456822.5445339680,       -0.7309570312,        0.0566406250,        0.0483398438,       -0.2441406250,       -0.1068115234,       -0.3051757812
1489456822.5448598862,1489456822.5473170280,       -0.7309570312,        0.0566406250,        0.0483398438,        0.1831054688,       -0.1831054688,       -0.5187988281
1489456822.5475978851,1489456822.5500659943,       -0.7309570312,        0.0566406250,        0.0483398438,        0.1831054688,       -0.1831054688,       -0.5187988281
1489456822.5503470898,1489456822.5527648926,       -0.7309570312,        0.0566406250,        0.0483398438,       -0.0610351562,        0.0000000000,       -0.4730224609
1489456822.5530469418,1489456822.5554618835,       -0.7290039062,        0.0629882812,        0.0532226562,       -0.0610351562,        0.0000000000,       -0.4730224609
1489456822.5557429790,1489456822.5581688881,       -0.7290039062,        0.0629882812,        0.0532226562,       -0.0457763672,       -0.3814697266,       -0.3204345703
1489456822.5584509373,1489456822.5607719421,       -0.7290039062,        0.0629882812,        0.0532226562,       -0.0457763672,       -0.3814697266,       -0.3204345703
1489456822.5610470772,1489456822.5633349419,       -0.7290039062,        0.0629882812,        0.0532226562,       -0.0610351562,       -0.3356933594,       -0.3509521484
1489456822.5636100769,1489456822.5659029484,       -0.7338867188,        0.0590820312,        0.0351562500,       -0.0610351562,       -0.3356933594,       -0.3509521484
1489456822.5661780834,1489456822.5684659481,       -0.7338867188,        0.0590820312,        0.0351562500,       -0.2746582031,       -0.1525878906,        0.0000000000
1489456822.5687410831,1489456822.5711679459,       -0.7338867188,        0.0590820312,        0.0351562500,       -0.2746582031,       -0.1525878906,        0.0000000000
1489456822.5714490414,1489456822.5738689899,       -0.7338867188,        0.0590820312,        0.0488281250,       -0.4577636719,        0.1983642578,       -0.1678466797
1489456822.5741510391,1489456822.5765650272,       -0.7329101562,        0.0585937500,        0.0488281250,       -0.4577636719,        0.1983642578,       -0.1678466797
1489456822.5768480301,1489456822.5792570114,       -0.7329101562,        0.0585937500,        0.0488281250,       -0.5950927734,        0.0457763672,       -0.0152587891
1489456822.5795331001,1489456822.5818231106,       -0.7329101562,        0.0585937500,        0.0488281250,       -0.5950927734,        0.0457763672,       -0.0152587891
1489456822.5820980072,1489456822.5843920708,       -0.7329101562,        0.0600585938,        0.0463867188,       -0.1983642578,       -0.1983642578,        0.0000000000
1489456822.5846660137,1489456822.5869650841,       -0.7368164062,        0.0600585938,        0.0463867188,       -0.1983642578,       -0.1983642578,        0.0000000000
1489456822.5872390270,1489456822.5895531178,       -0.7368164062,        0.0600585938,        0.0463867188,       -0.1983642578,       -0.1525878906,        0.1220703125
1489456822.5898280144,1489456822.5921239853,       -0.7368164062,        0.0600585938,        0.0463867188,       -0.4730224609,       -0.1525878906,        0.1220703125
1489456822.5923988819,1489456822.5946869850,       -0.7368164062,        0.0605468750,        0.0410156250,       -0.4730224609,        3.7536621094,        0.1220703125
1489456822.5949618816,1489456822.5972530842,       -0.7275390625,        0.0605468750,        0.0410156250,       -0.2593994141,        0.0762939453,        0.1220703125
1489456822.5975270271,1489456822.5999839306,       -0.7275390625,        0.0605468750,        0.0410156250,       -0.2593994141,        0.0762939453,       -0.1831054688
1489456822.6002659798,1489456822.6026771069,       -0.7275390625,        0.0605468750,        0.0410156250,       -0.2746582031,       -0.0610351562,       -0.1831054688
1489456822.6030669212,1489456822.6054830551,       -0.7353515625,        0.0654296875,        0.0419921875,       -0.2746582031,       -0.0610351562,       -0.0915527344
1489456822.6057629585,1489456822.6081829071,       -0.7353515625,        0.0654296875,        0.0419921875,       -0.3204345703,       -0.1220703125,       -0.0915527344
1489456822.6084649563,1489456822.6107900143,       -0.7353515625,        0.0654296875,        0.0419921875,       -0.3204345703,       -0.1220703125,       -0.2441406250
1489456822.6110630035,1489456822.6133608818,       -0.7353515625,        0.0654296875,        0.0419921875,       -0.1373291016,       -0.2899169922,       -0.2441406250
1489456822.6136350632,1489456822.6159260273,       -0.7324218750,        0.0561523438,        0.0395507812,       -0.1373291016,       -0.2899169922,       -0.2441406250
1489456822.6162009239,1489456822.6184959412,       -0.7324218750,        0.0561523438,        0.0395507812,       -0.2593994141,       -0.0915527344,       -0.1220703125
1489456822.6187698841,1489456822.6212320328,       -0.7324218750,        0.0561523438,        0.0395507812,       -0.2593994141,       -0.0915527344,       -0.1220703125
1489456822.6215169430,1489456822.6239318848,       -0.7324218750,        0.0561523438,        0.0395507812,       -0.4577636719,       -0.1373291016,       -0.2136230469
1489456822.6242129803,1489456822.6266269684,       -0.7338867188,        0.0629882812,        0.0415039062,       -0.4577636719,       -0.1373291016,       -0.2136230469
1489456822.6269080639,1489456822.6293289661,       -0.7338867188,        0.0629882812,        0.0415039062,       -0.4119873047,       -0.2136230469,       -0.0915527344
1489456822.6296029091,1489456822.6318950653,       -0.7338867188,        0.0629882812,        0.0415039062,       -0.4119873047,       -0.2136230469,       -0.0915527344
1489456822.6321709156,1489456822.6346030235,       -0.7338867188,        0.0629882812,        0.0405273438,       -0.1678466797,       -0.3967285156,       -0.1068115234
1489456822.6348810196,1489456822.6371710300,       -0.7299804688,        0.0610351562,        0.0405273438,       -0.1678466797,       -0.3967285156,       -0.1068115234
1489456822.6374471188,1489456822.6399309635,       -0.7299804688,        0.0610351562,        0.0405273438,       -0.5493164062,        0.2593994141,       -0.3204345703
1489456822.6402080059,1489456822.6424930096,       -0.7299804688,        0.0610351562,        0.0405273438,       -0.5493164062,        0.2593994141,       -0.3204345703
1489456822.6427669525,1489456822.6451690197,       -0.7299804688,        0.0644531250,        0.0483398438,       -0.2136230469,        0.1983642578,       -0.2288818359
1489456822.6454439163,1489456822.6477310658,       -0.7299804688,        0.0644531250,        0.0483398438,       -0.2136230469,        0.1983642578,       -0.2288818359
1489456822.6490790844,1489456822.6513679028,       -0.7299804688,        0.0644531250,        0.0483398438,       -0.5645751953,        0.1068115234,        0.0610351562
1489456822.6516458988,1489456822.6539299488,       -0.7299804688,        0.0644531250,        0.0483398438,       -0.5645751953,        0.1068115234,        0.0610351562
1489456822.6542050838,1489456822.6564950943,       -0.7221679688,        0.0595703125,        0.0434570312,       -0.1373291016,       -0.1831054688,        0.1373291016
1489456822.6567699909,1489456822.6590740681,       -0.7221679688,        0.0595703125,        0.0434570312,       -0.1373291016,       -0.1831054688,        0.1373291016
1489456822.6593499184,1489456822.6616399288,       -0.7221679688,        0.0595703125,        0.0434570312,       -0.1525878906,       -0.2136230469,        0.1525878906
1489456822.6619141102,1489456822.6642010212,       -0.7221679688,        0.0595703125,        0.0434570312,       -0.1525878906,       -0.2136230469,        0.1525878906
1489456822.6644740105,1489456822.6667549610,       -0.7324218750,        0.0576171875,        0.0493164062,       -0.2746582031,        0.0305175781,       -0.0762939453
1489456822.6671400070,1489456822.6694600582,       -0.7324218750,        0.0576171875,        0.0493164062,       -0.2746582031,        0.0305175781,       -0.0762939453
1489456822.6697340012,1489456822.6720190048,       -0.7324218750,        0.0576171875,        0.0493164062,       -0.2746582031,       -0.0915527344,       -0.1983642578
1489456822.6722950935,1489456822.6745820045,       -0.7324218750,        0.0576171875,        0.0493164062,       -0.2746582031,       -0.0915527344,       -0.1983642578
1489456822.6748559475,1489456822.6771509647,       -0.7294921875,        0.0581054688,        0.0493164062,       -0.2899169922,       -0.0915527344,       -0.0305175781
1489456822.6774239540,1489456822.6797161102,       -0.7294921875,        0.0581054688,        0.0493164062,       -0.2899169922,       -0.0915527344,       -0.0305175781
1489456822.6799900532,1489456822.6822729111,       -0.7294921875,        0.0581054688,        0.0493164062,       -0.6103515625,       -0.2288818359,        0.0762939453
1489456822.6825459003,1489456822.6848359108,       -0.7294921875,        0.0581054688,        0.0390625000,       -0.6103515625,       -0.2288818359,        0.0762939453
1489456822.6851100922,1489456822.6873970032,       -0.7333984375,        0.0649414062,        0.0390625000,       -0.6103515625,       -0.2288818359,        0.0762939453
1489456822.6876718998,1489456822.6900370121,       -0.7333984375,        0.0649414062,        0.0390625000,       -0.8087158203,       -0.2288818359,        0.0762939453
1489456822.6903140545,1489456822.6926019192,       -0.7333984375,        0.0649414062,        0.0390625000,       -0.8087158203,       -0.2288818359,       -0.1220703125
1489456822.6928761005,1489456822.6951680183,       -0.7333984375,        0.0649414062,        0.0444335938,       -0.7781982422,       -0.3356933594,       -0.1220703125
1489456822.6954419613,1489456822.6977369785,       -0.7416992188,        0.0566406250,        0.0444335938,       -0.7781982422,       -0.3356933594,       -0.1220703125
1489456822.6980121136,1489456822.7004699707,       -0.7416992188,        0.0566406250,        0.0444335938,       -0.7629394531,       -0.1068115234,       -0.0915527344
1489456822.7007451057,1489456822.7030351162,       -0.7416992188,        0.0566406250,        0.0444335938,       -0.7629394531,       -0.1068115234,       -0.0915527344
1489456822.7033090591,1489456822.7056009769,       -0.7416992188,        0.0678710938,        0.0419921875,       -0.8392333984,       -0.1525878906,       -0.1525878906
1489456822.7058739662,1489456822.7081680298,       -0.7299804688,        0.0678710938,        0.0419921875,       -0.8392333984,       -0.1525878906,       -0.1525878906
1489456822.7084419727,1489456822.7108728886,       -0.7299804688,        0.0678710938,        0.0419921875,       -0.4272460938,       -0.1678466797,       -0.3509521484
1489456822.7111480236,1489456822.7134380341,       -0.7299804688,        0.0678710938,        0.0419921875,       -0.4272460938,       -0.1678466797,       -0.3509521484
1489456822.7137119770,1489456822.7160029411,       -0.7299804688,        0.0639648438,        0.0419921875,       -0.4577636719,       -0.0762939453,       -0.0762939453
1489456822.7162759304,1489456822.7185680866,       -0.7299804688,        0.0639648438,        0.0419921875,       -0.4577636719,       -0.0762939453,       -0.0762939453
1489456822.7188730240,1489456822.7211620808,       -0.7299804688,        0.0639648438,        0.0419921875,       -0.4730224609,        0.0915527344,        0.0305175781
1489456822.7214360237,1489456822.7237219810,       -0.7299804688,        0.0639648438,        0.0419921875,       -0.4730224609,        0.0915527344,        0.0305175781
1489456822.7239959240,1489456822.7262840271,       -0.7368164062,        0.0615234375,        0.0434570312,       -0.7324218750,       -0.3051757812,       -0.1068115234
1489456822.7265601158,1489456822.7289030552,       -0.7368164062,        0.0615234375,        0.0434570312,       -0.7324218750,       -0.3051757812,       -0.1068115234
1489456822.7292859554,1489456822.7315759659,       -0.7368164062,        0.0615234375,        0.0434570312,       -0.2899169922,       -0.5340576172,       -0.3814697266
1489456822.7318489552,1489456822.7341361046,       -0.7368164062,        0.0615234375,        0.0434570312,       -0.2899169922,       -0.5340576172,       -0.3814697266
1489456822.7344100475,1489456822.7368578911,       -0.7358398438,        0.0625000000,        0.0576171875,       -0.9765625000,       -0.2288818359,       -0.2136230469
1489456822.7371330261,1489456822.7395789623,       -0.7358398438,        0.0625000000,        0.0576171875,       -0.9765625000,       -0.2288818359,       -0.2136230469
1489456822.7398550510,1489456822.7421469688,       -0.7358398438,        0.0625000000,        0.0576171875,       -0.4425048828,        0.2593994141,       -0.1525878906
1489456822.7424221039,1489456822.7455680370,       -0.7358398438,        0.0625000000,        0.0576171875,       -0.4425048828,        0.2593994141,       -0.1525878906
1489456822.7458450794,1489456822.7481338978,       -0.7299804688,        0.0629882812,        0.0429687500,        0.0000000000,       -0.3967285156,       -0.2899169922
1489456822.7484099865,1489456822.7507541180,       -0.7299804688,        0.0629882812,        0.0429687500,        0.0000000000,       -0.3967285156,       -0.2899169922
1489456822.7510280609,1489456822.7533240318,       -0.7299804688,        0.0629882812,        0.0429687500,        0.0610351562,       -0.4882812500,       -0.0915527344
1489456822.7535979748,1489456822.7558889389,       -0.7299804688,        0.0654296875,        0.0371093750,        0.0610351562,       -0.4882812500,       -0.0915527344
1489456822.7561628819,1489456822.7584509850,       -0.7265625000,        0.0654296875,        0.0371093750,       -0.2288818359,       -0.2136230469,       -0.4272460938
1489456822.7587280273,1489456822.7610220909,       -0.7265625000,        0.0654296875,        0.0371093750,       -0.2288818359,       -0.2136230469,       -0.4272460938
1489456822.7612988949,1489456822.7635860443,       -0.7265625000,        0.0654296875,        0.0371093750,       -0.2288818359,        0.0610351562,       -0.3662109375
1489456822.7638618946,1489456822.7661509514,       -0.7265625000,        0.0615234375,        0.0410156250,        0.1220703125,        0.0610351562,       -0.3662109375
1489456822.7664248943,1489456822.7687120438,       -0.7309570312,        0.0615234375,        0.0410156250,        0.1220703125,        0.0610351562,       -0.0457763672
1489456822.7690629959,1489456822.7713479996,       -0.7309570312,        0.0615234375,        0.0410156250,        0.1373291016,       -0.0152587891,       -0.0457763672
1489456822.7716219425,1489456822.7739150524,       -0.7309570312,        0.0615234375,        0.0410156250,        0.1373291016,       -0.0152587891,       -0.0457763672
1489456822.7741889954,1489456822.7764739990,       -0.7309570312,        0.0620117188,        0.0449218750,        0.1068115234,       -0.1373291016,       -0.0457763672
1489456822.7767488956,1489456822.7790720463,       -0.7294921875,        0.0620117188,        0.0449218750,        0.1068115234,       -0.1373291016,       -0.0457763672
1489456822.7793450356,1489456822.7816379070,       -0.7294921875,        0.0620117188,        0.0449218750,        0.3509521484,       -0.2899169922,       -0.1983642578
1489456822.7819120884,1489456822.7841949463,       -0.7294921875,        0.0620117188,        0.0449218750,        0.3509521484,       -0.2899169922,       -0.1983642578
1489456822.7844688892,1489456822.7867610455,       -0.7329101562,        0.0644531250,        0.0473632812,        0.1525878906,       -0.1983642578,       -0.3967285156
1489456822.7870349884,1489456822.7893710136,       -0.7329101562,        0.0644531250,        0.0473632812,        0.1525878906,       -0.1983642578,       -0.3967285156
1489456822.7896471024,1489456822.7919349670,       -0.7329101562,        0.0644531250,        0.0473632812,       -0.2746582031,       -0.1678466797,       -0.1525878906
1489456822.7923169136,1489456822.7946081161,       -0.7329101562,        0.0644531250,        0.0473632812,       -0.2746582031,       -0.1678466797,       -0.1525878906
1489456822.7948839664,1489456822.7971689701,       -0.7382812500,        0.0620117188,        0.0473632812,       -0.0305175781,       -0.0762939453,       -0.0305175781
1489456822.7974441051,1489456822.7998919487,       -0.7382812500,        0.0620117188,        0.0473632812,       -0.0305175781,       -0.0762939453,       -0.0305175781
1489456822.8001649380,1489456822.8024570942,       -0.7382812500,        0.0620117188,        0.0473632812,        0.2441406250,       -0.2746582031,       -0.2441406250
1489456822.8027319908,1489456822.8050210476,       -0.7382812500,        0.0620117188,        0.0473632812,        0.2441406250,       -0.2746582031,       -0.2441406250
1489456822.8052949905,1489456822.8075859547,       -0.7319335938,        0.0551757812,        0.0410156250,       -0.1983642578,        0.1068115234,       -0.1525878906
1489456822.8078589439,1489456822.8102800846,       -0.7319335938,        0.0551757812,        0.0410156250,       -0.1983642578,        0.1068115234,       -0.1525878906
1489456822.8105640411,1489456822.8129789829,       -0.7319335938,        0.0551757812,        0.0410156250,        0.3662109375,       -0.0915527344,       -0.2136230469
1489456822.8132600784,1489456822.8156750202,       -0.7319335938,        0.0551757812,        0.0410156250,        0.3662109375,       -0.0915527344,       -0.2136230469
1489456822.8159589767,1489456822.8183760643,       -0.7294921875,        0.0590820312,        0.0478515625,        0.0915527344,       -0.1525878906,        0.1220703125
1489456822.8186581135,1489456822.8210868835,       -0.7294921875,        0.0590820312,        0.0478515625,        0.0915527344,       -0.1525878906,        0.1220703125
1489456822.8213670254,1489456822.8237910271,       -0.7294921875,        0.0590820312,        0.0478515625,       -3.8146972656,       -0.1373291016,       -0.0152587891
1489456822.8240718842,1489456822.8264870644,       -0.7294921875,        0.0590820312,        0.0512695312,       -0.5950927734,       -0.1373291016,       -0.0152587891
1489456822.8267679214,1489456822.8292350769,       -0.7343750000,        0.0610351562,        0.0512695312,       -0.5950927734,       -0.2136230469,       -0.2288818359
1489456822.8295159340,1489456822.8319311142,       -0.7343750000,        0.0610351562,        0.0512695312,       -0.6866455078,       -0.2136230469,       -0.2288818359
1489456822.8322119713,1489456822.8346300125,       -0.7343750000,        0.0610351562,        0.0512695312,       -0.6866455078,       -0.0305175781,       -0.2441406250
1489456822.8349111080,1489456822.8373260498,       -0.7314453125,        0.0581054688,        0.0498046875,       -0.1525878906,       -0.0305175781,       -0.2441406250
1489456822.8376080990,1489456822.8400349617,       -0.7314453125,        0.0581054688,        0.0498046875,        3.7536621094,       -0.3356933594,       -0.2899169922
1489456822.8403170109,1489456822.8427340984,       -0.7314453125,        0.0581054688,        0.0498046875,        0.4119873047,       -0.3356933594,       -0.2899169922
1489456822.8430140018,1489456822.8454380035,       -0.7314453125,        0.0581054688,        0.0498046875,        0.4119873047,       -0.5035400391,       -0.3662109375
1489456822.8457210064,1489456822.8481390476,       -0.7304687500,        0.0659179688,        0.0429687500,        0.4882812500,       -0.5035400391,       -0.3662109375
1489456822.8484210968,1489456822.8507499695,       -0.7304687500,        0.0659179688,        0.0429687500,        0.4882812500,       -0.4577636719,       -0.4577636719
1489456822.8510260582,1489456822.8533151150,       -0.7304687500,        0.0659179688,        0.0429687500,        0.8239746094,       -0.4577636719,       -0.4577636719
1489456822.8535900116,1489456822.8560769558,       -0.7304687500,        0.0659179688,        0.0429687500,        0.8239746094,       -0.4425048828,       -0.5950927734
1489456822.8564589024,1489456822.8587579727,       -0.7304687500,        0.0600585938,        0.0429687500,        0.7629394531,       -0.4425048828,       -0.5950927734
1489456822.8590970039,1489456822.8614759445,       -0.7304687500,        0.0600585938,        0.0429687500,        0.7629394531,       -0.4425048828,       -0.4577636719
1489456822.8617570400,1489456822.8641359806,       -0.7304687500,        0.0600585938,        0.0429687500,        0.3662109375,       -0.3356933594,       -0.4577636719
1489456822.8644170761,1489456822.8669309616,       -0.7304687500,        0.0600585938,        0.0502929688,        0.3662109375,        3.5705566406,       -0.2593994141
1489456822.8672139645,1489456822.8696229458,       -0.7333984375,        0.0581054688,        0.0502929688,        0.0915527344,        0.0762939453,       -0.2593994141
1489456822.8699040413,1489456822.8722848892,       -0.7333984375,        0.0581054688,        0.0502929688,        0.0915527344,       -3.8299560547,       -0.1220703125
1489456822.8725650311,1489456822.8749470711,       -0.7333984375,        0.0581054688,        0.0502929688,        0.0762939453,       -0.2593994141,       -0.1220703125
1489456822.8752269745,1489456822.8777179718,       -0.7338867188,        0.0625000000,        0.0463867188,        0.0762939453,        3.6468505859,       -0.2441406250
1489456822.8780000210,1489456822.8804299831,       -0.7338867188,        0.0625000000,        0.0463867188,       -0.2593994141,        0.0457763672,       -0.2441406250
1489456822.8807120323,1489456822.8830881119,       -0.7338867188,        0.0625000000,        0.0463867188,       -0.2593994141,        0.0457763672,       -0.8239746094
1489456822.8833680153,1489456822.8857769966,       -0.7338867188,        0.0625000000,        0.0463867188,        0.4425048828,       -0.2441406250,       -0.8239746094
1489456822.8860590458,1489456822.8884758949,       -0.7338867188,        0.0668945312,        0.0473632812,        0.4425048828,       -0.2441406250,       -0.3356933594
1489456822.8887579441,1489456822.8910510540,       -0.7338867188,        0.0668945312,        0.0473632812,        0.2593994141,       -0.2441406250,       -0.3356933594
1489456822.8913249969,1489456822.8936181068,       -0.7338867188,        0.0668945312,        0.0473632812,        0.2593994141,       -0.2441406250,       -0.3356933594
1489456822.8938930035,1489456822.8961870670,       -0.7338867188,        0.0668945312,        0.0473632812,        0.2593994141,        0.2441406250,       -0.0152587891
1489456822.8964610100,1489456822.8987538815,       -0.7280273438,        0.0595703125,        0.0366210938,        0.2593994141,        0.2441406250,       -0.0152587891
1489456822.8991999626,1489456822.9014949799,       -0.7280273438,        0.0595703125,        0.0366210938,        0.2441406250,        0.1678466797,       -0.1220703125
1489456822.9017701149,1489456822.9040598869,       -0.7280273438,        0.0595703125,        0.0366210938,        0.2441406250,        0.1678466797,       -0.1220703125
1489456822.9043340683,1489456822.9066269398,       -0.7280273438,        0.0595703125,        0.0366210938,        0.2441406250,       -0.2136230469,       -0.1220703125
1489456822.9069020748,1489456822.9093561172,       -0.7441406250,        0.0600585938,        0.0483398438,        0.2441406250,       -0.2136230469,       -0.1220703125
1489456822.9096388817,1489456822.9120509624,       -0.7441406250,        0.0600585938,        0.0483398438,        0.0305175781,       -0.4119873047,       -0.0915527344
1489456822.9123320580,1489456822.9147489071,       -0.7441406250,        0.0600585938,        0.0483398438,        0.0305175781,       -0.4119873047,       -0.0915527344
1489456822.9150300026,1489456822.9174470901,       -0.7441406250,        0.0600585938,        0.0449218750,       -0.1831054688,       -0.2593994141,       -0.1983642578
1489456822.9177320004,1489456822.9201529026,       -0.7416992188,        0.0620117188,        0.0449218750,       -0.1831054688,       -0.2593994141,       -0.1983642578
1489456822.9205429554,1489456822.9229609966,       -0.7416992188,        0.0620117188,        0.0449218750,        0.1220703125,       -0.2593994141,       -0.2136230469
1489456822.9232430458,1489456822.9256579876,       -0.7416992188,        0.0620117188,        0.0449218750,        0.1220703125,       -0.2593994141,       -0.2136230469
1489456822.9259400368,1489456822.9283580780,       -0.7309570312,        0.0639648438,        0.0449218750,        0.1831054688,       -0.1525878906,       -0.0762939453
1489456822.9286398888,1489456822.9309511185,       -0.7309570312,        0.0639648438,        0.0449218750,        0.1831054688,       -0.1525878906,       -0.0762939453
1489456822.9312279224,1489456822.9335179329,       -0.7309570312,        0.0639648438,        0.0449218750,       -0.0305175781,        0.0610351562,       -0.1678466797
1489456822.9337940216,1489456822.9360909462,       -0.7309570312,        0.0639648438,        0.0449218750,       -0.0305175781,        0.0610351562,       -0.1678466797
1489456822.9363639355,1489456822.9386560917,       -0.7275390625,        0.0620117188,        0.0434570312,        0.0152587891,       -0.4272460938,       -0.3509521484
1489456822.9389359951,1489456822.9413540363,       -0.7275390625,        0.0620117188,        0.0434570312,        0.0152587891,       -0.4272460938,       -0.3509521484
1489456822.9416370392,1489456822.9441409111,       -0.7275390625,        0.0620117188,        0.0434570312,       -0.3051757812,        0.0152587891,       -0.1983642578
1489456822.9444169998,1489456822.9467079639,       -0.7275390625,        0.0620117188,        0.0434570312,       -0.3051757812,        0.0152587891,       -0.1983642578
1489456822.9469809532,1489456822.9493830204,       -0.7324218750,        0.0610351562,        0.0454101562,        0.0915527344,       -0.3814697266,       -0.1525878906
1489456822.9496650696,1489456822.9520459175,       -0.7324218750,        0.0610351562,        0.0454101562,        0.0915527344,       -0.3814697266,       -0.1525878906
1489456822.9523260593,1489456822.9548299313,       -0.7324218750,        0.0610351562,        0.0454101562,       -0.1220703125,        0.0915527344,       -0.1525878906
1489456822.9551110268,1489456822.9574940205,       -0.7324218750,        0.0610351562,        0.0429687500,       -0.1220703125,        0.0915527344,       -0.1525878906
1489456822.9581630230,1489456822.9606339931,       -0.7280273438,        0.0634765625,        0.0429687500,        0.2899169922,       -0.0915527344,       -0.2136230469
1489456822.9609179497,1489456822.9633429050,       -0.7280273438,        0.0634765625,        0.0429687500,        0.2899169922,       -0.0915527344,       -0.2136230469
1489456822.9636249542,1489456822.9660360813,       -0.7280273438,        0.0634765625,        0.0429687500,        0.6713867188,       -0.2136230469,       -0.1678466797
1489456822.9663169384,1489456822.9687309265,       -0.7280273438,        0.0664062500,        0.0405273438,        0.6713867188,       -0.2136230469,       -0.1678466797
1489456822.9690580368,1489456822.9713571072,       -0.7280273438,        0.0664062500,        0.0405273438,        0.7019042969,       -0.5645751953,       -0.1678466797
1489456822.9716320038,1489456822.9739229679,       -0.7280273438,        0.0664062500,        0.0405273438,        0.7019042969,       -0.5645751953,       -0.1678466797
1489456822.9741969109,1489456822.9764909744,       -0.7280273438,        0.0664062500,        0.0405273438,        0.6866455078,       -0.3967285156,       -0.1068115234
1489456822.9767661095,1489456822.9790830612,       -0.7338867188,        0.0664062500,        0.0395507812,        0.6866455078,       -0.3967285156,       -0.1068115234
1489456822.9793660641,1489456822.9817841053,       -0.7338867188,        0.0664062500,        0.0395507812,        0.9155273438,       -0.3814697266,       -0.1373291016
1489456822.9820649624,1489456822.9844880104,       -0.7338867188,        0.0664062500,        0.0395507812,        0.9155273438,       -0.3814697266,       -0.1373291016
1489456822.9848859310,1489456822.9873049259,       -0.7338867188,        0.0664062500,        0.0395507812,        0.4272460938,       -0.0915527344,       -0.2441406250
1489456822.9875869751,1489456822.9899849892,       -0.7333984375,        0.0610351562,        0.0424804688,        0.4272460938,       -0.0915527344,       -0.2441406250
1489456822.9902620316,1489456822.9925611019,       -0.7333984375,        0.0610351562,        0.0424804688,        0.0152587891,       -0.2288818359,        0.0457763672
1489456822.9928340912,1489456822.9951291084,       -0.7333984375,        0.0610351562,        0.0424804688,        0.0152587891,       -0.2288818359,        0.0457763672
1489456822.9953999519,1489456822.9976959229,       -0.7333984375,        0.0610351562,        0.0424804688,        0.0152587891,       -0.1373291016,        0.4577636719
1489456822.9979689121,1489456823.0003180504,       -0.7329101562,        0.0615234375,        0.0463867188,       -0.0915527344,       -0.1373291016,        0.4577636719
1489456823.0005929470,1489456823.0028870106,       -0.7329101562,        0.0615234375,        0.0463867188,       -0.0915527344,       -0.1373291016,        0.6103515625
1489456823.0031619072,1489456823.0054569244,       -0.7329101562,        0.0615234375,        0.0463867188,       -0.0457763672,       -0.2441406250,        0.6103515625
1489456823.0057299137,1489456823.0080230236,       -0.7329101562,        0.0615234375,        0.0458984375,       -0.0457763672,       -0.2441406250,        0.3814697266
1489456823.0082991123,1489456823.0108261108,       -0.7314453125,        0.0659179688,        0.0458984375,        0.1373291016,        0.1525878906,        0.3814697266
1489456823.0111100674,1489456823.0135340691,       -0.7314453125,        0.0659179688,        0.0458984375,        0.1373291016,        0.1525878906,        0.1678466797
1489456823.0138149261,1489456823.0162320137,       -0.7314453125,        0.0659179688,        0.0458984375,        0.2288818359,        0.1373291016,        0.1678466797
1489456823.0165131092,1489456823.0189440250,       -0.7314453125,        0.0576171875,        0.0541992188,        0.2288818359,        0.1373291016,        0.3967285156
1489456823.0192170143,1489456823.0215139389,       -0.7270507812,        0.0576171875,        0.0541992188,        0.9002685547,       -0.1373291016,        0.3967285156
1489456823.0217890739,1489456823.0240819454,       -0.7270507812,        0.0576171875,        0.0541992188,        0.9002685547,       -0.1373291016,        0.3967285156
1489456823.0243558884,1489456823.0266458988,       -0.7270507812,        0.0576171875,        0.0541992188,        1.5563964844,       -0.1983642578,        0.5340576172
1489456823.0269219875,1489456823.0292799473,       -0.7343750000,        0.0571289062,        0.0522460938,        1.5563964844,       -0.1983642578,        0.5340576172
1489456823.0295639038,1489456823.0319809914,       -0.7343750000,        0.0571289062,        0.0522460938,        1.3122558594,       -0.2441406250,        0.7629394531
1489456823.0322630405,1489456823.0346870422,       -0.7343750000,        0.0571289062,        0.0522460938,        1.3122558594,       -0.2441406250,        0.7629394531
1489456823.0349669456,1489456823.0373780727,       -0.7343750000,        0.0571289062,        0.0522460938,        1.3580322266,       -0.2136230469,        1.0681152344
1489456823.0376579762,1489456823.0400829315,       -0.7294921875,        0.0590820312,        0.0449218750,        1.3580322266,       -0.2136230469,        1.0681152344
1489456823.0403640270,1489456823.0428640842,       -0.7294921875,        0.0590820312,        0.0449218750,        1.5716552734,       -0.0457763672,        1.0833740234
1489456823.0431399345,1489456823.0454320908,       -0.7294921875,        0.0590820312,        0.0449218750,        1.5716552734,       -0.0457763672,        1.0833740234
1489456823.0457060337,1489456823.0479938984,       -0.7294921875,        0.0590820312,        0.0449218750,        1.7547607422,       -0.5493164062,        1.0528564453
1489456823.0483729839,1489456823.0507860184,       -0.7314453125,        0.0712890625,        0.0502929688,        1.7547607422,       -0.5493164062,        1.0528564453
1489456823.0510649681,1489456823.0534501076,       -0.7314453125,        0.0712890625,        0.0502929688,        2.0294189453,       -0.4119873047,        1.1596679688
1489456823.0537300110,1489456823.0563800335,       -0.7314453125,        0.0712890625,        0.0502929688,        2.0294189453,       -0.4119873047,        1.1596679688
1489456823.0566549301,1489456823.0589549541,       -0.7314453125,        0.0727539062,        0.0380859375,        2.2735595703,       -0.1220703125,        1.2512207031
1489456823.0592288971,1489456823.0615150928,       -0.7250976562,        0.0727539062,        0.0380859375,        2.2735595703,       -0.1220703125,        1.2512207031
1489456823.0617899895,1489456823.0640790462,       -0.7250976562,        0.0727539062,        0.0380859375,        3.5400390625,        0.4730224609,        1.6479492188
1489456823.0643539429,1489456823.0666389465,       -0.7250976562,        0.0727539062,        0.0380859375,        3.5400390625,        0.4730224609,        1.6479492188
1489456823.0669150352,1489456823.0692451000,       -0.7250976562,        0.0771484375,        0.0292968750,        4.3792724609,        0.7781982422,        1.7852783203
1489456823.0695180893,1489456823.0718109608,       -0.7407226562,        0.0771484375,        0.0292968750,        4.3792724609,        0.7781982422,        1.7852783203
1489456823.0720829964,1489456823.0743730068,       -0.7407226562,        0.0771484375,        0.0292968750,        5.3100585938,        0.2593994141,        1.5716552734
1489456823.0746459961,1489456823.0769360065,       -0.7407226562,        0.0771484375,        0.0292968750,        5.3100585938,        0.2593994141,        1.5716552734
1489456823.0772089958,1489456823.0794999599,       -0.7382812500,        0.0722656250,        0.0390625000,        5.3100585938,        0.0610351562,        1.3885498047
1489456823.0797739029,1489456823.0820620060,       -0.7382812500,        0.0722656250,        0.0390625000,        5.6304931641,        0.0610351562,        1.3885498047
1489456823.0823369026,1489456823.0846259594,       -0.7382812500,        0.0722656250,        0.0390625000,        5.6304931641,        0.0610351562,        1.5716552734
1489456823.0848989487,1489456823.0871860981,       -0.7382812500,        0.0722656250,        0.0390625000,        5.1879882812,        0.0457763672,        1.5716552734
1489456823.0874590874,1489456823.0898320675,       -0.7426757812,        0.0439453125,        0.0336914062,        5.1879882812,        0.0457763672,        1.7547607422
1489456823.0901041031,1489456823.0923919678,       -0.7426757812,        0.0439453125,        0.0336914062,        3.8452148438,       -0.0915527344,        1.7547607422
1489456823.0926649570,1489456823.0949480534,       -0.7426757812,        0.0439453125,        0.0336914062,        3.8452148438,       -0.0915527344,        1.7547607422
1489456823.0952229500,1489456823.0975110531,       -0.7426757812,        0.0439453125,        0.0336914062,        2.2583007812,       -0.1220703125,        1.5563964844
1489456823.0977859497,1489456823.1001369953,       -0.7436523438,        0.0502929688,        0.0371093750,        2.2583007812,       -0.1220703125,        1.5563964844
1489456823.1004140377,1489456823.1027050018,       -0.7436523438,        0.0502929688,        0.0371093750,        0.8850097656,       -0.0610351562,        1.9836425781
1489456823.1029820442,1489456823.1052660942,       -0.7436523438,        0.0502929688,        0.0371093750,        0.8850097656,       -0.0610351562,        1.9836425781
1489456823.1055400372,1489456823.1078290939,       -0.7436523438,        0.0502929688,        0.0371093750,        0.1068115234,       -0.0762939453,        2.1820068359
1489456823.1081008911,1489456823.1104969978,       -0.7319335938,        0.0449218750,        0.0410156250,        0.1068115234,       -0.0762939453,        2.1820068359
1489456823.1108710766,1489456823.1131589413,       -0.7319335938,        0.0449218750,        0.0410156250,       -0.5035400391,       -0.4119873047,        1.6632080078
1489456823.1134328842,1489456823.1157178879,       -0.7319335938,        0.0449218750,        0.0410156250,       -0.5035400391,       -0.4119873047,        1.6632080078
1489456823.1159930229,1489456823.1182789803,       -0.7319335938,        0.0449218750,        0.0410156250,       -0.2136230469,        0.1373291016,        1.9073486328
1489456823.1185529232,1489456823.1208460331,       -0.7348632812,        0.0512695312,        0.0581054688,       -0.2136230469,        0.1373291016,        1.9073486328
1489456823.1211199760,1489456823.1234109402,       -0.7348632812,        0.0512695312,        0.0581054688,       -0.2136230469,       -0.0152587891,        1.6632080078
1489456823.1236860752,1489456823.1259720325,       -0.7348632812,        0.0512695312,        0.0581054688,       -0.2136230469,       -0.0152587891,        1.6632080078
1489456823.1262459755,1489456823.1285328865,       -0.7348632812,        0.0512695312,        0.0581054688,       -0.0152587891,        0.2136230469,        1.7089843750
1489456823.1288769245,1489456823.1311690807,       -0.7285156250,        0.0698242188,        0.0512695312,       -0.0152587891,        0.2136230469,        1.7089843750
1489456823.1314430237,1489456823.1337308884,       -0.7285156250,        0.0698242188,        0.0512695312,       -0.0152587891,       -0.1220703125,        1.7852783203
1489456823.1340069771,1489456823.1362950802,       -0.7285156250,        0.0698242188,        0.0512695312,        0.3356933594,       -0.1220703125,        1.7852783203
1489456823.1365699768,1489456823.1388831139,       -0.7285156250,        0.0698242188,        0.0512695312,        0.3356933594,       -0.1220703125,        2.0751953125
1489456823.1391589642,1489456823.1414461136,       -0.7265625000,        0.0703125000,        0.0517578125,        0.5645751953,       -0.1220703125,        2.0751953125
1489456823.1417210102,1489456823.1440119743,       -0.7265625000,        0.0703125000,        0.0517578125,        0.5645751953,       -0.1220703125,        2.0751953125
1489456823.1442859173,1489456823.1465799809,       -0.7265625000,        0.0703125000,        0.0517578125,        0.5340576172,        0.0152587891,        1.9989013672
1489456823.1468520164,1489456823.1491479874,       -0.7265625000,        0.0703125000,        0.0517578125,        0.5340576172,        0.0152587891,        1.9989013672
1489456823.1494369507,1489456823.1517310143,       -0.7290039062,        0.0703125000,        0.0639648438,        0.5340576172,        0.3967285156,        1.6632080078
1489456823.1520071030,1489456823.1542890072,       -0.7290039062,        0.0703125000,        0.0639648438,        0.5340576172,        0.3967285156,        1.6632080078
1489456823.1545650959,1489456823.1568520069,       -0.7290039062,        0.0703125000,        0.0639648438,       -0.0610351562,        0.9002685547,        1.2969970703
1489456823.1571269035,1489456823.1594710350,       -0.7290039062,        0.0703125000,        0.0566406250,       -0.0610351562,        0.9002685547,        1.2969970703
1489456823.1597449780,1489456823.1620349884,       -0.7275390625,        0.0703125000,        0.0566406250,        0.5645751953,        0.7019042969,        1.4648437500
1489456823.1623079777,1489456823.1645970345,       -0.7275390625,        0.0703125000,        0.0566406250,        0.5645751953,        0.7019042969,        1.4648437500
1489456823.1648890972,1489456823.1672310829,       -0.7275390625,        0.0703125000,        0.0566406250,        1.2969970703,        0.5798339844,        1.4648437500
1489456823.1675059795,1489456823.1701090336,       -0.7275390625,        0.0703125000,        0.0488281250,        1.2969970703,        0.5798339844,        1.4648437500
1489456823.1703910828,1489456823.1728060246,       -0.7309570312,        0.0791015625,        0.0488281250,        1.4648437500,        0.3814697266,        1.2054443359
1489456823.1730880737,1489456823.1755039692,       -0.7309570312,        0.0791015625,        0.0488281250,        1.4648437500,        0.3814697266,        1.2054443359
1489456823.1758921146,1489456823.1783111095,       -0.7309570312,        0.0791015625,        0.0488281250,        1.2664794922,        0.5798339844,        0.7781982422
1489456823.1785910130,1489456823.1810510159,       -0.7265625000,        0.0761718750,        0.0512695312,        1.2664794922,        0.5798339844,        0.7781982422
1489456823.1813349724,1489456823.1837511063,       -0.7265625000,        0.0761718750,        0.0512695312,        1.1138916016,        0.8087158203,        0.7476806641
1489456823.1840319633,1489456823.1864509583,       -0.7265625000,        0.0761718750,        0.0512695312,        1.1138916016,        0.8087158203,        0.7476806641
1489456823.1867330074,1489456823.1891551018,       -0.7265625000,        0.0761718750,        0.0512695312,        1.4190673828,        0.5493164062,        0.5950927734
1489456823.1894350052,1489456823.1918509007,       -0.7333984375,        0.0747070312,        0.0439453125,        1.4190673828,        0.5493164062,        0.5950927734
1489456823.1921329498,1489456823.1945519447,       -0.7333984375,        0.0747070312,        0.0439453125,        1.7547607422,        0.7476806641,        0.8239746094
1489456823.1948330402,1489456823.1972489357,       -0.7333984375,        0.0747070312,        0.0439453125,        1.7547607422,        0.7476806641,        0.8239746094
1489456823.1975300312,1489456823.1999030113,       -0.7333984375,        0.0747070312,        0.0488281250,        1.7852783203,        0.8850097656,        1.0833740234
1489456823.2001791000,1489456823.2024660110,       -0.7294921875,        0.0605468750,        0.0488281250,        1.7852783203,        0.8850097656,        1.0833740234
1489456823.2027399540,1489456823.2050299644,       -0.7294921875,        0.0605468750,        0.0488281250,        1.4495849609,        1.0681152344,        0.8239746094
1489456823.2053039074,1489456823.2075960636,       -0.7294921875,        0.0605468750,        0.0488281250,        1.4495849609,        1.0681152344,        0.8239746094
1489456823.2078690529,1489456823.2102129459,       -0.7294921875,        0.0605468750,        0.0434570312,        2.0599365234,        1.3122558594,        1.1138916016
1489456823.2104840279,1489456823.2127730846,       -0.7280273438,        0.0712890625,        0.0434570312,        2.0599365234,        1.3122558594,        1.1138916016
1489456823.2130448818,1489456823.2153389454,       -0.7280273438,        0.0712890625,        0.0434570312,        2.0599365234,        1.0833740234,        1.2664794922
1489456823.2156128883,1489456823.2179079056,       -0.7280273438,        0.0712890625,        0.0434570312,        2.4261474609,        1.0833740234,        1.2664794922
1489456823.2181808949,1489456823.2205240726,       -0.7280273438,        0.0722656250,        0.0351562500,        2.4261474609,        1.0833740234,        1.3885498047
1489456823.2207970619,1489456823.2230949402,       -0.7319335938,        0.0722656250,        0.0351562500,        2.7923583984,        1.4038085938,        1.3885498047
1489456823.2233669758,1489456823.2256639004,       -0.7319335938,        0.0722656250,        0.0351562500,        2.7923583984,        1.4038085938,        1.3885498047
1489456823.2259359360,1489456823.2282299995,       -0.7319335938,        0.0722656250,        0.0351562500,        2.8839111328,        1.2054443359,        1.6326904297
1489456823.2285010815,1489456823.2309820652,       -0.7319335938,        0.0717773438,        0.0439453125,        2.8839111328,        1.2054443359,        1.6326904297
1489456823.2312650681,1489456823.2336809635,       -0.7231445312,        0.0717773438,        0.0439453125,        3.0212402344,        1.4495849609,        1.7852783203
1489456823.2339599133,1489456823.2363729477,       -0.7231445312,        0.0717773438,        0.0439453125,        3.0212402344,        1.4495849609,        1.7852783203
1489456823.2366509438,1489456823.2390758991,       -0.7231445312,        0.0717773438,        0.0439453125,        3.4179687500,        1.8310546875,        1.9073486328
1489456823.2394618988,1489456823.2418780327,       -0.7280273438,        0.0756835938,        0.0361328125,        3.4179687500,        1.8310546875,        1.9073486328
1489456823.2421588898,1489456823.2445759773,       -0.7280273438,        0.0756835938,        0.0361328125,        3.8146972656,        1.8768310547,        2.0904541016
1489456823.2448570728,1489456823.2473719120,       -0.7280273438,        0.0756835938,        0.0361328125,        3.8146972656,        1.8768310547,        2.0904541016
1489456823.2476520538,1489456823.2500529289,       -0.7280273438,        0.0756835938,        0.0361328125,        4.4708251953,        2.1820068359,        1.8157958984
1489456823.2503321171,1489456823.2527101040,       -0.7348632812,        0.0747070312,        0.0395507812,        4.4708251953,        2.1820068359,        1.8157958984
1489456823.2529881001,1489456823.2553730011,       -0.7348632812,        0.0747070312,        0.0395507812,        5.2795410156,        2.0446777344,        1.9989013672
1489456823.2556519508,1489456823.2581510544,       -0.7348632812,        0.0747070312,        0.0395507812,        5.2795410156,        2.0446777344,        1.9989013672
1489456823.2584319115,1489456823.2607510090,       -0.7348632812,        0.0747070312,        0.0205078125,        5.3863525391,        1.6937255859,        2.7770996094
1489456823.2610239983,1489456823.2633171082,       -0.7358398438,        0.0512695312,        0.0205078125,        5.3863525391,        1.6937255859,        2.7770996094
1489456823.2635889053,1489456823.2658810616,       -0.7358398438,        0.0512695312,        0.0205078125,        3.3874511719,        0.7324218750,        3.6926269531
1489456823.2661540508,1489456823.2685859203,       -0.7358398438,        0.0512695312,        0.0205078125,        3.3874511719,        0.7324218750,        3.6926269531
1489456823.2688629627,1489456823.2712409496,       -0.7358398438,       -0.0102539062,        0.0385742188,        1.4190673828,        0.2593994141,        3.4484863281
1489456823.2715198994,1489456823.2739009857,       -0.7504882812,       -0.0102539062,        0.0385742188,        1.4190673828,        0.2593994141,        3.4484863281
1489456823.2741799355,1489456823.2765629292,       -0.7504882812,       -0.0102539062,        0.0385742188,        0.9918212891,        0.6256103516,        2.8686523438
1489456823.2769119740,1489456823.2793309689,       -0.7504882812,       -0.0102539062,        0.0385742188,        0.9918212891,        0.6256103516,        2.8686523438
1489456823.2796120644,1489456823.2819941044,       -0.7558593750,        0.0820312500,        0.0390625000,       -1.0070800781,        1.1444091797,        2.9296875000
1489456823.2822721004,1489456823.2846560478,       -0.7558593750,        0.0820312500,        0.0390625000,       -1.0070800781,        1.1444091797,        2.9296875000
1489456823.2849910259,1489456823.2876238823,       -0.7558593750,        0.0820312500,        0.0390625000,       -2.0141601562,        1.1749267578,        3.6621093750
1489456823.2879059315,1489456823.2905681133,       -0.7558593750,        0.0820312500,        0.0390625000,       -2.0141601562,        1.1749267578,        3.6621093750
1489456823.2908520699,1489456823.2932660580,       -0.7329101562,        0.0917968750,        0.0454101562,       -2.5329589844,        0.9002685547,        3.6010742188
1489456823.2935500145,1489456823.2959680557,       -0.7329101562,        0.0917968750,        0.0454101562,       -2.5329589844,        0.9002685547,        3.6010742188
1489456823.2962501049,1489456823.2986700535,       -0.7329101562,        0.0917968750,        0.0454101562,       -1.8463134766,        1.0681152344,        2.8686523438
1489456823.2989599705,1489456823.3012509346,       -0.7329101562,        0.0786132812,        0.0454101562,       -1.8463134766,        1.0681152344,        2.8686523438
1489456823.3015239239,1489456823.3038139343,       -0.7436523438,        0.0786132812,        0.0454101562,       -0.5798339844,        1.0833740234,        1.9378662109
1489456823.3041939735,1489456823.3064930439,       -0.7436523438,        0.0786132812,        0.0454101562,       -0.5798339844,        1.0833740234,        1.9378662109
1489456823.3067650795,1489456823.3090980053,       -0.7436523438,        0.0786132812,        0.0454101562,        0.6866455078,        1.0681152344,        1.4495849609
1489456823.3093819618,1489456823.3117990494,       -0.7436523438,        0.0854492188,        0.0581054688,        0.6866455078,        1.0681152344,        1.4495849609
1489456823.3120789528,1489456823.3144979477,       -0.7250976562,        0.0854492188,        0.0581054688,        0.9918212891,        1.3122558594,        1.0681152344
1489456823.3147790432,1489456823.3171970844,       -0.7250976562,        0.0854492188,        0.0581054688,        0.9918212891,        1.3122558594,        1.0681152344
1489456823.3174779415,1489456823.3198559284,       -0.7250976562,        0.0854492188,        0.0581054688,        1.5106201172,        1.5106201172,        1.3427734375
1489456823.3201279640,1489456823.3224170208,       -0.7211914062,        0.0820312500,        0.0605468750,        1.5106201172,        1.5106201172,        1.3427734375
1489456823.3226890564,1489456823.3249819279,       -0.7211914062,        0.0820312500,        0.0605468750,        1.4038085938,        1.2664794922,        1.4495849609
1489456823.3252549171,1489456823.3275499344,       -0.7211914062,        0.0820312500,        0.0605468750,        1.4038085938,        1.2664794922,        1.4495849609
1489456823.3278241158,1489456823.3301780224,       -0.7211914062,        0.0820312500,        0.0605468750,        1.2207031250,        1.6632080078,        0.9918212891
1489456823.3304529190,1489456823.3327419758,       -0.7221679688,        0.0810546875,        0.0546875000,        1.2207031250,        1.6632080078,        0.9918212891
1489456823.3330171108,1489456823.3353080750,       -0.7221679688,        0.0810546875,        0.0546875000,        1.2207031250,        2.1057128906,        0.5950927734
1489456823.3355829716,1489456823.3378770351,       -0.7221679688,        0.0810546875,        0.0546875000,        1.0528564453,        2.1057128906,        0.5950927734
1489456823.3381509781,1489456823.3405690193,       -0.7221679688,        0.0810546875,        0.0546875000,        1.0528564453,        2.3803710938,        0.2593994141
1489456823.3408439159,1489456823.3431360722,       -0.7177734375,        0.0883789062,        0.0478515625,        1.7700195312,        2.3803710938,        0.2593994141
1489456823.3434090614,1489456823.3457059860,       -0.7177734375,        0.0883789062,        0.0478515625,        1.7700195312,        2.3803710938,       -0.0152587891
1489456823.3459789753,1489456823.3482730389,       -0.7177734375,        0.0883789062,        0.0478515625,        2.4871826172,        1.9683837891,       -0.0152587891
1489456823.3485460281,1489456823.3509368896,       -0.7177734375,        0.0883789062,        0.0478515625,        2.4871826172,        1.9683837891,       -0.2746582031
1489456823.3512110710,1489456823.3535060883,       -0.7231445312,        0.0898437500,        0.0444335938,        2.8839111328,        1.9378662109,       -0.2746582031
1489456823.3537800312,1489456823.3560719490,       -0.7231445312,        0.0898437500,        0.0444335938,        2.8839111328,        1.9378662109,       -0.2746582031
1489456823.3563449383,1489456823.3586380482,       -0.7231445312,        0.0898437500,        0.0444335938,        3.1738281250,        2.1667480469,       -0.5035400391
1489456823.3589189053,1489456823.3613359928,       -0.7231445312,        0.0898437500,        0.0444335938,        3.1738281250,        2.1667480469,       -0.5035400391
1489456823.3616220951,1489456823.3640370369,       -0.7260742188,        0.0903320312,        0.0361328125,        3.5095214844,        2.2277832031,       -0.8239746094
1489456823.3643190861,1489456823.3667330742,       -0.7260742188,        0.0903320312,        0.0361328125,        3.5095214844,        2.2277832031,       -0.8239746094
1489456823.3671209812,1489456823.3695499897,       -0.7260742188,        0.0903320312,        0.0361328125,        4.7149658203,        2.3040771484,       -0.9307861328
1489456823.3698310852,1489456823.3722438812,       -0.7260742188,        0.0786132812,        0.0361328125,        4.7149658203,        2.3040771484,       -0.9307861328
1489456823.3725249767,1489456823.3749370575,       -0.7368164062,        0.0786132812,        0.0361328125,        4.7607421875,        2.3040771484,       -0.7934570312
1489456823.3752191067,1489456823.3776390553,       -0.7368164062,        0.0786132812,        0.0361328125,        4.7607421875,        2.3040771484,       -0.7934570312
1489456823.3779189587,1489456823.3802740574,       -0.7368164062,        0.0786132812,        0.0361328125,        4.7912597656,        2.2888183594,       -0.6561279297
1489456823.3805460930,1489456823.3828370571,       -0.7348632812,        0.0659179688,        0.0419921875,        4.7912597656,        2.2888183594,       -0.6561279297
1489456823.3831110001,1489456823.3854019642,       -0.7348632812,        0.0659179688,        0.0419921875,        5.1879882812,        2.4871826172,       -0.6408691406
1489456823.3856759071,1489456823.3879671097,       -0.7348632812,        0.0659179688,        0.0419921875,        5.1879882812,        2.4871826172,       -0.6408691406
1489456823.3882410526,1489456823.3905949593,       -0.7348632812,        0.0659179688,        0.0419921875,        4.5318603516,        2.7770996094,       -0.6866455078
1489456823.3908689022,1489456823.3931570053,       -0.7348632812,        0.0581054688,        0.0478515625,        4.5318603516,        2.7770996094,       -0.6866455078
1489456823.3934309483,1489456823.3957240582,       -0.7348632812,        0.0581054688,        0.0478515625,        3.9062500000,        3.1890869141,       -0.4730224609
1489456823.3959989548,1489456823.3982920647,       -0.7348632812,        0.0581054688,        0.0478515625,        3.9062500000,        3.1890869141,       -0.4730224609
1489456823.3985660076,1489456823.4009790421,       -0.7348632812,        0.0581054688,        0.0478515625,        3.7689208984,        2.7465820312,       -0.2441406250
1489456823.4012610912,1489456823.4036800861,       -0.7324218750,        0.0585937500,        0.0366210938,        3.7689208984,        2.7465820312,       -0.2441406250
1489456823.4039599895,1489456823.4065239429,       -0.7324218750,        0.0585937500,        0.0366210938,        3.8452148438,        2.7008056641,        0.0000000000
1489456823.4068059921,1489456823.4096450806,       -0.7324218750,        0.0585937500,        0.0366210938,        3.8452148438,        2.7008056641,        0.0000000000
1489456823.4099280834,1489456823.4123489857,       -0.7324218750,        0.0585937500,        0.0390625000,        3.1127929688,        2.7770996094,        0.2593994141
1489456823.4126310349,1489456823.4150469303,       -0.7358398438,        0.0595703125,        0.0390625000,        3.1127929688,        2.7770996094,        0.2593994141
1489456823.4153270721,1489456823.4177460670,       -0.7358398438,        0.0595703125,        0.0390625000,        2.9754638672,        3.1433105469,        0.1068115234
1489456823.4180281162,1489456823.4204580784,       -0.7358398438,        0.0595703125,        0.0390625000,        2.9754638672,        3.1433105469,        0.1068115234
1489456823.4207389355,1489456823.4231569767,       -0.7319335938,        0.0629882812,        0.0434570312,        3.2348632812,        2.9296875000,        0.5035400391
1489456823.4234371185,1489456823.4258480072,       -0.7319335938,        0.0629882812,        0.0434570312,        3.2348632812,        2.9296875000,        0.5035400391
1489456823.4261291027,1489456823.4285480976,       -0.7319335938,        0.0629882812,        0.0434570312,        2.7313232422,        3.1127929688,        1.0375976562
1489456823.4288361073,1489456823.4312479496,       -0.7319335938,        0.0629882812,        0.0434570312,        2.7313232422,        3.1127929688,        1.0375976562
1489456823.4316360950,1489456823.4340479374,       -0.7363281250,        0.0639648438,        0.0307617188,        2.7770996094,        2.5482177734,        1.2359619141
1489456823.4343259335,1489456823.4367389679,       -0.7363281250,        0.0639648438,        0.0307617188,        2.7770996094,        2.5482177734,        1.2359619141
1489456823.4370191097,1489456823.4394109249,       -0.7363281250,        0.0639648438,        0.0307617188,        3.3264160156,        2.3651123047,        1.7395019531
1489456823.4396820068,1489456823.4419701099,       -0.7363281250,        0.0639648438,        0.0307617188,        3.3264160156,        2.3651123047,        1.7395019531
1489456823.4422419071,1489456823.4445290565,       -0.7382812500,        0.0546875000,        0.0317382812,        2.8533935547,        2.3651123047,        2.0599365234
1489456823.4447999001,1489456823.4470889568,       -0.7382812500,        0.0546875000,        0.0317382812,        2.8533935547,        2.3651123047,        2.0599365234
1489456823.4473600388,1489456823.4496591091,       -0.7382812500,        0.0546875000,        0.0317382812,        2.8533935547,        2.5634765625,        2.3040771484
1489456823.4499309063,1489456823.4522221088,       -0.7382812500,        0.0546875000,        0.0361328125,        2.7160644531,        2.5634765625,        2.3040771484
1489456823.4531159401,1489456823.4554069042,       -0.7319335938,        0.0761718750,        0.0361328125,        2.9602050781,        2.5177001953,        2.4871826172
1489456823.4556798935,1489456823.4579639435,       -0.7319335938,        0.0761718750,        0.0361328125,        2.9602050781,        2.5177001953,        2.4871826172
1489456823.4582369328,1489456823.4606049061,       -0.7319335938,        0.0761718750,        0.0361328125,        2.9449462891,        2.7465820312,        2.7313232422
1489456823.4608790874,1489456823.4631659985,       -0.7319335938,        0.0815429688,        0.0302734375,        2.9449462891,        2.7465820312,        2.7313232422
1489456823.4634389877,1489456823.4657258987,       -0.7353515625,        0.0815429688,        0.0302734375,        2.9449462891,        3.1738281250,        2.9907226562
1489456823.4659979343,1489456823.4682939053,       -0.7353515625,        0.0815429688,        0.0302734375,        3.6010742188,        3.1738281250,        2.9907226562
1489456823.4685659409,1489456823.4708580971,       -0.7353515625,        0.0815429688,        0.0302734375,        3.6010742188,        3.1738281250,        3.2806396484
1489456823.4711310863,1489456823.4734299183,       -0.7353515625,        0.0766601562,        0.0332031250,        4.1809082031,        3.0212402344,        3.2806396484
1489456823.4737029076,1489456823.4759919643,       -0.7353515625,        0.0766601562,        0.0332031250,        4.1809082031,        3.0212402344,        3.2806396484
1489456823.4762649536,1489456823.4785480499,       -0.7353515625,        0.0766601562,        0.0332031250,        4.3334960938,        3.0212402344,        3.0822753906
1489456823.4788539410,1489456823.4811511040,       -0.7353515625,        0.0766601562,        0.0332031250,        4.3334960938,        3.0212402344,        3.0822753906
1489456823.4814240932,1489456823.4837100506,       -0.7280273438,        0.0751953125,        0.0341796875,        4.6234130859,        3.3264160156,        3.1738281250
1489456823.4839820862,1489456823.4862689972,       -0.7280273438,        0.0751953125,        0.0341796875,        4.6234130859,        3.3264160156,        3.1738281250
1489456823.4865400791,1489456823.4888710976,       -0.7280273438,        0.0751953125,        0.0341796875,        5.2642822266,        3.2806396484,        3.2653808594
1489456823.4891440868,1489456823.4914319515,       -0.7280273438,        0.0751953125,        0.0341796875,        5.2642822266,        3.2806396484,        3.2653808594
1489456823.4917039871,1489456823.4939970970,       -0.7324218750,        0.0883789062,        0.0307617188,        5.5236816406,        3.3416748047,        3.2806396484
1489456823.4943909645,1489456823.4966759682,       -0.7324218750,        0.0883789062,        0.0307617188,        5.5236816406,        3.3416748047,        3.2806396484
1489456823.4969480038,1489456823.4993829727,       -0.7324218750,        0.0883789062,        0.0307617188,        6.5002441406,        3.2348632812,        3.3416748047
1489456823.4996581078,1489456823.5019550323,       -0.7324218750,        0.0883789062,        0.0307617188,        6.5002441406,        3.2348632812,        3.3416748047
1489456823.5022280216,1489456823.5045199394,       -0.7187500000,        0.0874023438,        0.0224609375,        6.1035156250,        3.1585693359,        3.4942626953
1489456823.5047919750,1489456823.5070838928,       -0.7187500000,        0.0874023438,        0.0224609375,        6.1035156250,        3.1585693359,        3.4942626953
1489456823.5073549747,1489456823.5097949505,       -0.7187500000,        0.0874023438,        0.0224609375,        6.3934326172,        3.2043457031,        3.5247802734
1489456823.5100739002,1489456823.5124869347,       -0.7187500000,        0.0874023438,        0.0224609375,        6.3934326172,        3.2043457031,        3.5247802734
1489456823.5127658844,1489456823.5151889324,       -0.7202148438,        0.0869140625,        0.0136718750,        6.8511962891,        2.8533935547,        3.8757324219
1489456823.5154690742,1489456823.5178809166,       -0.7202148438,        0.0869140625,        0.0136718750,        6.8511962891,        2.8533935547,        3.8757324219
1489456823.5181610584,1489456823.5205850601,       -0.7202148438,        0.0869140625,        0.0136718750,        7.5073242188,        2.5939941406,        4.1046142578
1489456823.5208640099,1489456823.5232849121,       -0.7202148438,        0.0869140625,       -0.0122070312,        7.5073242188,        2.5939941406,        4.1046142578
1489456823.5235641003,1489456823.5259780884,       -0.7382812500,        0.1030273438,       -0.0122070312,        6.9732666016,        2.6855468750,        4.3487548828
1489456823.5262579918,1489456823.5286760330,       -0.7382812500,        0.1030273438,       -0.0122070312,        6.9732666016,        2.6855468750,        4.3487548828
1489456823.5289669037,1489456823.5313880444,       -0.7382812500,        0.1030273438,       -0.0122070312,        5.9967041016,        2.9296875000,        4.4097900391
1489456823.5316710472,1489456823.5340919495,       -0.7480468750,        0.0917968750,        0.0034179688,        5.9967041016,        2.9296875000,        4.4097900391
1489456823.5343739986,1489456823.5367980003,       -0.7480468750,        0.0917968750,        0.0034179688,        5.9967041016,        2.7008056641,        4.9591064453
1489456823.5370790958,1489456823.5394759178,       -0.7480468750,        0.0917968750,        0.0034179688,        4.6386718750,        2.7008056641,        4.9591064453
1489456823.5397489071,1489456823.5420389175,       -0.7480468750,        0.0917968750,        0.0034179688,        4.6386718750,        3.1738281250,        5.5541992188
1489456823.5423119068,1489456823.5446081161,       -0.7412109375,        0.0649414062,        0.0200195312,        3.9215087891,        3.1738281250,        5.5541992188
1489456823.5448799133,1489456823.5471689701,       -0.7412109375,        0.0649414062,        0.0200195312,        3.9215087891,        3.1738281250,        6.1187744141
1489456823.5474410057,1489456823.5498349667,       -0.7412109375,        0.0649414062,        0.0200195312,        2.9907226562,        3.1585693359,        6.1187744141
1489456823.5501170158,1489456823.5525360107,       -0.7412109375,        0.0649414062,        0.0200195312,        2.9907226562,        3.1585693359,        6.1950683594
1489456823.5528140068,1489456823.5552980900,       -0.7446289062,        0.0375976562,        0.0268554688,        1.2817382812,        3.1280517578,        6.1950683594
1489456823.5555779934,1489456823.5579929352,       -0.7446289062,        0.0375976562,        0.0268554688,        1.2817382812,        3.1280517578,        6.9274902344
1489456823.5583779812,1489456823.5608389378,       -0.7446289062,        0.0375976562,        0.0268554688,        0.9155273438,        3.7078857422,        6.9274902344
1489456823.5611200333,1489456823.5635359287,       -0.7446289062,        0.0375976562,        0.0468750000,        0.9155273438,        7.6141357422,        7.4310302734
1489456823.5638170242,1489456823.5662779808,       -0.7480468750,        0.0327148438,        0.0468750000,       -0.4272460938,        4.0588378906,        7.4310302734
1489456823.5665619373,1489456823.5705289841,       -0.7480468750,        0.0327148438,        0.0468750000,       -0.4272460938,        4.0588378906,        7.5531005859
1489456823.5708079338,1489456823.5731010437,       -0.7480468750,        0.0327148438,        0.0468750000,       -1.6784667969,        4.0740966797,        7.5531005859
1489456823.5733740330,1489456823.5756618977,       -0.7475585938,        0.0336914062,        0.0688476562,       -1.1444091797,        4.4097900391,        6.9274902344
1489456823.5759348869,1489456823.5782270432,       -0.7475585938,        0.0336914062,        0.0688476562,       -1.1444091797,        4.4097900391,        6.9274902344
1489456823.5784990788,1489456823.5808970928,       -0.7475585938,        0.0336914062,        0.0688476562,       -1.9836425781,        5.3253173828,        6.5460205078
1489456823.5811688900,1489456823.5834600925,       -0.7475585938,        0.0336914062,        0.0688476562,       -1.9836425781,        5.3253173828,        6.5460205078
1489456823.5837330818,1489456823.5860209465,       -0.7446289062,        0.0976562500,        0.0590820312,       -1.9378662109,        5.4168701172,        7.1563720703
1489456823.5862939358,1489456823.5885810852,       -0.7446289062,        0.0976562500,        0.0590820312,       -1.9378662109,        5.4168701172,        7.1563720703
1489456823.5888690948,1489456823.5911579132,       -0.7446289062,        0.0976562500,        0.0590820312,       -1.9378662109,        5.6610107422,        7.5378417969
1489456823.5914309025,1489456823.5937249660,       -0.7446289062,        0.0976562500,        0.0571289062,       -1.0375976562,        5.6610107422,        7.5378417969
1489456823.5939960480,1489456823.5962860584,       -0.7416992188,        0.1137695312,        0.0571289062,       -1.0375976562,        5.6610107422,        7.1105957031
1489456823.5965600014,1489456823.5988759995,       -0.7416992188,        0.1137695312,        0.0571289062,       -0.0610351562,        6.2713623047,        7.1105957031
1489456823.5991508961,1489456823.6014389992,       -0.7416992188,        0.1137695312,        0.0571289062,       -0.0610351562,        6.2713623047,        6.5155029297
1489456823.6017129421,1489456823.6039960384,       -0.7416992188,        0.1137695312,        0.0576171875,        1.5411376953,        6.3934326172,        6.5155029297
1489456823.6042690277,1489456823.6065530777,       -0.7348632812,        0.1103515625,        0.0576171875,        1.5411376953,        6.3934326172,        6.5155029297
1489456823.6068260670,1489456823.6091179848,       -0.7348632812,        0.1103515625,        0.0576171875,        3.6163330078,        6.2103271484,        5.8898925781
1489456823.6093900204,1489456823.6116828918,       -0.7348632812,        0.1103515625,        0.0576171875,        3.6163330078,        6.2103271484,        5.8898925781
1489456823.6119549274,1489456823.6142420769,       -0.7348632812,        0.1093750000,        0.0493164062,        5.2795410156,        6.5155029297,        5.5541992188
1489456823.6145141125,1489456823.6168010235,       -0.7338867188,        0.1093750000,        0.0493164062,        5.2795410156,        6.5155029297,        5.5541992188
1489456823.6170730591,1489456823.6195430756,       -0.7338867188,        0.1093750000,        0.0493164062,        6.8054199219,        7.4005126953,        5.4473876953
1489456823.6198179722,1489456823.6221098900,       -0.7338867188,        0.1093750000,        0.0493164062,        6.8054199219,        7.4005126953,        5.4473876953
1489456823.6224908829,1489456823.6247870922,       -0.7431640625,        0.1162109375,        0.0419921875,        7.9193115234,        7.1563720703,        5.1574707031
1489456823.6250588894,1489456823.6273519993,       -0.7431640625,        0.1162109375,        0.0419921875,        7.9193115234,        7.1563720703,        5.1574707031
1489456823.6276249886,1489456823.6301419735,       -0.7431640625,        0.1162109375,        0.0419921875,        8.2244873047,        7.1105957031,        4.8065185547
1489456823.6304240227,1489456823.6328470707,       -0.7431640625,        0.1162109375,        0.0419921875,        8.2244873047,        7.1105957031,        4.8065185547
1489456823.6331269741,1489456823.6355431080,       -0.7485351562,        0.0986328125,        0.0327148438,        8.9111328125,        6.8206787109,        4.5471191406
1489456823.6358230114,1489456823.6382369995,       -0.7485351562,        0.0986328125,        0.0327148438,        8.9111328125,        6.8206787109,        4.5471191406
1489456823.6385159492,1489456823.6409459114,       -0.7485351562,        0.0986328125,        0.0327148438,        9.7656250000,        7.7209472656,        4.3487548828
1489456823.6412279606,1489456823.6436491013,       -0.7485351562,        0.0986328125,        0.0327148438,        9.7656250000,        7.7209472656,        4.3487548828
1489456823.6439321041,1489456823.6463489532,       -0.7421875000,        0.0854492188,        0.0297851562,       10.0555419922,        7.7362060547,        4.4860839844
1489456823.6466360092,1489456823.6490650177,       -0.7421875000,        0.0854492188,        0.0297851562,       10.0555419922,        7.7362060547,        4.4860839844
1489456823.6493499279,1489456823.6517689228,       -0.7421875000,        0.0854492188,        0.0297851562,       10.6201171875,        8.1329345703,        4.6386718750
1489456823.6520540714,1489456823.6544709206,       -0.7421875000,        0.0854492188,        0.0273437500,       10.6201171875,        8.1329345703,        4.6386718750
1489456823.6547570229,1489456823.6572439671,       -0.7451171875,        0.0698242188,        0.0273437500,       10.4370117188,        8.4075927734,        5.1574707031
1489456823.6575250626,1489456823.6599988937,       -0.7451171875,        0.0698242188,        0.0273437500,       10.4370117188,        8.4075927734,        5.1574707031
1489456823.6602840424,1489456823.6626739502,       -0.7451171875,        0.0698242188,        0.0273437500,        9.8419189453,        8.3160400391,        5.7678222656
1489456823.6629528999,1489456823.6657710075,       -0.7382812500,        0.0717773438,        0.0224609375,        9.8419189453,        8.3160400391,        5.7678222656
1489456823.6660490036,1489456823.6683371067,       -0.7382812500,        0.0717773438,        0.0224609375,        8.9569091797,        8.3160400391,        6.4849853516
1489456823.6686120033,1489456823.6709680557,       -0.7382812500,        0.0717773438,        0.0224609375,        8.9569091797,        8.3160400391,        6.4849853516
1489456823.6712400913,1489456823.6735279560,       -0.7382812500,        0.0717773438,        0.0224609375,        8.4075927734,        8.5144042969,        7.1105957031
1489456823.6738009453,1489456823.6760900021,       -0.7358398438,        0.0732421875,        0.0322265625,        8.4075927734,        8.5144042969,        7.1105957031
1489456823.6763639450,1489456823.6786510944,       -0.7358398438,        0.0732421875,        0.0322265625,        8.8195800781,        8.7432861328,        7.9193115234
1489456823.6789228916,1489456823.6812191010,       -0.7358398438,        0.0732421875,        0.0322265625,        8.8195800781,        8.7432861328,        7.9193115234
1489456823.6814920902,1489456823.6837830544,       -0.7358398438,        0.0732421875,        0.0322265625,        8.8043212891,        8.8500976562,        8.6975097656
1489456823.6840579510,1489456823.6863400936,       -0.7368164062,        0.0659179688,        0.0141601562,        8.8043212891,        8.8500976562,        8.6975097656
1489456823.6867311001,1489456823.6890680790,       -0.7368164062,        0.0659179688,        0.0141601562,        8.8043212891,        8.9111328125,        8.9263916016
1489456823.6893429756,1489456823.6916298866,       -0.7368164062,        0.0659179688,        0.0141601562,        8.2244873047,        8.9111328125,        8.9263916016
1489456823.6919031143,1489456823.6941881180,       -0.7368164062,        0.0659179688,        0.0141601562,        8.2244873047,        8.9111328125,        9.6435546875
1489456823.6944620609,1489456823.6967549324,       -0.7392578125,        0.0644531250,        0.0283203125,        8.6669921875,        9.4299316406,        9.6435546875
1489456823.6970279217,1489456823.6993200779,       -0.7392578125,        0.0644531250,        0.0283203125,        8.6669921875,        9.4299316406,       10.6353759766
1489456823.6995990276,1489456823.7018890381,       -0.7392578125,        0.0644531250,        0.0283203125,        9.0637207031,        9.7808837891,       10.6353759766
1489456823.7021670341,1489456823.7044548988,       -0.7392578125,        0.0644531250,        0.0283203125,        9.0637207031,        9.7808837891,       10.6353759766
1489456823.7047319412,1489456823.7070250511,       -0.7421875000,        0.0644531250,        0.0205078125,        8.3618164062,        9.3841552734,       11.7492675781
1489456823.7073020935,1489456823.7097790241,       -0.7421875000,        0.0644531250,        0.0205078125,        8.3618164062,        9.3841552734,       11.7492675781
1489456823.7100589275,1489456823.7123529911,       -0.7421875000,        0.0644531250,        0.0205078125,        6.7596435547,        8.6517333984,       12.8936767578
1489456823.7126309872,1489456823.7149200439,       -0.7421875000,        0.0644531250,        0.0175781250,        6.7596435547,        8.6517333984,       12.8936767578
1489456823.7151980400,1489456823.7174959183,       -0.7573242188,        0.0209960938,        0.0175781250,        6.4086914062,        8.7432861328,       13.4735107422
1489456823.7177751064,1489456823.7211849689,       -0.7573242188,        0.0209960938,        0.0175781250,        6.4086914062,        8.7432861328,       13.4735107422
1489456823.7214961052,1489456823.7248649597,       -0.7573242188,        0.0209960938,        0.0175781250,        6.0424804688,        9.2926025391,       13.9160156250
1489456823.7251760960,1489456823.7284660339,       -0.7709960938,        0.0659179688,        0.0117187500,        5.0048828125,        9.7045898438,       14.8468017578
1489456823.7287650108,1489456823.7311749458,       -0.7709960938,        0.0659179688,        0.0117187500,        5.0048828125,        9.7045898438,       14.8468017578
1489456823.7314610481,1489456823.7338590622,       -0.7709960938,        0.0659179688,        0.0117187500,        4.1046142578,        9.2163085938,       15.8233642578
1489456823.7341430187,1489456823.7365429401,       -0.7749023438,        0.0854492188,        0.0068359375,        4.1046142578,        9.2163085938,       15.8233642578
1489456823.7368268967,1489456823.7392380238,       -0.7749023438,        0.0854492188,        0.0068359375,        4.3334960938,        9.2163085938,       16.3269042969
1489456823.7395238876,1489456823.7419269085,       -0.7749023438,        0.0854492188,        0.0068359375,        4.3334960938,        9.2163085938,       16.3269042969
1489456823.7422111034,1489456823.7446110249,       -0.7749023438,        0.0854492188,        0.0068359375,        5.3558349609,        9.0179443359,       16.5252685547
1489456823.7448980808,1489456823.7472960949,       -0.7666015625,        0.0888671875,        0.0039062500,        5.3558349609,        9.0179443359,       16.5252685547
1489456823.7475800514,1489456823.7500269413,       -0.7666015625,        0.0888671875,        0.0039062500,        7.0495605469,        8.6822509766,       17.4713134766
1489456823.7503130436,1489456823.7527101040,       -0.7666015625,        0.0888671875,        0.0039062500,        7.0495605469,        8.6822509766,       17.4713134766
1489456823.7531399727,1489456823.7555420399,       -0.7666015625,        0.0888671875,        0.0053710938,        7.9498291016,        8.6669921875,       17.7917480469
1489456823.7558259964,1489456823.7582309246,       -0.7592773438,        0.0737304688,        0.0053710938,        7.9498291016,        8.6669921875,       17.7917480469
1489456823.7585160732,1489456823.7609241009,       -0.7592773438,        0.0737304688,        0.0053710938,        8.0108642578,        9.0026855469,       18.7072753906
1489456823.7612099648,1489456823.7636098862,       -0.7592773438,        0.0737304688,        0.0053710938,        8.0108642578,        9.0026855469,       18.7072753906
1489456823.7638940811,1489456823.7662899494,       -0.7441406250,        0.0698242188,       -0.0029296875,        7.7362060547,        8.6669921875,       19.3786621094
1489456823.7665750980,1489456823.7689828873,       -0.7441406250,        0.0698242188,       -0.0029296875,        7.7362060547,        8.6669921875,       19.3786621094
1489456823.7692689896,1489456823.7716829777,       -0.7441406250,        0.0698242188,       -0.0029296875,        7.3089599609,        8.6364746094,       20.4620361328
1489456823.7719690800,1489456823.7743859291,       -0.7441406250,        0.0698242188,       -0.0029296875,        7.3089599609,        8.6364746094,       20.4620361328
1489456823.7746720314,1489456823.7771821022,       -0.7416992188,        0.0703125000,        0.0073242188,        6.2255859375,        8.5601806641,       21.6674804688
1489456823.7774710655,1489456823.7802140713,       -0.7416992188,        0.0703125000,        0.0073242188,        6.2255859375,        8.5601806641,       21.6674804688
1489456823.7805008888,1489456823.7829198837,       -0.7416992188,        0.0703125000,        0.0073242188,        5.2795410156,        8.3160400391,       22.5830078125
1489456823.7832069397,1489456823.7856209278,       -0.7416992188,        0.0703125000,        0.0048828125,        5.2795410156,        8.3160400391,       22.5830078125
1489456823.7859089375,1489456823.7883210182,       -0.7338867188,        0.0874023438,        0.0048828125,        4.3334960938,        8.1024169922,       23.2849121094
1489456823.7886059284,1489456823.7910330296,       -0.7338867188,        0.0874023438,        0.0048828125,        4.3334960938,        8.1024169922,       23.2849121094
1489456823.7913179398,1489456823.7937350273,       -0.7338867188,        0.0874023438,        0.0048828125,        4.7607421875,        8.0566406250,       24.0936279297
1489456823.7940208912,1489456823.7964320183,       -0.7338867188,        0.0971679688,        0.0122070312,        4.7607421875,        8.0566406250,       24.0936279297
1489456823.7967159748,1489456823.7991490364,       -0.7343750000,        0.0971679688,        0.0122070312,        4.3945312500,        8.1176757812,       24.9328613281
1489456823.7994360924,1489456823.8018529415,       -0.7343750000,        0.0971679688,        0.0122070312,        4.3945312500,        8.1176757812,       24.9328613281
1489456823.8021390438,1489456823.8045558929,       -0.7343750000,        0.0971679688,        0.0122070312,        4.1961669922,        7.9650878906,       25.6958007812
1489456823.8048400879,1489456823.8072578907,       -0.7182617188,        0.0991210938,        0.0063476562,        4.1961669922,        7.9650878906,       25.6958007812
1489456823.8075430393,1489456823.8099009991,       -0.7182617188,        0.0991210938,        0.0063476562,        3.9978027344,        8.2702636719,       26.7028808594
1489456823.8101799488,1489456823.8124749660,       -0.7182617188,        0.0991210938,        0.0063476562,        3.9978027344,        8.2702636719,       26.7028808594
1489456823.8127539158,1489456823.8150429726,       -0.7182617188,        0.0991210938,        0.0063476562,        3.8299560547,        8.1634521484,       27.9235839844
1489456823.8153200150,1489456823.8176109791,       -0.7172851562,        0.1132812500,        0.0180664062,        3.8299560547,        8.1634521484,       27.9235839844
1489456823.8178889751,1489456823.8202219009,       -0.7172851562,        0.1132812500,        0.0180664062,        4.3334960938,        8.0413818359,       28.8238525391
1489456823.8206079006,1489456823.8229041100,       -0.7172851562,        0.1132812500,        0.0180664062,        4.3334960938,        8.0413818359,       28.8238525391
1489456823.8231840134,1489456823.8254749775,       -0.7172851562,        0.1132812500,        0.0180664062,        5.0201416016,        8.2702636719,       29.6173095703
1489456823.8257520199,1489456823.8280460835,       -0.7187500000,        0.1303710938,        0.0078125000,        5.0201416016,        8.2702636719,       29.6173095703
1489456823.8283240795,1489456823.8307330608,       -0.7187500000,        0.1303710938,        0.0078125000,        5.4168701172,        7.8735351562,       30.4412841797
1489456823.8310129642,1489456823.8333048820,       -0.7187500000,        0.1303710938,        0.0078125000,        5.4168701172,        7.8735351562,       30.4412841797
1489456823.8335831165,1489456823.8358790874,       -0.7187500000,        0.1303710938,       -0.1171875000,        5.4168701172,        7.2021484375,       31.6162109375
1489456823.8361558914,1489456823.8384480476,       -0.7202148438,        0.1406250000,       -0.0078125000,        6.4849853516,        7.2021484375,       31.6162109375
1489456823.8387260437,1489456823.8412439823,       -0.7202148438,        0.1406250000,       -0.0078125000,        6.4849853516,        7.2021484375,       32.3028564453
1489456823.8415310383,1489456823.8439450264,       -0.7202148438,        0.1406250000,       -0.0078125000,        7.9498291016,        6.4239501953,       32.3028564453
1489456823.8442330360,1489456823.8466470242,       -0.7202148438,        0.1264648438,       -0.0185546875,        7.9498291016,        6.4239501953,       33.1115722656
1489456823.8469309807,1489456823.8493549824,       -0.7177734375,        0.1264648438,       -0.0185546875,        8.8958740234,        5.6610107422,       33.1115722656
1489456823.8496410847,1489456823.8520550728,       -0.7177734375,        0.1264648438,       -0.0185546875,        8.8958740234,        5.6610107422,       34.3475341797
1489456823.8523390293,1489456823.8547589779,       -0.7177734375,        0.1264648438,       -0.0185546875,        8.8653564453,        4.6691894531,       34.3475341797
1489456823.8550429344,1489456823.8574531078,       -0.7338867188,        0.0957031250,       -0.0229492188,        8.8653564453,        4.6691894531,       35.1715087891
1489456823.8577399254,1489456823.8600881100,       -0.7338867188,        0.0957031250,       -0.0229492188,        8.6975097656,        4.0588378906,       35.1715087891
1489456823.8603661060,1489456823.8626530170,       -0.7338867188,        0.0957031250,       -0.0229492188,        8.6975097656,        4.0588378906,       36.4837646484
1489456823.8629310131,1489456823.8652229309,       -0.7338867188,        0.0957031250,       -0.0229492188,        7.5073242188,        3.8604736328,       36.4837646484
1489456823.8654999733,1489456823.8677899837,       -0.7495117188,        0.0815429688,       -0.0585937500,        7.5073242188,        3.8604736328,       36.4837646484
1489456823.8680670261,1489456823.8703989983,       -0.7495117188,        0.0815429688,       -0.0585937500,        5.5236816406,        4.0435791016,       38.6962890625
1489456823.8706779480,1489456823.8729650974,       -0.7495117188,        0.0815429688,       -0.0585937500,        5.5236816406,        4.0435791016,       38.6962890625
1489456823.8732419014,1489456823.8755359650,       -0.7495117188,        0.0815429688,       -0.0585937500,        3.3721923828,        4.3945312500,       40.3594970703
1489456823.8758130074,1489456823.8781049252,       -0.7680664062,        0.0595703125,       -0.0590820312,        3.3721923828,        4.3945312500,       40.3594970703
1489456823.8783819675,1489456823.8807809353,       -0.7680664062,        0.0595703125,       -0.0590820312,        0.4577636719,        4.8217773438,       41.9464111328
1489456823.8810689449,1489456823.8834838867,       -0.7680664062,        0.0595703125,       -0.0590820312,        0.4577636719,        4.8217773438,       41.9464111328
1489456823.8838820457,1489456823.8862969875,       -0.7680664062,        0.0595703125,       -0.0590820312,       -2.1209716797,        5.3100585938,       43.9758300781
1489456823.8865830898,1489456823.8890368938,       -0.7739257812,        0.0625000000,       -0.0595703125,       -2.1209716797,        5.3100585938,       43.9758300781
1489456823.8893220425,1489456823.8917369843,       -0.7739257812,        0.0625000000,       -0.0595703125,       -5.2185058594,        4.7149658203,       45.9136962891
1489456823.8920230865,1489456823.8944358826,       -0.7739257812,        0.0625000000,       -0.0595703125,       -5.2185058594,        4.7149658203,       45.9136962891
1489456823.8947200775,1489456823.8972930908,       -0.7739257812,        0.0834960938,       -0.0551757812,       -7.5683593750,        4.4250488281,       47.9888916016
1489456823.8975799084,1489456823.9004340172,       -0.7924804688,        0.0834960938,       -0.0551757812,       -7.5683593750,        4.4250488281,       47.9888916016
