time_stamp before, time_stamp after, Acceleration x, Acceleration y, Acceleration z, Gyro x, Gyro y, Gyro z
1489456762.7373309135,1489456762.7427179813,       -0.7270507812,        0.0610351562,        0.0444335938,       -0.2899169922,        0.5798339844,        0.0610351562
1489456762.7430300713,1489456762.7461020947,       -0.7270507812,        0.0610351562,        0.0444335938,       -0.2899169922,        0.5798339844,        0.0610351562
1489456762.7464079857,1489456762.7496380806,       -0.7270507812,        0.0620117188,        0.0429687500,       -0.1678466797,        0.1373291016,        0.0762939453
1489456762.7499289513,1489456762.7527248859,       -0.7299804688,        0.0620117188,        0.0429687500,        0.0915527344,       -0.0915527344,        0.5645751953
1489456762.7530119419,1489456762.7554290295,       -0.7299804688,        0.0620117188,        0.0429687500,        0.0915527344,       -0.0915527344,        0.5645751953
1489456762.7557089329,1489456762.7581241131,       -0.7299804688,        0.0620117188,        0.0429687500,       -0.2593994141,       -0.0152587891,        0.3204345703
1489456762.7584030628,1489456762.7608289719,       -0.7250976562,        0.0576171875,        0.0498046875,       -0.2593994141,       -0.0152587891,        0.3204345703
1489456762.7611100674,1489456762.7635209560,       -0.7250976562,        0.0576171875,        0.0498046875,       -0.4119873047,        0.5645751953,        0.1525878906
1489456762.7638010979,1489456762.7662169933,       -0.7250976562,        0.0576171875,        0.0498046875,       -0.4119873047,        0.5645751953,        0.1525878906
1489456762.7664968967,1489456762.7689220905,       -0.7250976562,        0.0576171875,        0.0541992188,        0.1068115234,        0.2593994141,        0.1373291016
1489456762.7692000866,1489456762.7716159821,       -0.7373046875,        0.0639648438,        0.0541992188,        0.1068115234,        0.2593994141,        0.1373291016
1489456762.7718939781,1489456762.7743139267,       -0.7373046875,        0.0639648438,        0.0541992188,        0.0610351562,        0.3204345703,        0.2746582031
1489456762.7745909691,1489456762.7770071030,       -0.7373046875,        0.0639648438,        0.0541992188,        0.0610351562,        0.3204345703,        0.2746582031
1489456762.7772870064,1489456762.7796740532,       -0.7373046875,        0.0585937500,        0.0551757812,       -0.1373291016,        0.1373291016,        0.2288818359
1489456762.7799460888,1489456762.7822411060,       -0.7324218750,        0.0585937500,        0.0551757812,       -0.1373291016,        0.1373291016,        0.2288818359
1489456762.7825150490,1489456762.7848029137,       -0.7324218750,        0.0585937500,        0.0551757812,       -0.1373291016,        0.0305175781,       -0.3204345703
1489456762.7850780487,1489456762.7873759270,       -0.7324218750,        0.0585937500,        0.0551757812,       -0.1373291016,        0.0305175781,       -0.3204345703
1489456762.7876489162,1489456762.7900080681,       -0.7333984375,        0.0605468750,        0.0493164062,       -0.1373291016,       -3.8757324219,        0.0152587891
1489456762.7902820110,1489456762.7925779819,       -0.7333984375,        0.0605468750,        0.0493164062,       -0.0305175781,       -0.1373291016,        0.0152587891
1489456762.7928519249,1489456762.7951440811,       -0.7333984375,        0.0605468750,        0.0493164062,       -0.0305175781,       -0.1373291016,       -0.0610351562
1489456762.7954180241,1489456762.7977080345,       -0.7333984375,        0.0605468750,        0.0493164062,       -0.0915527344,       -0.1831054688,       -0.0610351562
1489456762.7979829311,1489456762.8003981113,       -0.7299804688,        0.0566406250,        0.0498046875,       -0.0915527344,       -0.1831054688,       -0.0610351562
1489456762.8006730080,1489456762.8029699326,       -0.7299804688,        0.0566406250,        0.0498046875,       -0.0915527344,        0.2136230469,       -0.0610351562
1489456762.8032450676,1489456762.8055379391,       -0.7299804688,        0.0566406250,        0.0498046875,       -0.0915527344,        0.2136230469,       -0.0610351562
1489456762.8059799671,1489456762.8083760738,       -0.7299804688,        0.0566406250,        0.0498046875,       -0.2441406250,        0.1068115234,        0.0915527344
1489456762.8086531162,1489456762.8111870289,       -0.7309570312,        0.0620117188,        0.0463867188,       -0.2441406250,        0.1068115234,        0.0915527344
1489456762.8114700317,1489456762.8138849735,       -0.7309570312,        0.0620117188,        0.0463867188,       -0.2593994141,        0.2441406250,        0.0152587891
1489456762.8141679764,1489456762.8165891171,       -0.7309570312,        0.0620117188,        0.0463867188,       -0.2593994141,        0.2441406250,       -3.8909912109
1489456762.8168709278,1489456762.8192770481,       -0.7309570312,        0.0620117188,        0.0541992188,       -0.2899169922,        0.2593994141,       -0.2593994141
1489456762.8195519447,1489456762.8218460083,       -0.7358398438,        0.0590820312,        0.0541992188,       -0.2899169922,        0.2593994141,       -0.2593994141
1489456762.8221199512,1489456762.8244159222,       -0.7358398438,        0.0590820312,        0.0541992188,       -0.1220703125,       -0.2441406250,       -0.1678466797
1489456762.8246901035,1489456762.8269848824,       -0.7358398438,        0.0590820312,        0.0541992188,       -0.1220703125,       -0.2441406250,       -0.1678466797
1489456762.8272609711,1489456762.8296520710,       -0.7358398438,        0.0590820312,        0.0493164062,       -0.1373291016,        0.2746582031,       -0.2288818359
1489456762.8299360275,1489456762.8323500156,       -0.7275390625,        0.0654296875,        0.0493164062,       -0.1373291016,        0.2746582031,       -0.2288818359
1489456762.8326320648,1489456762.8350560665,       -0.7275390625,        0.0654296875,        0.0493164062,        0.0610351562,        0.1373291016,       -0.0152587891
1489456762.8353309631,1489456762.8376228809,       -0.7275390625,        0.0654296875,        0.0493164062,        0.0610351562,        0.1373291016,       -0.0152587891
1489456762.8378961086,1489456762.8403999805,       -0.7275390625,        0.0556640625,        0.0473632812,       -0.3204345703,        0.0152587891,       -0.0610351562
1489456762.8406779766,1489456762.8430600166,       -0.7392578125,        0.0556640625,        0.0473632812,       -0.3204345703,        0.0152587891,       -0.0610351562
1489456762.8433389664,1489456762.8463459015,       -0.7392578125,        0.0556640625,        0.0473632812,       -0.3051757812,        0.4272460938,        0.0305175781
1489456762.8466300964,1489456762.8490600586,       -0.7392578125,        0.0556640625,        0.0473632812,       -0.3051757812,        0.4272460938,        0.0305175781
1489456762.8493421078,1489456762.8517620564,       -0.7290039062,        0.0576171875,        0.0473632812,       -0.7324218750,        0.3509521484,        0.0915527344
1489456762.8520441055,1489456762.8544640541,       -0.7290039062,        0.0576171875,        0.0473632812,       -0.7324218750,        0.3509521484,        0.0915527344
1489456762.8547480106,1489456762.8571660519,       -0.7290039062,        0.0576171875,        0.0473632812,       -1.0223388672,        0.3204345703,       -0.0305175781
1489456762.8574481010,1489456762.8598279953,       -0.7290039062,        0.0576171875,        0.0483398438,       -1.0223388672,        0.3204345703,       -0.0305175781
1489456762.8601028919,1489456762.8623950481,       -0.7338867188,        0.0595703125,        0.0483398438,       -0.7781982422,        0.1220703125,        0.0152587891
1489456762.8626689911,1489456762.8649621010,       -0.7338867188,        0.0595703125,        0.0483398438,       -0.7781982422,        0.1220703125,        0.0152587891
1489456762.8652360439,1489456762.8675260544,       -0.7338867188,        0.0595703125,        0.0483398438,       -0.7629394531,       -0.2899169922,        0.0152587891
1489456762.8677999973,1489456762.8701720238,       -0.7338867188,        0.0595703125,        0.0498046875,       -0.7629394531,       -0.2899169922,        0.0152587891
1489456762.8705649376,1489456762.8729810715,       -0.7333984375,        0.0571289062,        0.0498046875,       -0.7934570312,       -0.0915527344,        0.0305175781
1489456762.8732640743,1489456762.8756799698,       -0.7333984375,        0.0571289062,        0.0498046875,       -0.7934570312,       -0.0915527344,        0.0305175781
1489456762.8759629726,1489456762.8783791065,       -0.7333984375,        0.0571289062,        0.0498046875,       -0.3814697266,        0.2593994141,       -0.0457763672
1489456762.8786590099,1489456762.8809759617,       -0.7329101562,        0.0649414062,        0.0434570312,       -0.3814697266,        0.2593994141,       -0.0457763672
1489456762.8812499046,1489456762.8835411072,       -0.7329101562,        0.0649414062,        0.0434570312,       -0.5950927734,       -0.1220703125,       -0.1068115234
1489456762.8838160038,1489456762.8861119747,       -0.7329101562,        0.0649414062,        0.0434570312,       -0.5950927734,       -0.1220703125,       -0.1068115234
1489456762.8863859177,1489456762.8886790276,       -0.7329101562,        0.0649414062,        0.0434570312,       -0.5035400391,        0.2136230469,       -0.1068115234
1489456762.8890049458,1489456762.8913009167,       -0.7314453125,        0.0556640625,        0.0478515625,       -0.5035400391,        0.2136230469,       -0.1068115234
1489456762.8915779591,1489456762.8938720226,       -0.7314453125,        0.0556640625,        0.0478515625,       -0.5035400391,        0.2288818359,       -0.0762939453
1489456762.8941459656,1489456762.8964369297,       -0.7314453125,        0.0556640625,        0.0478515625,       -0.5035400391,        0.2288818359,       -0.0762939453
1489456762.8967120647,1489456762.8991620541,       -0.7314453125,        0.0556640625,        0.0478515625,       -0.5035400391,        0.0457763672,       -0.1220703125
1489456762.8994450569,1489456762.9018270969,       -0.7338867188,        0.0585937500,        0.0522460938,       -0.9918212891,        0.0457763672,       -0.1220703125
1489456762.9021070004,1489456762.9044880867,       -0.7338867188,        0.0585937500,        0.0522460938,       -0.9918212891,        0.3509521484,       -0.5187988281
1489456762.9047689438,1489456762.9071478844,       -0.7338867188,        0.0585937500,        0.0522460938,       -0.8697509766,        0.3509521484,       -0.5187988281
1489456762.9074270725,1489456762.9098250866,       -0.7338867188,        0.0585937500,        0.0522460938,       -0.8697509766,        0.4119873047,       -0.2746582031
1489456762.9100999832,1489456762.9123919010,       -0.7343750000,        0.0561523438,        0.0488281250,       -0.6561279297,        0.4119873047,       -0.2746582031
1489456762.9126670361,1489456762.9149580002,       -0.7343750000,        0.0561523438,        0.0488281250,       -0.6561279297,        0.4119873047,       -0.0152587891
1489456762.9152328968,1489456762.9175200462,       -0.7343750000,        0.0561523438,        0.0488281250,       -1.0528564453,        0.2136230469,       -0.0152587891
1489456762.9177949429,1489456762.9201660156,       -0.7343750000,        0.0561523438,        0.0488281250,       -1.0528564453,        0.2136230469,        3.8909912109
1489456762.9204490185,1489456762.9228680134,       -0.7299804688,        0.0576171875,        0.0522460938,       -0.7629394531,        0.0000000000,        0.0152587891
1489456762.9231479168,1489456762.9255559444,       -0.7299804688,        0.0576171875,        0.0522460938,       -0.7629394531,        0.0000000000,       -3.8909912109
1489456762.9258360863,1489456762.9282500744,       -0.7299804688,        0.0576171875,        0.0522460938,       -0.8239746094,        0.0305175781,       -0.1220703125
1489456762.9285318851,1489456762.9309558868,       -0.7299804688,        0.0659179688,        0.0566406250,       -0.8239746094,        0.0305175781,       -0.1220703125
1489456762.9312379360,1489456762.9336500168,       -0.7309570312,        0.0659179688,        0.0566406250,       -1.0681152344,        0.1068115234,       -0.1525878906
1489456762.9340438843,1489456762.9364640713,       -0.7309570312,        0.0659179688,        0.0566406250,       -1.0681152344,        0.1068115234,        3.7536621094
1489456762.9367449284,1489456762.9391639233,       -0.7309570312,        0.0659179688,        0.0566406250,       -1.2512207031,        0.7476806641,        0.0762939453
1489456762.9394450188,1489456762.9418609142,       -0.7319335938,        0.0556640625,        0.0468750000,       -1.2512207031,        0.7476806641,        0.0762939453
1489456762.9421429634,1489456762.9445590973,       -0.7319335938,        0.0556640625,        0.0468750000,       -1.1596679688,        0.5950927734,        0.0457763672
1489456762.9448399544,1489456762.9472579956,       -0.7319335938,        0.0556640625,        0.0468750000,       -1.1596679688,        0.5950927734,       -3.8604736328
1489456762.9475378990,1489456762.9499700069,       -0.7319335938,        0.0556640625,        0.0468750000,       -1.1749267578,        0.2136230469,       -0.0610351562
1489456762.9502530098,1489456762.9526720047,       -0.7338867188,        0.0541992188,        0.0449218750,       -1.1749267578,        0.2136230469,        3.8452148438
1489456762.9529531002,1489456762.9554500580,       -0.7338867188,        0.0541992188,        0.0449218750,       -0.9918212891,        0.4119873047,        0.1525878906
1489456762.9557309151,1489456762.9581499100,       -0.7338867188,        0.0541992188,        0.0449218750,       -0.9918212891,        0.4119873047,       -3.7536621094
1489456762.9584329128,1489456762.9607589245,       -0.7338867188,        0.0541992188,        0.0517578125,       -0.5187988281,        0.5645751953,       -0.1068115234
1489456762.9610331059,1489456762.9633240700,       -0.7333984375,        0.0615234375,        0.0517578125,       -0.5187988281,        0.5645751953,       -0.1068115234
1489456762.9635989666,1489456762.9658920765,       -0.7333984375,        0.0615234375,        0.0517578125,       -1.2664794922,        0.0457763672,        0.1525878906
1489456762.9661650658,1489456762.9684550762,       -0.7333984375,        0.0615234375,        0.0517578125,       -1.2664794922,        0.0457763672,        0.1525878906
1489456762.9687271118,1489456762.9711530209,       -0.7333984375,        0.0615234375,        0.0498046875,       -1.1138916016,       -0.3051757812,        0.5493164062
1489456762.9714360237,1489456762.9738540649,       -0.7299804688,        0.0664062500,        0.0498046875,       -1.1138916016,       -0.3051757812,        0.5493164062
1489456762.9741361141,1489456762.9765470028,       -0.7299804688,        0.0664062500,        0.0498046875,       -1.3122558594,       -0.1068115234,       -0.0152587891
1489456762.9768300056,1489456762.9792590141,       -0.7299804688,        0.0664062500,        0.0498046875,       -1.3122558594,       -0.1068115234,       -0.0152587891
1489456762.9795401096,1489456762.9819569588,       -0.7324218750,        0.0600585938,        0.0429687500,       -0.7934570312,        0.2746582031,       -0.0457763672
1489456762.9822380543,1489456762.9846549034,       -0.7324218750,        0.0600585938,        0.0429687500,       -0.7934570312,        0.2746582031,       -0.0457763672
1489456762.9849379063,1489456762.9873590469,       -0.7324218750,        0.0600585938,        0.0429687500,       -0.6256103516,        0.1373291016,        0.0915527344
1489456762.9876399040,1489456762.9900040627,       -0.7324218750,        0.0600585938,        0.0429687500,       -0.6256103516,        0.1373291016,        0.0915527344
1489456762.9902799129,1489456762.9925739765,       -0.7304687500,        0.0634765625,        0.0483398438,       -0.9613037109,       -0.1831054688,        0.1831054688
1489456762.9928491116,1489456762.9951429367,       -0.7304687500,        0.0634765625,        0.0483398438,       -0.9613037109,       -0.1831054688,        0.1831054688
1489456762.9954171181,1489456762.9977068901,       -0.7304687500,        0.0634765625,        0.0483398438,       -1.1749267578,       -0.0305175781,        0.0915527344
1489456762.9980878830,1489456763.0005009174,       -0.7304687500,        0.0634765625,        0.0483398438,       -1.1749267578,       -0.0305175781,        0.0915527344
1489456763.0007750988,1489456763.0030629635,       -0.7324218750,        0.0629882812,        0.0424804688,       -1.2054443359,        0.1983642578,        0.2746582031
1489456763.0033380985,1489456763.0056290627,       -0.7324218750,        0.0629882812,        0.0424804688,       -1.2054443359,        0.1983642578,        0.2746582031
1489456763.0059030056,1489456763.0082020760,       -0.7324218750,        0.0629882812,        0.0424804688,       -1.0681152344,        0.3814697266,        0.3814697266
1489456763.0084769726,1489456763.0108780861,       -0.7324218750,        0.0629882812,        0.0424804688,       -1.0681152344,        0.3814697266,        0.3814697266
1489456763.0111529827,1489456763.0134460926,       -0.7343750000,        0.0590820312,        0.0585937500,       -1.0681152344,        0.3662109375,        0.1373291016
1489456763.0137219429,1489456763.0160100460,       -0.7343750000,        0.0590820312,        0.0585937500,       -0.7171630859,        0.3662109375,        0.1373291016
1489456763.0162849426,1489456763.0185739994,       -0.7343750000,        0.0590820312,        0.0585937500,       -0.7171630859,        0.3662109375,        0.2136230469
1489456763.0188620090,1489456763.0212779045,       -0.7343750000,        0.0590820312,        0.0483398438,       -0.3814697266,        0.4425048828,        0.2136230469
1489456763.0215599537,1489456763.0239710808,       -0.7270507812,        0.0581054688,        0.0483398438,       -0.3814697266,        0.4425048828,        0.5645751953
1489456763.0242519379,1489456763.0266659260,       -0.7270507812,        0.0581054688,        0.0483398438,        0.1983642578,        0.0915527344,        0.5645751953
1489456763.0269479752,1489456763.0293710232,       -0.7270507812,        0.0581054688,        0.0483398438,        0.1983642578,        0.0915527344,        0.2136230469
1489456763.0296549797,1489456763.0320730209,       -0.7270507812,        0.0595703125,        0.0556640625,        0.0152587891,       -0.0610351562,        0.2136230469
1489456763.0323529243,1489456763.0347669125,       -0.7338867188,        0.0595703125,        0.0556640625,        0.0152587891,       -0.0610351562,        0.5950927734
1489456763.0350470543,1489456763.0374610424,       -0.7338867188,        0.0595703125,        0.0556640625,       -0.2746582031,        0.2136230469,        0.5950927734
1489456763.0377430916,1489456763.0400910378,       -0.7338867188,        0.0595703125,        0.0556640625,       -0.2746582031,        0.2136230469,        0.4425048828
1489456763.0403659344,1489456763.0426640511,       -0.7285156250,        0.0625000000,        0.0473632812,       -0.0915527344,        0.2899169922,        0.4425048828
1489456763.0429389477,1489456763.0452289581,       -0.7285156250,        0.0625000000,        0.0473632812,       -0.0915527344,        0.2899169922,        0.4425048828
1489456763.0455050468,1489456763.0477991104,       -0.7285156250,        0.0625000000,        0.0473632812,       -0.4425048828,       -0.1525878906,        0.5035400391
1489456763.0480759144,1489456763.0503990650,       -0.7285156250,        0.0625000000,        0.0473632812,       -0.4425048828,       -0.1525878906,        0.5035400391
1489456763.0506739616,1489456763.0529639721,       -0.7431640625,        0.0507812500,        0.0434570312,       -0.4272460938,        0.0610351562,        0.1983642578
1489456763.0532369614,1489456763.0555319786,       -0.7431640625,        0.0507812500,        0.0434570312,       -0.4272460938,        0.0610351562,        0.1983642578
1489456763.0558059216,1489456763.0580999851,       -0.7431640625,        0.0507812500,        0.0434570312,       -0.9460449219,       -0.0305175781,        0.2899169922
1489456763.0583739281,1489456763.0607609749,       -0.7431640625,        0.0507812500,        0.0434570312,       -0.9460449219,       -0.0305175781,        0.2899169922
1489456763.0611488819,1489456763.0635509491,       -0.7412109375,        0.0600585938,        0.0454101562,       -0.6713867188,       -0.2746582031,        0.1983642578
1489456763.0638329983,1489456763.0662260056,       -0.7412109375,        0.0600585938,        0.0454101562,       -0.6713867188,       -0.2746582031,        0.1983642578
1489456763.0665071011,1489456763.0689120293,       -0.7412109375,        0.0600585938,        0.0454101562,       -0.4272460938,       -0.0152587891,        0.1983642578
1489456763.0691950321,1489456763.0715970993,       -0.7412109375,        0.0600585938,        0.0454101562,       -0.4272460938,       -0.0152587891,        0.1983642578
1489456763.0718779564,1489456763.0742809772,       -0.7333984375,        0.0654296875,        0.0488281250,       -0.0762939453,        0.2288818359,        0.1525878906
1489456763.0745599270,1489456763.0769679546,       -0.7333984375,        0.0654296875,        0.0488281250,       -0.0762939453,        0.2288818359,        0.1525878906
1489456763.0772469044,1489456763.0796511173,       -0.7333984375,        0.0654296875,        0.0488281250,       -0.3509521484,       -0.1983642578,       -0.0457763672
1489456763.0799291134,1489456763.0823071003,       -0.7333984375,        0.0654296875,        0.0541992188,       -0.3509521484,       -0.1983642578,       -0.0457763672
1489456763.0825850964,1489456763.0849659443,       -0.7329101562,        0.0654296875,        0.0541992188,        0.0915527344,       -0.3814697266,        0.0305175781
1489456763.0852448940,1489456763.0876150131,       -0.7329101562,        0.0654296875,        0.0541992188,        0.0915527344,       -0.3814697266,        0.0305175781
1489456763.0878920555,1489456763.0903029442,       -0.7329101562,        0.0654296875,        0.0541992188,       -0.3662109375,       -0.5340576172,        0.1220703125
1489456763.0905849934,1489456763.0930070877,       -0.7343750000,        0.0600585938,        0.0576171875,       -0.3662109375,       -0.5340576172,        0.1220703125
1489456763.0932900906,1489456763.0957069397,       -0.7343750000,        0.0600585938,        0.0576171875,       -0.7019042969,       -0.2441406250,        0.2441406250
1489456763.0959889889,1489456763.0984120369,       -0.7343750000,        0.0600585938,        0.0576171875,       -0.7019042969,       -0.2441406250,        0.2441406250
1489456763.0986928940,1489456763.1010050774,       -0.7343750000,        0.0600585938,        0.0576171875,       -0.9002685547,       -0.2746582031,        0.0152587891
1489456763.1012809277,1489456763.1035730839,       -0.7255859375,        0.0634765625,        0.0498046875,       -0.9002685547,       -0.2746582031,        0.0152587891
1489456763.1038479805,1489456763.1061429977,       -0.7255859375,        0.0634765625,        0.0498046875,       -0.5950927734,        0.0457763672,       -0.1678466797
1489456763.1064159870,1489456763.1087059975,       -0.7255859375,        0.0634765625,        0.0498046875,       -0.5950927734,        0.0457763672,       -0.1678466797
1489456763.1089870930,1489456763.1114039421,       -0.7255859375,        0.0634765625,        0.0498046875,       -0.5950927734,       -0.0762939453,       -0.3051757812
1489456763.1116850376,1489456763.1141068935,       -0.7314453125,        0.0639648438,        0.0478515625,       -0.3051757812,       -0.0762939453,       -0.3051757812
1489456763.1143898964,1489456763.1168019772,       -0.7314453125,        0.0639648438,        0.0478515625,       -0.3051757812,       -0.3509521484,       -0.0152587891
1489456763.1170840263,1489456763.1195120811,       -0.7314453125,        0.0639648438,        0.0478515625,        0.0000000000,       -0.3509521484,       -0.0152587891
1489456763.1197929382,1489456763.1222100258,       -0.7314453125,        0.0639648438,        0.0595703125,        0.0000000000,       -0.0915527344,       -0.3051757812
1489456763.1224930286,1489456763.1249070168,       -0.7309570312,        0.0625000000,        0.0595703125,       -0.0915527344,       -0.0915527344,       -0.3051757812
1489456763.1252880096,1489456763.1277120113,       -0.7309570312,        0.0625000000,        0.0595703125,        3.8146972656,       -0.6866455078,       -0.4577636719
1489456763.1279931068,1489456763.1304509640,       -0.7309570312,        0.0625000000,        0.0595703125,        0.6713867188,       -0.6866455078,       -0.4577636719
1489456763.1307330132,1489456763.1331460476,       -0.7309570312,        0.0659179688,        0.0458984375,        0.6713867188,       -0.2593994141,       -0.2441406250
1489456763.1334280968,1489456763.1358509064,       -0.7319335938,        0.0659179688,        0.0458984375,        0.3051757812,       -0.2593994141,       -0.2441406250
1489456763.1361320019,1489456763.1385478973,       -0.7319335938,        0.0659179688,        0.0458984375,        0.3051757812,       -0.2441406250,       -0.3662109375
1489456763.1388399601,1489456763.1412510872,       -0.7319335938,        0.0659179688,        0.0458984375,       -0.1525878906,       -0.2441406250,       -0.3662109375
1489456763.1415290833,1489456763.1438200474,       -0.7324218750,        0.0659179688,        0.0541992188,       -0.1525878906,       -0.2441406250,       -0.5340576172
1489456763.1440949440,1489456763.1463921070,       -0.7324218750,        0.0659179688,        0.0541992188,       -0.1983642578,       -0.3662109375,       -0.5340576172
1489456763.1466679573,1489456763.1490280628,       -0.7324218750,        0.0659179688,        0.0541992188,       -0.1983642578,       -0.3662109375,       -0.3662109375
1489456763.1493079662,1489456763.1516890526,       -0.7324218750,        0.0659179688,        0.0541992188,        0.0000000000,       -0.2136230469,       -0.3662109375
1489456763.1519680023,1489456763.1543500423,       -0.7275390625,        0.0620117188,        0.0449218750,        0.0000000000,       -0.2136230469,       -0.1983642578
1489456763.1546869278,1489456763.1570808887,       -0.7275390625,        0.0620117188,        0.0449218750,       -0.2746582031,       -0.2593994141,       -0.1983642578
1489456763.1573619843,1489456763.1604681015,       -0.7275390625,        0.0620117188,        0.0449218750,        3.6315917969,       -0.4119873047,       -0.3967285156
1489456763.1607460976,1489456763.1630330086,       -0.7275390625,        0.0585937500,        0.0429687500,        0.0762939453,       -0.4119873047,       -0.3967285156
1489456763.1633069515,1489456763.1655941010,       -0.7338867188,        0.0585937500,        0.0429687500,        0.0762939453,       -0.4119873047,       -0.4272460938
1489456763.1658699512,1489456763.1681590080,       -0.7338867188,        0.0585937500,        0.0429687500,       -0.3356933594,       -0.1220703125,       -0.4272460938
1489456763.1684339046,1489456763.1707990170,       -0.7338867188,        0.0585937500,        0.0429687500,       -0.3356933594,       -0.1220703125,       -0.2746582031
1489456763.1710751057,1489456763.1733610630,       -0.7338867188,        0.0595703125,        0.0512695312,       -0.4425048828,       -0.1678466797,       -0.2746582031
1489456763.1736369133,1489456763.1759231091,       -0.7348632812,        0.0595703125,        0.0512695312,       -0.4425048828,       -0.1678466797,       -0.2746582031
1489456763.1761980057,1489456763.1784811020,       -0.7348632812,        0.0595703125,        0.0512695312,       -0.1220703125,       -0.1678466797,       -0.3509521484
1489456763.1787569523,1489456763.1810491085,       -0.7348632812,        0.0595703125,        0.0512695312,       -0.1220703125,       -0.1678466797,       -0.3509521484
1489456763.1813230515,1489456763.1836140156,       -0.7309570312,        0.0678710938,        0.0449218750,       -0.0457763672,       -0.3967285156,       -0.4119873047
1489456763.1838870049,1489456763.1861760616,       -0.7309570312,        0.0678710938,        0.0449218750,       -0.0457763672,       -0.3967285156,       -0.4119873047
1489456763.1864500046,1489456763.1887359619,       -0.7309570312,        0.0678710938,        0.0449218750,        0.0152587891,       -0.7476806641,       -0.7019042969
1489456763.1890718937,1489456763.1913659573,       -0.7309570312,        0.0678710938,        0.0449218750,        0.0152587891,       -0.7476806641,       -0.7019042969
1489456763.1917459965,1489456763.1940391064,       -0.7353515625,        0.0639648438,        0.0576171875,        0.0000000000,       -0.3051757812,       -0.7934570312
1489456763.1943130493,1489456763.1966080666,       -0.7353515625,        0.0639648438,        0.0576171875,        0.0000000000,       -0.3051757812,       -0.7934570312
1489456763.1968839169,1489456763.1992421150,       -0.7353515625,        0.0639648438,        0.0576171875,        0.0305175781,       -0.0457763672,       -0.3509521484
1489456763.1995160580,1489456763.2018001080,       -0.7353515625,        0.0639648438,        0.0576171875,        0.0305175781,       -0.0457763672,       -0.3509521484
1489456763.2020750046,1489456763.2043650150,       -0.7324218750,        0.0605468750,        0.0473632812,        0.0000000000,       -0.3356933594,        0.0152587891
1489456763.2046411037,1489456763.2069280148,       -0.7324218750,        0.0605468750,        0.0473632812,        0.0000000000,       -0.3356933594,        0.0152587891
1489456763.2072029114,1489456763.2095959187,       -0.7324218750,        0.0605468750,        0.0473632812,        0.1068115234,       -0.4119873047,       -0.3204345703
1489456763.2098720074,1489456763.2121689320,       -0.7324218750,        0.0605468750,        0.0473632812,        0.1068115234,       -0.4119873047,       -0.3204345703
1489456763.2124431133,1489456763.2147309780,       -0.7329101562,        0.0615234375,        0.0419921875,        0.1068115234,       -0.2136230469,       -0.4425048828
1489456763.2150039673,1489456763.2172958851,       -0.7329101562,        0.0615234375,        0.0419921875,       -0.6103515625,       -0.2136230469,       -0.4425048828
1489456763.2175700665,1489456763.2200100422,       -0.7329101562,        0.0615234375,        0.0419921875,       -0.6103515625,       -0.2136230469,       -0.3051757812
1489456763.2202939987,1489456763.2227110863,       -0.7329101562,        0.0615234375,        0.0419921875,       -0.1831054688,       -0.0152587891,       -0.3051757812
1489456763.2229919434,1489456763.2254099846,       -0.7314453125,        0.0634765625,        0.0502929688,       -0.1831054688,       -0.0152587891,       -0.2136230469
1489456763.2256910801,1489456763.2281088829,       -0.7314453125,        0.0634765625,        0.0502929688,       -0.2288818359,       -0.2746582031,       -0.2136230469
1489456763.2283909321,1489456763.2307460308,       -0.7314453125,        0.0634765625,        0.0502929688,       -0.2288818359,       -0.2746582031,       -0.3509521484
1489456763.2310209274,1489456763.2333109379,       -0.7314453125,        0.0634765625,        0.0493164062,        0.1373291016,       -0.3814697266,       -0.3509521484
1489456763.2335839272,1489456763.2358779907,       -0.7299804688,        0.0605468750,        0.0493164062,        0.1373291016,       -0.3814697266,       -0.3509521484
1489456763.2361519337,1489456763.2384440899,       -0.7299804688,        0.0605468750,        0.0493164062,        0.0457763672,       -0.2899169922,       -0.2136230469
1489456763.2387170792,1489456763.2411379814,       -0.7299804688,        0.0605468750,        0.0493164062,        0.0457763672,       -0.2899169922,       -0.2136230469
1489456763.2414228916,1489456763.2438390255,       -0.7299804688,        0.0595703125,        0.0449218750,        0.4882812500,       -0.4577636719,       -0.6408691406
1489456763.2441229820,1489456763.2465429306,       -0.7358398438,        0.0595703125,        0.0449218750,        0.4882812500,       -0.4577636719,       -0.6408691406
1489456763.2468249798,1489456763.2492280006,       -0.7358398438,        0.0595703125,        0.0449218750,        0.3509521484,       -0.3204345703,       -0.5950927734
1489456763.2495019436,1489456763.2517900467,       -0.7358398438,        0.0595703125,        0.0449218750,        0.3509521484,       -0.3204345703,       -0.5950927734
1489456763.2520649433,1489456763.2543570995,       -0.7343750000,        0.0590820312,        0.0502929688,        0.3204345703,       -0.2593994141,       -0.3204345703
1489456763.2547369003,1489456763.2570259571,       -0.7343750000,        0.0590820312,        0.0502929688,        0.3204345703,       -0.2593994141,       -0.3204345703
1489456763.2573020458,1489456763.2596910000,       -0.7343750000,        0.0590820312,        0.0502929688,       -0.2746582031,       -0.1373291016,       -0.0762939453
1489456763.2599740028,1489456763.2623910904,       -0.7343750000,        0.0590820312,        0.0502929688,       -0.2746582031,       -0.1373291016,       -0.0762939453
1489456763.2626740932,1489456763.2650880814,       -0.7299804688,        0.0629882812,        0.0493164062,       -0.1983642578,       -0.0152587891,       -0.2593994141
1489456763.2653689384,1489456763.2677869797,       -0.7299804688,        0.0629882812,        0.0493164062,       -0.1983642578,       -0.0152587891,       -0.2593994141
1489456763.2680690289,1489456763.2704989910,       -0.7299804688,        0.0629882812,        0.0493164062,       -0.0152587891,       -0.0762939453,       -0.4272460938
1489456763.2707810402,1489456763.2731919289,       -0.7299804688,        0.0629882812,        0.0493164062,       -0.0152587891,       -0.0762939453,       -0.4272460938
1489456763.2734749317,1489456763.2759809494,       -0.7314453125,        0.0639648438,        0.0551757812,        0.2441406250,       -0.3051757812,       -0.3204345703
1489456763.2762639523,1489456763.2786819935,       -0.7314453125,        0.0639648438,        0.0551757812,        0.2441406250,       -0.3051757812,       -0.3204345703
1489456763.2789669037,1489456763.2812640667,       -0.7314453125,        0.0639648438,        0.0551757812,       -0.4882812500,       -0.1983642578,       -0.3204345703
1489456763.2815380096,1489456763.2838330269,       -0.7314453125,        0.0639648438,        0.0546875000,       -0.4882812500,       -0.1983642578,       -0.3204345703
1489456763.2841100693,1489456763.2864019871,       -0.7358398438,        0.0581054688,        0.0546875000,        0.1983642578,       -0.1220703125,       -0.5798339844
1489456763.2866768837,1489456763.2890369892,       -0.7358398438,        0.0581054688,        0.0546875000,        0.1983642578,       -0.1220703125,       -0.5798339844
1489456763.2893199921,1489456763.2917330265,       -0.7358398438,        0.0581054688,        0.0546875000,        0.9918212891,       -0.3051757812,       -0.5340576172
1489456763.2920160294,1489456763.2944309711,       -0.7358398438,        0.0644531250,        0.0507812500,        0.9918212891,       -0.3051757812,       -0.5340576172
1489456763.2947139740,1489456763.2971260548,       -0.7299804688,        0.0644531250,        0.0507812500,        0.9613037109,       -0.5187988281,       -0.2441406250
1489456763.2974081039,1489456763.2998359203,       -0.7299804688,        0.0644531250,        0.0507812500,        0.9613037109,       -0.5187988281,       -0.2441406250
1489456763.3001189232,1489456763.3025360107,       -0.7299804688,        0.0644531250,        0.0507812500,        0.8697509766,       -0.7324218750,       -0.4730224609
1489456763.3028180599,1489456763.3052380085,       -0.7343750000,        0.0537109375,        0.0512695312,        0.8697509766,       -0.7324218750,       -0.4730224609
1489456763.3055210114,1489456763.3079349995,       -0.7343750000,        0.0537109375,        0.0512695312,        0.8087158203,       -0.6103515625,       -0.4272460938
1489456763.3082170486,1489456763.3105518818,       -0.7343750000,        0.0537109375,        0.0512695312,        0.8087158203,       -0.6103515625,       -0.4272460938
1489456763.3108270168,1489456763.3131170273,       -0.7343750000,        0.0537109375,        0.0512695312,        0.3814697266,       -0.5798339844,       -0.5340576172
1489456763.3133919239,1489456763.3156869411,       -0.7319335938,        0.0629882812,        0.0361328125,        0.3814697266,       -0.5798339844,       -0.5340576172
1489456763.3159620762,1489456763.3182530403,       -0.7319335938,        0.0629882812,        0.0361328125,        0.3814697266,       -0.5340576172,       -0.8087158203
1489456763.3186340332,1489456763.3210780621,       -0.7319335938,        0.0629882812,        0.0361328125,        0.1373291016,       -0.5340576172,       -0.8087158203
1489456763.3213539124,1489456763.3236560822,       -0.7319335938,        0.0629882812,        0.0361328125,       -3.7689208984,       -0.2899169922,       -0.5493164062
1489456763.3239319324,1489456763.3262209892,       -0.7338867188,        0.0595703125,        0.0502929688,       -0.1068115234,       -0.2899169922,       -0.5493164062
1489456763.3264949322,1489456763.3289489746,       -0.7338867188,        0.0595703125,        0.0502929688,       -0.1068115234,       -0.2899169922,       -0.5187988281
1489456763.3292319775,1489456763.3316519260,       -0.7338867188,        0.0595703125,        0.0502929688,        0.0457763672,       -0.5493164062,       -0.5187988281
1489456763.3319330215,1489456763.3343479633,       -0.7338867188,        0.0595703125,        0.0444335938,        0.0457763672,       -0.5493164062,       -0.2593994141
1489456763.3346281052,1489456763.3370509148,       -0.7290039062,        0.0576171875,        0.0444335938,        0.2136230469,       -0.5035400391,       -0.2593994141
1489456763.3373351097,1489456763.3397541046,       -0.7290039062,        0.0576171875,        0.0444335938,        0.2136230469,       -0.5035400391,        0.0305175781
1489456763.3400349617,1489456763.3424510956,       -0.7290039062,        0.0576171875,        0.0444335938,        0.1373291016,       -0.3662109375,        0.0305175781
1489456763.3427340984,1489456763.3451569080,       -0.7290039062,        0.0576171875,        0.0400390625,        0.1373291016,       -0.3662109375,       -0.3051757812
1489456763.3454380035,1489456763.3478529453,       -0.7397460938,        0.0576171875,        0.0400390625,        0.1678466797,       -0.5493164062,       -0.3051757812
1489456763.3481359482,1489456763.3505589962,       -0.7397460938,        0.0576171875,        0.0400390625,        0.1678466797,       -0.5493164062,       -0.4119873047
1489456763.3508419991,1489456763.3532619476,       -0.7397460938,        0.0576171875,        0.0400390625,       -0.2441406250,       -0.3509521484,       -0.4119873047
1489456763.3535449505,1489456763.3559598923,       -0.7309570312,        0.0659179688,        0.0458984375,       -0.2441406250,       -0.3509521484,       -0.2593994141
1489456763.3562428951,1489456763.3586659431,       -0.7309570312,        0.0659179688,        0.0458984375,       -0.3662109375,        0.0152587891,       -0.2593994141
1489456763.3589570522,1489456763.3612439632,       -0.7309570312,        0.0659179688,        0.0458984375,       -0.3662109375,        0.0152587891,       -0.1831054688
1489456763.3615190983,1489456763.3638091087,       -0.7309570312,        0.0659179688,        0.0458984375,        0.4577636719,       -0.3204345703,       -0.1831054688
1489456763.3640830517,1489456763.3663780689,       -0.7255859375,        0.0673828125,        0.0454101562,        0.4577636719,       -0.3204345703,       -0.1831054688
1489456763.3666529655,1489456763.3689589500,       -0.7255859375,        0.0673828125,        0.0454101562,        0.6866455078,       -0.6561279297,       -0.4425048828
1489456763.3692409992,1489456763.3716640472,       -0.7255859375,        0.0673828125,        0.0454101562,        0.6866455078,       -0.6561279297,       -0.4425048828
1489456763.3719449043,1489456763.3743619919,       -0.7255859375,        0.0673828125,        0.0454101562,        0.7781982422,       -0.9002685547,       -0.4425048828
1489456763.3746430874,1489456763.3770570755,       -0.7309570312,        0.0615234375,        0.0517578125,        0.7781982422,       -0.9002685547,       -0.4425048828
1489456763.3773379326,1489456763.3797619343,       -0.7309570312,        0.0615234375,        0.0517578125,        0.8697509766,       -0.7171630859,       -0.8087158203
1489456763.3800439835,1489456763.3824570179,       -0.7309570312,        0.0615234375,        0.0517578125,        0.8697509766,       -0.7171630859,       -0.8087158203
1489456763.3828480244,1489456763.3852610588,       -0.7309570312,        0.0571289062,        0.0546875000,        1.2664794922,       -0.6256103516,       -0.8392333984
1489456763.3855431080,1489456763.3879590034,       -0.7255859375,        0.0571289062,        0.0546875000,        1.2664794922,       -0.6256103516,       -0.8392333984
1489456763.3882410526,1489456763.3906660080,       -0.7255859375,        0.0571289062,        0.0546875000,        0.9765625000,       -0.5493164062,       -0.6408691406
1489456763.3909480572,1489456763.3933610916,       -0.7255859375,        0.0571289062,        0.0546875000,        0.9765625000,       -0.5493164062,       -0.6408691406
1489456763.3936429024,1489456763.3960649967,       -0.7314453125,        0.0571289062,        0.0473632812,        0.0305175781,       -0.3509521484,       -0.1983642578
1489456763.3963470459,1489456763.3987600803,       -0.7314453125,        0.0571289062,        0.0473632812,        0.0305175781,       -0.3509521484,       -0.1983642578
1489456763.3990929127,1489456763.4015150070,       -0.7314453125,        0.0571289062,        0.0473632812,       -0.0762939453,       -0.1983642578,       -0.3204345703
1489456763.4017970562,1489456763.4042129517,       -0.7314453125,        0.0571289062,        0.0473632812,       -0.0762939453,       -0.1983642578,       -0.3204345703
1489456763.4044930935,1489456763.4069070816,       -0.7290039062,        0.0639648438,        0.0468750000,       -0.0457763672,       -0.3509521484,       -0.3814697266
1489456763.4071888924,1489456763.4096078873,       -0.7290039062,        0.0639648438,        0.0468750000,       -0.0457763672,       -0.3509521484,       -0.3814697266
1489456763.4098839760,1489456763.4121749401,       -0.7290039062,        0.0639648438,        0.0468750000,        0.4272460938,       -0.5950927734,       -0.2136230469
1489456763.4124500751,1489456763.4147419930,       -0.7290039062,        0.0639648438,        0.0468750000,        0.4272460938,       -0.5950927734,       -0.2136230469
1489456763.4150159359,1489456763.4173150063,       -0.7241210938,        0.0698242188,        0.0546875000,        0.9155273438,       -0.6408691406,       -0.2899169922
1489456763.4175879955,1489456763.4199869633,       -0.7241210938,        0.0698242188,        0.0546875000,        0.9155273438,       -0.6408691406,       -0.2899169922
1489456763.4202709198,1489456763.4226889610,       -0.7241210938,        0.0698242188,        0.0546875000,        1.0528564453,       -0.6561279297,       -0.1220703125
1489456763.4229719639,1489456763.4253859520,       -0.7241210938,        0.0698242188,        0.0405273438,        1.0528564453,       -0.6561279297,       -0.1220703125
1489456763.4256689548,1489456763.4280869961,       -0.7236328125,        0.0698242188,        0.0405273438,        1.5869140625,       -0.6866455078,       -0.5798339844
1489456763.4283690453,1489456763.4308381081,       -0.7236328125,        0.0698242188,        0.0405273438,        1.5869140625,       -0.6866455078,       -0.5798339844
1489456763.4311199188,1489456763.4335339069,       -0.7236328125,        0.0698242188,        0.0405273438,        2.2735595703,       -0.8392333984,       -0.5035400391
1489456763.4338150024,1489456763.4362280369,       -0.7275390625,        0.0683593750,        0.0483398438,        2.2735595703,       -0.8392333984,       -0.5035400391
1489456763.4365088940,1489456763.4389369488,       -0.7275390625,        0.0683593750,        0.0483398438,        2.4871826172,       -1.1749267578,       -0.7171630859
1489456763.4392189980,1489456763.4416310787,       -0.7275390625,        0.0683593750,        0.0483398438,        2.4871826172,       -1.1749267578,       -0.7171630859
1489456763.4419109821,1489456763.4443309307,       -0.7275390625,        0.0683593750,        0.0483398438,        2.7465820312,       -0.7781982422,       -1.1138916016
1489456763.4446110725,1489456763.4470229149,       -0.7338867188,        0.0585937500,        0.0454101562,        2.7465820312,       -0.7781982422,       -1.1138916016
1489456763.4474101067,1489456763.4498360157,       -0.7338867188,        0.0585937500,        0.0454101562,        2.7313232422,       -0.7324218750,       -0.8544921875
1489456763.4501190186,1489456763.4525411129,       -0.7338867188,        0.0585937500,        0.0454101562,        2.7313232422,       -0.7324218750,       -0.8544921875
1489456763.4528241158,1489456763.4552369118,       -0.7338867188,        0.0585937500,        0.0454101562,        1.8615722656,       -0.7019042969,       -0.7171630859
1489456763.4555180073,1489456763.4579350948,       -0.7397460938,        0.0581054688,        0.0449218750,        1.8615722656,       -0.7019042969,       -0.7171630859
1489456763.4582159519,1489456763.4605588913,       -0.7397460938,        0.0581054688,        0.0449218750,        0.8697509766,       -0.6866455078,       -0.3051757812
1489456763.4608330727,1489456763.4631230831,       -0.7397460938,        0.0581054688,        0.0449218750,        0.8697509766,       -0.6866455078,       -0.3051757812
1489456763.4633970261,1489456763.4656949043,       -0.7397460938,        0.0581054688,        0.0502929688,        0.4425048828,       -0.3662109375,       -0.3967285156
1489456763.4659700394,1489456763.4682590961,       -0.7353515625,        0.0605468750,        0.0502929688,        0.4425048828,       -0.3662109375,       -0.3967285156
1489456763.4685339928,1489456763.4709870815,       -0.7353515625,        0.0605468750,        0.0502929688,        0.7324218750,       -0.0152587891,       -0.3204345703
1489456763.4712719917,1489456763.4736969471,       -0.7353515625,        0.0605468750,        0.0502929688,        0.7324218750,       -0.0152587891,       -0.3204345703
1489456763.4739770889,1489456763.4763948917,       -0.7353515625,        0.0678710938,        0.0434570312,        1.1444091797,       -0.1220703125,       -0.1678466797
1489456763.4766759872,1489456763.4790999889,       -0.7329101562,        0.0678710938,        0.0434570312,        1.1444091797,       -0.1220703125,       -0.1678466797
1489456763.4793810844,1489456763.4818019867,       -0.7329101562,        0.0678710938,        0.0434570312,        1.6937255859,       -0.3814697266,       -0.4730224609
1489456763.4820840359,1489456763.4845008850,       -0.7329101562,        0.0678710938,        0.0434570312,        1.6937255859,       -0.3814697266,       -0.4730224609
1489456763.4847829342,1489456763.4872078896,       -0.7333984375,        0.0600585938,        0.0429687500,        2.1057128906,       -0.3204345703,       -0.6103515625
1489456763.4874889851,1489456763.4899189472,       -0.7333984375,        0.0600585938,        0.0429687500,        2.1057128906,       -0.3204345703,       -0.6103515625
1489456763.4901990891,1489456763.4926149845,       -0.7333984375,        0.0600585938,        0.0429687500,        1.7089843750,       -0.5035400391,       -0.1525878906
1489456763.4928970337,1489456763.4953179359,       -0.7333984375,        0.0600585938,        0.0429687500,        1.7089843750,       -0.5035400391,       -0.1525878906
1489456763.4955999851,1489456763.4980161190,       -0.7260742188,        0.0449218750,        0.0449218750,        1.7089843750,       -0.7324218750,       -0.2136230469
1489456763.4982979298,1489456763.5007250309,       -0.7260742188,        0.0449218750,        0.0449218750,        1.1901855469,       -0.7324218750,       -0.2136230469
1489456763.5010070801,1489456763.5034260750,       -0.7260742188,        0.0449218750,        0.0449218750,       -2.7160644531,       -0.2441406250,        0.0610351562
1489456763.5037078857,1489456763.5061221123,       -0.7260742188,        0.0449218750,        0.0322265625,       -0.1831054688,       -0.2441406250,        0.0610351562
1489456763.5064029694,1489456763.5088319778,       -0.7299804688,        0.0541992188,        0.0322265625,       -0.1831054688,        0.0305175781,        0.3204345703
1489456763.5091071129,1489456763.5113959312,       -0.7299804688,        0.0541992188,        0.0322265625,       -0.5798339844,        0.0305175781,        0.3204345703
1489456763.5117781162,1489456763.5140709877,       -0.7299804688,        0.0541992188,        0.0322265625,       -0.5798339844,        0.4882812500,        0.1373291016
1489456763.5143458843,1489456763.5166459084,       -0.7299804688,        0.0722656250,        0.0180664062,       -1.0375976562,        0.4882812500,        0.1373291016
1489456763.5169210434,1489456763.5192930698,       -0.7514648438,        0.0722656250,        0.0180664062,       -1.0375976562,        0.4882812500,        0.3814697266
1489456763.5195751190,1489456763.5219910145,       -0.7514648438,        0.0722656250,        0.0180664062,       -0.7171630859,        0.6713867188,        0.3814697266
1489456763.5222721100,1489456763.5246949196,       -0.7514648438,        0.0722656250,        0.0180664062,       -0.7171630859,        0.6713867188,        0.2899169922
1489456763.5249779224,1489456763.5273950100,       -0.7382812500,        0.0761718750,        0.0361328125,       -0.4272460938,        0.1068115234,        0.2899169922
1489456763.5276780128,1489456763.5301098824,       -0.7382812500,        0.0761718750,        0.0361328125,       -0.4272460938,        0.1068115234,        0.3662109375
1489456763.5303928852,1489456763.5328071117,       -0.7382812500,        0.0761718750,        0.0361328125,       -0.6866455078,       -0.1068115234,        0.3662109375
1489456763.5330879688,1489456763.5355000496,       -0.7382812500,        0.0761718750,        0.0361328125,       -0.6866455078,       -0.1068115234,        0.2593994141
1489456763.5357820988,1489456763.5382049084,       -0.7250976562,        0.0546875000,        0.0561523438,       -0.0762939453,       -0.1068115234,        0.2593994141
1489456763.5384879112,1489456763.5409159660,       -0.7250976562,        0.0546875000,        0.0561523438,       -0.0762939453,       -0.1068115234,        0.2288818359
1489456763.5411980152,1489456763.5436179638,       -0.7250976562,        0.0546875000,        0.0561523438,        0.1220703125,       -0.4272460938,        0.2288818359
1489456763.5439019203,1489456763.5463199615,       -0.7250976562,        0.0546875000,        0.0561523438,        0.1220703125,       -0.4272460938,        0.6408691406
1489456763.5466029644,1489456763.5490319729,       -0.7236328125,        0.0493164062,        0.0444335938,        0.1068115234,       -0.7476806641,        0.6408691406
1489456763.5494799614,1489456763.5517730713,       -0.7236328125,        0.0493164062,        0.0444335938,        0.1068115234,       -0.7476806641,        0.7934570312
1489456763.5520479679,1489456763.5543360710,       -0.7236328125,        0.0493164062,        0.0444335938,       -0.7476806641,       -0.5798339844,        0.7934570312
1489456763.5546100140,1489456763.5568969250,       -0.7236328125,        0.0400390625,        0.0493164062,       -0.7476806641,       -0.5798339844,        0.7934570312
1489456763.5571711063,1489456763.5596780777,       -0.7294921875,        0.0400390625,        0.0493164062,       -1.4343261719,       -0.0610351562,        1.1749267578
1489456763.5599539280,1489456763.5622520447,       -0.7294921875,        0.0400390625,        0.0493164062,       -1.4343261719,       -0.0610351562,        1.1749267578
1489456763.5625259876,1489456763.5649139881,       -0.7294921875,        0.0400390625,        0.0493164062,       -1.4038085938,        0.3356933594,        1.7395019531
1489456763.5651869774,1489456763.5674870014,       -0.7324218750,        0.0454101562,        0.0629882812,       -1.4038085938,        0.3356933594,        1.7395019531
1489456763.5685060024,1489456763.5709409714,       -0.7324218750,        0.0454101562,        0.0629882812,       -1.5563964844,        0.2136230469,        2.0141601562
1489456763.5712170601,1489456763.5735108852,       -0.7324218750,        0.0454101562,        0.0629882812,       -1.5563964844,        0.2136230469,        2.5177001953
1489456763.5737850666,1489456763.5760729313,       -0.7324218750,        0.0454101562,        0.0629882812,       -2.3040771484,        0.0305175781,        2.5177001953
1489456763.5764539242,1489456763.5787439346,       -0.7407226562,        0.0395507812,        0.0708007812,       -2.3040771484,        0.0305175781,        2.5177001953
1489456763.5790760517,1489456763.5813610554,       -0.7407226562,        0.0395507812,        0.0708007812,       -2.6702880859,       -0.0610351562,        2.4871826172
1489456763.5816340446,1489456763.5839240551,       -0.7407226562,        0.0395507812,        0.0708007812,       -2.6702880859,       -0.0610351562,        2.4871826172
1489456763.5841960907,1489456763.5864880085,       -0.7407226562,        0.0395507812,        0.0708007812,       -1.7700195312,        0.1831054688,        2.3956298828
1489456763.5867629051,1489456763.5890700817,       -0.7480468750,        0.0493164062,        0.0727539062,       -1.7700195312,        0.1831054688,        2.3956298828
1489456763.5893430710,1489456763.5916349888,       -0.7480468750,        0.0493164062,        0.0727539062,       -1.4801025391,        0.4425048828,        2.4261474609
1489456763.5919110775,1489456763.5942010880,       -0.7480468750,        0.0493164062,        0.0727539062,       -1.4801025391,        0.4425048828,        2.4261474609
1489456763.5944740772,1489456763.5967628956,       -0.7480468750,        0.0493164062,        0.0649414062,       -0.8087158203,        0.8087158203,        2.1362304688
1489456763.5970370770,1489456763.5993309021,       -0.7373046875,        0.0795898438,        0.0649414062,       -0.8087158203,        0.8087158203,        2.1362304688
1489456763.5996050835,1489456763.6018979549,       -0.7373046875,        0.0795898438,        0.0649414062,       -0.8087158203,        0.9002685547,        2.0141601562
1489456763.6021718979,1489456763.6044609547,       -0.7373046875,        0.0795898438,        0.0649414062,       -0.8087158203,        0.9002685547,        2.0141601562
1489456763.6047339439,1489456763.6070239544,       -0.7373046875,        0.0795898438,        0.0688476562,        0.3814697266,        0.8544921875,        1.7547607422
1489456763.6072959900,1489456763.6097490788,       -0.7387695312,        0.0605468750,        0.0688476562,        0.3814697266,        0.8544921875,        1.7547607422
1489456763.6100239754,1489456763.6123170853,       -0.7387695312,        0.0605468750,        0.0688476562,        1.4801025391,        0.4425048828,        1.8615722656
1489456763.6125900745,1489456763.6148838997,       -0.7387695312,        0.0605468750,        0.0688476562,        1.4801025391,        0.4425048828,        1.8615722656
1489456763.6151568890,1489456763.6174480915,       -0.7387695312,        0.0717773438,        0.0708007812,        1.4801025391,        0.5493164062,        1.8615722656
1489456763.6177220345,1489456763.6201920509,       -0.7373046875,        0.0717773438,        0.0708007812,        1.8463134766,        0.5493164062,        1.8615722656
1489456763.6204719543,1489456763.6228909492,       -0.7373046875,        0.0717773438,        0.0708007812,        1.8463134766,        0.5493164062,        1.7242431641
1489456763.6231710911,1489456763.6255929470,       -0.7373046875,        0.0717773438,        0.0708007812,        2.5482177734,        0.9002685547,        1.7242431641
1489456763.6258730888,1489456763.6282949448,       -0.7280273438,        0.0722656250,        0.0561523438,        2.5482177734,        0.9002685547,        1.4343261719
1489456763.6285769939,1489456763.6310389042,       -0.7280273438,        0.0722656250,        0.0561523438,        3.5858154297,        0.8087158203,        1.4343261719
1489456763.6313219070,1489456763.6337399483,       -0.7280273438,        0.0722656250,        0.0561523438,        3.5858154297,        0.8087158203,        1.4038085938
1489456763.6340210438,1489456763.6364390850,       -0.7280273438,        0.0722656250,        0.0561523438,        3.6010742188,        1.1596679688,        1.4038085938
1489456763.6367180347,1489456763.6391429901,       -0.7368164062,        0.0639648438,        0.0532226562,        3.6010742188,        1.1596679688,        1.3122558594
1489456763.6395289898,1489456763.6419498920,       -0.7368164062,        0.0639648438,        0.0532226562,        3.6163330078,        1.0833740234,        1.3122558594
1489456763.6422319412,1489456763.6446499825,       -0.7368164062,        0.0639648438,        0.0532226562,        3.6163330078,        1.0833740234,        1.2969970703
1489456763.6449289322,1489456763.6473479271,       -0.7368164062,        0.0639648438,        0.0488281250,        3.7994384766,        1.2664794922,        1.2969970703
1489456763.6476271152,1489456763.6502060890,       -0.7280273438,        0.0683593750,        0.0488281250,        3.7994384766,        1.2664794922,        1.0681152344
1489456763.6504790783,1489456763.6527690887,       -0.7280273438,        0.0683593750,        0.0488281250,        3.6468505859,        1.4648437500,        1.0681152344
1489456763.6530399323,1489456763.6553349495,       -0.7280273438,        0.0683593750,        0.0488281250,        3.6468505859,        1.4648437500,        1.0223388672
1489456763.6556079388,1489456763.6578950882,       -0.7280273438,        0.0620117188,        0.0473632812,        3.2348632812,        1.3275146484,        1.0223388672
1489456763.6581680775,1489456763.6605470181,       -0.7377929688,        0.0620117188,        0.0473632812,        3.2348632812,        1.3275146484,        0.9460449219
1489456763.6608250141,1489456763.6631209850,       -0.7377929688,        0.0620117188,        0.0473632812,        3.8757324219,        1.6479492188,        0.9460449219
1489456763.6633939743,1489456763.6664340496,       -0.7377929688,        0.0620117188,        0.0473632812,        3.8757324219,        1.6784667969,        0.9460449219
1489456763.6667089462,1489456763.6690759659,       -0.7416992188,        0.0629882812,        0.0498046875,        3.2196044922,        1.6784667969,        0.9460449219
1489456763.6693499088,1489456763.6716470718,       -0.7416992188,        0.0629882812,        0.0498046875,        3.2196044922,        1.6784667969,        0.9918212891
1489456763.6719200611,1489456763.6742060184,       -0.7416992188,        0.0629882812,        0.0498046875,        3.2653808594,        1.7242431641,        0.9918212891
1489456763.6744799614,1489456763.6767740250,       -0.7416992188,        0.0629882812,        0.0498046875,        3.2653808594,        1.7242431641,        0.9918212891
1489456763.6770479679,1489456763.6793448925,       -0.7377929688,        0.0493164062,        0.0527343750,        2.8533935547,        1.5106201172,        1.0528564453
1489456763.6796178818,1489456763.6819059849,       -0.7377929688,        0.0493164062,        0.0527343750,        2.8533935547,        1.5106201172,        1.0528564453
1489456763.6821799278,1489456763.6844689846,       -0.7377929688,        0.0493164062,        0.0527343750,        2.5787353516,        1.2664794922,        1.1138916016
1489456763.6847400665,1489456763.6870269775,       -0.7377929688,        0.0493164062,        0.0527343750,        2.5787353516,        1.2664794922,        1.1138916016
1489456763.6872990131,1489456763.6896340847,       -0.7309570312,        0.0703125000,        0.0439453125,        2.1514892578,        1.4495849609,        1.2512207031
1489456763.6899070740,1489456763.6921999454,       -0.7309570312,        0.0703125000,        0.0439453125,        2.1514892578,        1.4495849609,        1.2512207031
1489456763.6924719810,1489456763.6947660446,       -0.7309570312,        0.0703125000,        0.0439453125,        2.1057128906,        1.5411376953,        1.0986328125
1489456763.6950380802,1489456763.6973340511,       -0.7309570312,        0.0703125000,        0.0439453125,        2.1057128906,        1.5411376953,        1.0986328125
1489456763.6976070404,1489456763.6999020576,       -0.7363281250,        0.0571289062,        0.0527343750,        2.7160644531,        1.4495849609,        1.1291503906
1489456763.7001740932,1489456763.7024600506,       -0.7363281250,        0.0571289062,        0.0527343750,        2.7160644531,        1.4495849609,        1.1291503906
1489456763.7028470039,1489456763.7051439285,       -0.7363281250,        0.0571289062,        0.0527343750,        2.3193359375,        1.6632080078,        1.1596679688
1489456763.7054159641,1489456763.7077059746,       -0.7363281250,        0.0571289062,        0.0527343750,        2.3193359375,        1.6632080078,        1.1596679688
1489456763.7079789639,1489456763.7103359699,       -0.7285156250,        0.0644531250,        0.0454101562,        2.3193359375,        1.9531250000,        1.2817382812
1489456763.7106111050,1489456763.7129099369,       -0.7285156250,        0.0644531250,        0.0454101562,        2.3193359375,        1.9531250000,        1.2817382812
1489456763.7131810188,1489456763.7154719830,       -0.7285156250,        0.0644531250,        0.0454101562,        2.3193359375,        1.8768310547,        1.4801025391
1489456763.7157440186,1489456763.7180409431,       -0.7285156250,        0.0644531250,        0.0419921875,        2.4414062500,        1.8768310547,        1.4801025391
1489456763.7183129787,1489456763.7208960056,       -0.7299804688,        0.0634765625,        0.0419921875,        2.4414062500,        2.0599365234,        1.1901855469
1489456763.7211771011,1489456763.7235960960,       -0.7299804688,        0.0634765625,        0.0419921875,        2.1972656250,        2.0599365234,        1.1901855469
1489456763.7238769531,1489456763.7262990475,       -0.7299804688,        0.0634765625,        0.0419921875,        2.1972656250,        2.0599365234,        1.3122558594
1489456763.7265789509,1489456763.7290430069,       -0.7299804688,        0.0600585938,        0.0527343750,        3.0212402344,        2.0446777344,        1.3122558594
1489456763.7293219566,1489456763.7317440510,       -0.7304687500,        0.0600585938,        0.0527343750,        3.0212402344,        2.0446777344,        1.4190673828
1489456763.7320230007,1489456763.7344439030,       -0.7304687500,        0.0600585938,        0.0527343750,        2.7465820312,        2.1514892578,        1.4190673828
1489456763.7347240448,1489456763.7371370792,       -0.7304687500,        0.0600585938,        0.0527343750,        2.7465820312,        2.1514892578,        1.3580322266
1489456763.7374179363,1489456763.7398490906,       -0.7324218750,        0.0600585938,        0.0493164062,        2.9907226562,        2.2430419922,        1.3580322266
1489456763.7401289940,1489456763.7425489426,       -0.7324218750,        0.0600585938,        0.0493164062,        2.9907226562,        2.2430419922,        1.4953613281
1489456763.7428278923,1489456763.7452390194,       -0.7324218750,        0.0600585938,        0.0493164062,        3.2043457031,        2.2583007812,        1.4953613281
1489456763.7455189228,1489456763.7479419708,       -0.7324218750,        0.0600585938,        0.0493164062,        3.2043457031,        2.2583007812,        1.5869140625
1489456763.7482230663,1489456763.7506599426,       -0.7368164062,        0.0483398438,        0.0351562500,        2.2888183594,        2.0599365234,        1.5869140625
1489456763.7509400845,1489456763.7533550262,       -0.7368164062,        0.0483398438,        0.0351562500,        2.2888183594,        2.0599365234,        2.0141601562
1489456763.7536358833,1489456763.7560579777,       -0.7368164062,        0.0483398438,        0.0351562500,        1.1444091797,        1.7547607422,        2.0141601562
1489456763.7563369274,1489456763.7587521076,       -0.7368164062,        0.0483398438,        0.0458984375,        1.1444091797,        1.7547607422,        1.5258789062
1489456763.7590830326,1489456763.7615060806,       -0.7421875000,        0.0517578125,        0.0458984375,        1.0070800781,        1.9531250000,        1.5258789062
1489456763.7617869377,1489456763.7642059326,       -0.7421875000,        0.0517578125,        0.0458984375,        1.0070800781,        1.9531250000,        1.3732910156
1489456763.7644848824,1489456763.7669050694,       -0.7421875000,        0.0517578125,        0.0458984375,        0.0457763672,        2.3498535156,        1.3732910156
1489456763.7672889233,1489456763.7697300911,       -0.7456054688,        0.0786132812,        0.0395507812,        0.0457763672,        2.3498535156,        1.5869140625
1489456763.7700109482,1489456763.7724299431,       -0.7456054688,        0.0786132812,        0.0395507812,       -0.4577636719,        2.5177001953,        1.5869140625
1489456763.7727088928,1489456763.7752408981,       -0.7456054688,        0.0786132812,        0.0395507812,       -0.4577636719,        2.5177001953,        1.5869140625
1489456763.7755339146,1489456763.7779591084,       -0.7456054688,        0.0786132812,        0.0395507812,       -0.6256103516,        2.4566650391,        1.5869140625
1489456763.7782399654,1489456763.7806680202,       -0.7456054688,        0.0654296875,        0.0390625000,       -0.6256103516,        2.4566650391,        1.3580322266
1489456763.7809491158,1489456763.7833690643,       -0.7456054688,        0.0654296875,        0.0390625000,       -0.7019042969,        2.4414062500,        1.3580322266
1489456763.7836511135,1489456763.7860651016,       -0.7456054688,        0.0654296875,        0.0390625000,       -0.7019042969,        2.4414062500,        1.0070800781
1489456763.7863481045,1489456763.7887639999,       -0.7456054688,        0.0654296875,        0.0429687500,       -1.0070800781,        2.8533935547,        1.0070800781
1489456763.7890949249,1489456763.7915079594,       -0.7416992188,        0.0756835938,        0.0429687500,       -1.0070800781,        2.8533935547,        1.0070800781
1489456763.7917900085,1489456763.7942030430,       -0.7416992188,        0.0756835938,        0.0429687500,       -0.8544921875,        2.8991699219,        1.0070800781
1489456763.7944829464,1489456763.7968978882,       -0.7416992188,        0.0756835938,        0.0429687500,       -0.8544921875,        2.8991699219,        0.8544921875
1489456763.7971780300,1489456763.7996358871,       -0.7416992188,        0.0703125000,        0.0449218750,       -1.3275146484,        3.0364990234,        0.8544921875
1489456763.7999169827,1489456763.8023340702,       -0.7246093750,        0.0703125000,        0.0449218750,       -1.3275146484,        3.0364990234,        0.8392333984
1489456763.8026170731,1489456763.8050289154,       -0.7246093750,        0.0703125000,        0.0449218750,       -0.6103515625,        3.0670166016,        0.8392333984
1489456763.8053100109,1489456763.8077199459,       -0.7246093750,        0.0703125000,        0.0449218750,       -0.6103515625,        3.0670166016,        0.9307861328
1489456763.8080019951,1489456763.8103818893,       -0.7314453125,        0.0664062500,        0.0541992188,       -1.0375976562,        3.0517578125,        0.9307861328
1489456763.8106551170,1489456763.8129520416,       -0.7314453125,        0.0664062500,        0.0541992188,       -1.0375976562,        3.0517578125,        0.7781982422
1489456763.8132250309,1489456763.8155128956,       -0.7314453125,        0.0664062500,        0.0541992188,       -1.5869140625,        3.1585693359,        0.7781982422
1489456763.8157858849,1489456763.8180758953,       -0.7314453125,        0.0664062500,        0.0541992188,       -1.5869140625,        3.1585693359,        0.7781982422
1489456763.8183488846,1489456763.8207309246,       -0.7270507812,        0.0800781250,        0.0571289062,       -1.1444091797,        3.3264160156,        0.7019042969
1489456763.8210079670,1489456763.8232998848,       -0.7270507812,        0.0800781250,        0.0571289062,       -1.1444091797,        3.3264160156,        0.7019042969
1489456763.8235750198,1489456763.8258640766,       -0.7270507812,        0.0800781250,        0.0571289062,       -0.5035400391,        3.8146972656,        0.9002685547
1489456763.8261411190,1489456763.8284258842,       -0.7270507812,        0.0800781250,        0.0571289062,       -0.5035400391,        3.8146972656,        0.9002685547
1489456763.8287019730,1489456763.8311951160,       -0.7290039062,        0.0854492188,        0.0537109375,        0.5950927734,        3.9215087891,        0.9613037109
1489456763.8315789700,1489456763.8340001106,       -0.7290039062,        0.0854492188,        0.0537109375,        0.5950927734,        3.9215087891,        0.9613037109
1489456763.8342831135,1489456763.8366959095,       -0.7290039062,        0.0854492188,        0.0537109375,        1.1138916016,        3.6621093750,        0.5187988281
1489456763.8369779587,1489456763.8394351006,       -0.7290039062,        0.0854492188,        0.0483398438,        1.1138916016,        3.6621093750,        0.5187988281
1489456763.8397169113,1489456763.8421330452,       -0.7314453125,        0.0815429688,        0.0483398438,        1.0528564453,        3.5247802734,        0.4882812500
1489456763.8424129486,1489456763.8448250294,       -0.7314453125,        0.0815429688,        0.0483398438,        1.0528564453,        3.5247802734,        0.4882812500
1489456763.8451049328,1489456763.8475210667,       -0.7314453125,        0.0815429688,        0.0483398438,        2.1972656250,        3.6621093750,        0.4577636719
1489456763.8478009701,1489456763.8502659798,       -0.7314453125,        0.0810546875,        0.0400390625,        2.1972656250,        3.6621093750,        0.4577636719
1489456763.8505489826,1489456763.8529660702,       -0.7211914062,        0.0810546875,        0.0400390625,        2.7008056641,        3.8909912109,        0.1220703125
1489456763.8532478809,1489456763.8556671143,       -0.7211914062,        0.0810546875,        0.0400390625,        2.7008056641,        3.8909912109,        0.1220703125
1489456763.8559501171,1489456763.8583650589,       -0.7211914062,        0.0810546875,        0.0400390625,        2.9296875000,        3.6926269531,        0.4272460938
1489456763.8586471081,1489456763.8610720634,       -0.7421875000,        0.0820312500,        0.0278320312,        2.9296875000,        3.6926269531,        0.4272460938
1489456763.8613541126,1489456763.8637719154,       -0.7421875000,        0.0820312500,        0.0278320312,        3.4942626953,        3.8604736328,        0.9613037109
1489456763.8640530109,1489456763.8664660454,       -0.7421875000,        0.0820312500,        0.0278320312,        3.4942626953,        3.8604736328,        0.9613037109
1489456763.8667459488,1489456763.8691730499,       -0.7421875000,        0.0820312500,        0.0278320312,        3.6926269531,        4.2572021484,        0.9613037109
1489456763.8694550991,1489456763.8718709946,       -0.7290039062,        0.0791015625,        0.0292968750,        3.6926269531,        4.2572021484,        0.9613037109
1489456763.8721520901,1489456763.8745698929,       -0.7290039062,        0.0791015625,        0.0292968750,        3.0822753906,        4.5013427734,        0.6561279297
1489456763.8748509884,1489456763.8772690296,       -0.7290039062,        0.0791015625,        0.0292968750,        3.0822753906,        4.5013427734,        0.6561279297
1489456763.8775510788,1489456763.8799738884,       -0.7290039062,        0.0791015625,        0.0380859375,        2.4719238281,        4.2877197266,        0.5950927734
1489456763.8802559376,1489456763.8826739788,       -0.7333984375,        0.0673828125,        0.0380859375,        2.4719238281,        4.2877197266,        0.5950927734
1489456763.8829538822,1489456763.8853719234,       -0.7333984375,        0.0673828125,        0.0380859375,        3.3111572266,        4.2572021484,        0.8392333984
1489456763.8856539726,1489456763.8880710602,       -0.7333984375,        0.0673828125,        0.0380859375,        3.3111572266,        4.2572021484,        0.8392333984
1489456763.8883500099,1489456763.8907699585,       -0.7382812500,        0.0629882812,        0.0400390625,        4.1198730469,        4.6997070312,        1.2512207031
1489456763.8910501003,1489456763.8934640884,       -0.7382812500,        0.0629882812,        0.0400390625,        4.1198730469,        4.6997070312,        1.2512207031
1489456763.8937430382,1489456763.8961579800,       -0.7382812500,        0.0629882812,        0.0400390625,        3.6468505859,        4.7302246094,        1.3732910156
1489456763.8964359760,1489456763.8988618851,       -0.7382812500,        0.0629882812,        0.0400390625,        3.6468505859,        4.7302246094,        1.3732910156
1489456763.8992519379,1489456763.9016699791,       -0.7299804688,        0.0781250000,        0.0283203125,        3.5858154297,        4.9133300781,        1.5869140625
1489456763.9019510746,1489456763.9043669701,       -0.7299804688,        0.0781250000,        0.0283203125,        3.5858154297,        4.9133300781,        1.5869140625
1489456763.9046490192,1489456763.9070639610,       -0.7299804688,        0.0781250000,        0.0283203125,        4.2572021484,        5.0964355469,        1.8615722656
1489456763.9073429108,1489456763.9097149372,       -0.7299804688,        0.0781250000,        0.0283203125,        4.2572021484,        5.0964355469,        1.8615722656
1489456763.9099879265,1489456763.9122760296,       -0.7392578125,        0.0737304688,        0.0395507812,        5.2642822266,        5.2947998047,        2.3956298828
1489456763.9125490189,1489456763.9148409367,       -0.7392578125,        0.0737304688,        0.0395507812,        5.2642822266,        5.2947998047,        2.3956298828
1489456763.9151139259,1489456763.9174039364,       -0.7392578125,        0.0737304688,        0.0395507812,        6.6528320312,        5.2795410156,        2.6245117188
1489456763.9176769257,1489456763.9200379848,       -0.7392578125,        0.0737304688,        0.0429687500,        6.6528320312,        5.2795410156,        2.6245117188
1489456763.9203109741,1489456763.9226000309,       -0.7368164062,        0.0546875000,        0.0429687500,        6.6223144531,        5.2795410156,        3.1433105469
1489456763.9228730202,1489456763.9251570702,       -0.7368164062,        0.0546875000,        0.0429687500,        6.6223144531,        5.2795410156,        3.1433105469
1489456763.9254279137,1489456763.9277150631,       -0.7368164062,        0.0546875000,        0.0429687500,        6.6223144531,        5.2032470703,        4.0893554688
1489456763.9279880524,1489456763.9302849770,       -0.7368164062,        0.0546875000,        0.0244140625,        6.1645507812,        5.2032470703,        4.0893554688
1489456763.9305601120,1489456763.9328548908,       -0.7353515625,        0.0390625000,        0.0244140625,        6.1645507812,        5.2032470703,        5.1269531250
1489456763.9331281185,1489456763.9354128838,       -0.7353515625,        0.0390625000,        0.0244140625,        5.0201416016,        5.7525634766,        5.1269531250
1489456763.9356849194,1489456763.9379749298,       -0.7353515625,        0.0390625000,        0.0244140625,        5.0201416016,        5.7525634766,        5.1269531250
1489456763.9382469654,1489456763.9405839443,       -0.7353515625,        0.0390625000,        0.0234375000,        3.5247802734,        5.7830810547,        6.6986083984
1489456763.9408569336,1489456763.9431469440,       -0.7353515625,        0.0244140625,        0.0234375000,        3.5247802734,        5.7830810547,        6.6986083984
1489456763.9434189796,1489456763.9457089901,       -0.7353515625,        0.0244140625,        0.0234375000,        2.4719238281,        5.6304931641,        7.8582763672
1489456763.9459810257,1489456763.9482679367,       -0.7353515625,        0.0244140625,        0.0234375000,        2.4719238281,        5.6304931641,        7.8582763672
1489456763.9485399723,1489456763.9508309364,       -0.7353515625,        0.0107421875,        0.0229492188,        2.1514892578,        5.7983398438,        9.0942382812
1489456763.9511039257,1489456763.9533929825,       -0.7377929688,        0.0107421875,        0.0229492188,        2.1514892578,        5.7983398438,        9.0942382812
1489456763.9536659718,1489456763.9559481144,       -0.7377929688,        0.0107421875,        0.0229492188,        1.7242431641,        5.8135986328,       10.5133056641
1489456763.9562270641,1489456763.9586598873,       -0.7377929688,        0.0107421875,        0.0229492188,        1.7242431641,        5.8135986328,       10.5133056641
1489456763.9590370655,1489456763.9613480568,       -0.7475585938,        0.0346679688,        0.0175781250,        0.7476806641,        5.9204101562,       11.9781494141
1489456763.9617340565,1489456763.9640250206,       -0.7475585938,        0.0346679688,        0.0175781250,        0.7476806641,        5.9204101562,       11.9781494141
1489456763.9644019604,1489456763.9666910172,       -0.7475585938,        0.0346679688,        0.0175781250,        0.7171630859,        5.8135986328,       12.8631591797
1489456763.9669690132,1489456763.9700040817,       -0.7475585938,        0.0346679688,        0.0175781250,        0.7171630859,        5.8135986328,       12.8631591797
1489456763.9702870846,1489456763.9725790024,       -0.7578125000,        0.0546875000,        0.0258789062,        1.5258789062,        6.0577392578,       13.7634277344
1489456763.9728569984,1489456763.9751510620,       -0.7578125000,        0.0546875000,        0.0258789062,        1.5258789062,        6.0577392578,       13.7634277344
1489456763.9754269123,1489456763.9777150154,       -0.7578125000,        0.0546875000,        0.0258789062,        0.8087158203,        6.2713623047,       14.9078369141
1489456763.9779920578,1489456763.9802930355,       -0.7578125000,        0.0546875000,        0.0258789062,        0.8087158203,        6.2713623047,       14.9078369141
1489456763.9805710316,1489456763.9828560352,       -0.7539062500,        0.0727539062,        0.0288085938,        0.2899169922,        6.5612792969,       15.5334472656
1489456763.9831330776,1489456763.9854199886,       -0.7539062500,        0.0727539062,        0.0288085938,        0.2899169922,        6.5612792969,       15.5334472656
1489456763.9856970310,1489456763.9879930019,       -0.7539062500,        0.0727539062,        0.0288085938,        1.3275146484,        6.5155029297,       15.9606933594
1489456763.9882709980,1489456763.9906001091,       -0.7539062500,        0.0727539062,        0.0288085938,        1.3275146484,        6.5155029297,       15.9606933594
1489456763.9908769131,1489456763.9931640625,       -0.7441406250,        0.0678710938,        0.0317382812,        1.3275146484,        6.4239501953,       16.6320800781
1489456763.9934420586,1489456763.9957320690,       -0.7441406250,        0.0678710938,        0.0317382812,        2.2888183594,        6.4239501953,       16.6320800781
1489456763.9960091114,1489456763.9982960224,       -0.7441406250,        0.0678710938,        0.0317382812,        2.2888183594,        6.4239501953,       17.4407958984
1489456763.9985740185,1489456764.0008769035,       -0.7441406250,        0.0678710938,        0.0434570312,        3.5095214844,        6.6528320312,       17.4407958984
1489456764.0011560917,1489456764.0034480095,       -0.7402343750,        0.0625000000,        0.0434570312,        3.5095214844,        6.6528320312,       18.1427001953
1489456764.0037260056,1489456764.0060210228,       -0.7402343750,        0.0625000000,        0.0434570312,        3.9062500000,        6.9274902344,       18.1427001953
1489456764.0062999725,1489456764.0085968971,       -0.7402343750,        0.0625000000,        0.0434570312,        3.9062500000,        6.9274902344,       18.1427001953
1489456764.0088639259,1489456764.0111529827,       -0.7402343750,        0.0625000000,        0.0415039062,        4.4555664062,        6.8969726562,       18.9361572266
1489456764.0114300251,1489456764.0137250423,       -0.7421875000,        0.0585937500,        0.0415039062,        4.4555664062,        6.8969726562,       18.9361572266
1489456764.0140030384,1489456764.0163030624,       -0.7421875000,        0.0585937500,        0.0415039062,        4.9133300781,        7.2479248047,       20.2331542969
1489456764.0165810585,1489456764.0189869404,       -0.7421875000,        0.0585937500,        0.0415039062,        4.9133300781,        7.2479248047,       20.2331542969
1489456764.0192649364,1489456764.0215630531,       -0.7421875000,        0.0527343750,        0.0302734375,        4.8980712891,        7.4768066406,       22.0184326172
1489456764.0218400955,1489456764.0241339207,       -0.7416992188,        0.0527343750,        0.0302734375,        4.8980712891,        7.4768066406,       22.0184326172
1489456764.0245189667,1489456764.0268108845,       -0.7416992188,        0.0527343750,        0.0302734375,        4.9285888672,        7.6293945312,       23.7731933594
1489456764.0270879269,1489456764.0295560360,       -0.7416992188,        0.0527343750,        0.0302734375,        4.9285888672,        7.6293945312,       23.7731933594
1489456764.0298409462,1489456764.0322608948,       -0.7500000000,        0.0483398438,        0.0209960938,        4.6691894531,        7.9956054688,       25.7415771484
1489456764.0325460434,1489456764.0349600315,       -0.7500000000,        0.0483398438,        0.0209960938,        4.6691894531,        7.9956054688,       25.7415771484
1489456764.0352439880,1489456764.0376629829,       -0.7500000000,        0.0483398438,        0.0209960938,        5.0659179688,        8.2397460938,       27.7709960938
1489456764.0379490852,1489456764.0403649807,       -0.7500000000,        0.0483398438,        0.0209960938,        5.0659179688,        8.2397460938,       27.7709960938
1489456764.0406489372,1489456764.0430700779,       -0.7573242188,        0.0322265625,        0.0102539062,        4.9133300781,        7.8887939453,       30.3802490234
1489456764.0433530807,1489456764.0457680225,       -0.7573242188,        0.0322265625,        0.0102539062,        4.9133300781,        7.8887939453,       30.3802490234
1489456764.0460529327,1489456764.0484700203,       -0.7573242188,        0.0322265625,        0.0102539062,        4.1046142578,        6.8969726562,       33.1420898438
1489456764.0487539768,1489456764.0511739254,       -0.7573242188,        0.0322265625,        0.0102539062,        4.1046142578,        6.8969726562,       33.1420898438
1489456764.0514600277,1489456764.0538740158,       -0.7617187500,       -0.0322265625,        0.0244140625,        2.8839111328,        6.6223144531,       35.1104736328
1489456764.0541570187,1489456764.0565729141,       -0.7617187500,       -0.0322265625,        0.0244140625,        2.8839111328,        6.6223144531,       35.1104736328
1489456764.0568559170,1489456764.0592720509,       -0.7617187500,       -0.0322265625,        0.0244140625,        3.2196044922,        7.1868896484,       37.3077392578
1489456764.0595490932,1489456764.0618379116,       -0.7617187500,       -0.0166015625,        0.0307617188,        3.2196044922,        7.1868896484,       37.3077392578
1489456764.0621159077,1489456764.0644099712,       -0.7778320312,       -0.0166015625,        0.0307617188,        2.5024414062,        7.3242187500,       40.4510498047
1489456764.0646889210,1489456764.0669810772,       -0.7778320312,       -0.0166015625,        0.0307617188,        2.5024414062,        7.3242187500,       40.4510498047
1489456764.0672590733,1489456764.0696749687,       -0.7778320312,       -0.0166015625,        0.0307617188,        0.6103515625,        7.2174072266,       44.3878173828
1489456764.0699539185,1489456764.0722470284,       -0.7778320312,        0.0166015625,        0.0239257812,        0.6103515625,        7.2174072266,       44.3878173828
1489456764.0725269318,1489456764.0748150349,       -0.7763671875,        0.0166015625,        0.0239257812,       -3.2958984375,        7.0343017578,       47.4548339844
1489456764.0750908852,1489456764.0773758888,       -0.7763671875,        0.0166015625,        0.0239257812,       -0.6713867188,        7.0343017578,       47.4548339844
1489456764.0776538849,1489456764.0800540447,       -0.7763671875,        0.0166015625,        0.0239257812,       -0.6713867188,        7.0343017578,       49.8199462891
1489456764.0803329945,1489456764.0826189518,       -0.7832031250,        0.0078125000,        0.0268554688,        0.4119873047,        6.2866210938,       49.8199462891
1489456764.0828979015,1489456764.0852479935,       -0.7832031250,        0.0078125000,        0.0268554688,        0.4119873047,        6.2866210938,       51.8493652344
1489456764.0855269432,1489456764.0878241062,       -0.7832031250,        0.0078125000,        0.0268554688,        0.5187988281,        6.5155029297,       51.8493652344
1489456764.0882110596,1489456764.0905621052,       -0.7832031250,        0.0078125000,        0.0268554688,        0.5187988281,        6.5155029297,       54.1992187500
1489456764.0908451080,1489456764.0931339264,       -0.8022460938,        0.0327148438,        0.0483398438,        1.2512207031,        6.7901611328,       54.1992187500
1489456764.0934109688,1489456764.0956940651,       -0.8022460938,        0.0327148438,        0.0483398438,        1.2512207031,        6.7901611328,       54.1992187500
1489456764.0959720612,1489456764.0982561111,       -0.8022460938,        0.0327148438,        0.0483398438,        2.4871826172,        7.4615478516,       57.1289062500
1489456764.0985329151,1489456764.1008310318,       -0.8022460938,        0.0327148438,        0.0483398438,        2.4871826172,        7.4615478516,       57.1289062500
1489456764.1011080742,1489456764.1033990383,       -0.8017578125,        0.0537109375,        0.0356445312,        3.8146972656,        7.2937011719,       60.1043701172
1489456764.1036760807,1489456764.1059629917,       -0.8017578125,        0.0537109375,        0.0356445312,        3.8146972656,        7.2937011719,       60.1043701172
1489456764.1062409878,1489456764.1085290909,       -0.8017578125,        0.0537109375,        0.0356445312,        5.6610107422,        7.4005126953,       62.7593994141
1489456764.1088459492,1489456764.1111350060,       -0.8017578125,        0.0537109375,        0.0356445312,        5.6610107422,        7.4005126953,       62.7593994141
1489456764.1114120483,1489456764.1137039661,       -0.8066406250,        0.0581054688,        0.0390625000,        7.4157714844,        8.1787109375,       65.4296875000
1489456764.1139819622,1489456764.1162691116,       -0.8066406250,        0.0581054688,        0.0390625000,        7.4157714844,        8.1787109375,       65.4296875000
1489456764.1165480614,1489456764.1188969612,       -0.8066406250,        0.0581054688,        0.0390625000,        9.1552734375,        8.4991455078,       68.4967041016
1489456764.1191759109,1489456764.1214730740,       -0.8066406250,        0.0581054688,        0.0390625000,        9.1552734375,        8.4991455078,       68.4967041016
1489456764.1217529774,1489456764.1240460873,       -0.8125000000,        0.0322265625,        0.0429687500,       10.8489990234,        9.1705322266,       71.7163085938
1489456764.1243309975,1489456764.1266260147,       -0.8125000000,        0.0322265625,        0.0429687500,       10.8489990234,        9.1705322266,       71.7163085938
1489456764.1269090176,1489456764.1293439865,       -0.8125000000,        0.0322265625,        0.0429687500,       10.8489990234,        9.8571777344,       74.6154785156
1489456764.1296260357,1489456764.1319239140,       -0.8125000000,        0.0322265625,        0.0429687500,       11.6119384766,        9.8571777344,       74.6154785156
1489456764.1322059631,1489456764.1345028877,       -0.8310546875,       -0.0043945312,        0.0532226562,       11.6119384766,        9.8571777344,       77.6672363281
1489456764.1347849369,1489456764.1370770931,       -0.8310546875,       -0.0043945312,        0.0532226562,       11.3525390625,        9.9334716797,       77.6672363281
1489456764.1373589039,1489456764.1397409439,       -0.8310546875,       -0.0043945312,        0.0532226562,       11.3525390625,        9.9334716797,       80.7342529297
1489456764.1400239468,1489456764.1423189640,       -0.8310546875,       -0.0043945312,        0.0639648438,       10.7116699219,        8.5601806641,       80.7342529297
1489456764.1426010132,1489456764.1448919773,       -0.8452148438,        0.0053710938,        0.0639648438,       10.7116699219,        8.5601806641,       84.6405029297
1489456764.1451749802,1489456764.1474680901,       -0.8452148438,        0.0053710938,        0.0639648438,        9.9945068359,        6.6223144531,       84.0911865234
1489456764.1477479935,1489456764.1501169205,       -0.8452148438,        0.0053710938,        0.0639648438,        9.9945068359,        6.6223144531,       84.0911865234
1489456764.1505138874,1489456764.1529140472,       -0.8452148438,        0.0600585938,        0.0947265625,       10.2691650391,        4.7760009766,       88.4399414062
1489456764.1532030106,1489456764.1556010246,       -0.9184570312,        0.0600585938,        0.0947265625,       10.2691650391,        4.7760009766,       88.4399414062
1489456764.1558899879,1489456764.1582870483,       -0.9184570312,        0.0600585938,        0.0947265625,       12.7105712891,        2.7313232422,       91.6900634766
1489456764.1585750580,1489456764.1610178947,       -0.9184570312,        0.0600585938,        0.0947265625,       12.7105712891,        2.7313232422,       91.6900634766
1489456764.1613070965,1489456764.1637349129,       -1.0600585938,        0.0092773438,        0.0654296875,       14.8925781250,        2.1667480469,       93.0938720703
1489456764.1640179157,1489456764.1663091183,       -1.0600585938,        0.0092773438,        0.0654296875,       14.8925781250,        2.1667480469,       93.0938720703
1489456764.1665918827,1489456764.1689751148,       -1.0600585938,        0.0092773438,        0.0654296875,       17.8833007812,        4.0893554688,       93.9788818359
1489456764.1693170071,1489456764.1717069149,       -1.0600585938,        0.0092773438,        0.0654296875,       17.8833007812,        4.0893554688,       93.9788818359
1489456764.1719949245,1489456764.1743741035,       -1.0942382812,       -0.0102539062,        0.0009765625,       18.3410644531,        6.2866210938,       97.3358154297
1489456764.1746609211,1489456764.1770470142,       -1.0942382812,       -0.0102539062,        0.0009765625,       18.3410644531,        6.2866210938,       97.3358154297
1489456764.1773350239,1489456764.1806271076,       -1.0942382812,       -0.0102539062,        0.0009765625,       15.5792236328,        6.8206787109,       99.4110107422
1489456764.1809120178,1489456764.1832070351,       -1.0942382812,       -0.0268554688,        0.0913085938,       15.5792236328,        6.8206787109,       99.2279052734
1489456764.1834878922,1489456764.1857709885,       -1.0214843750,       -0.0268554688,        0.0913085938,       11.2609863281,        7.4615478516,       99.2279052734
1489456764.1860508919,1489456764.1883330345,       -1.0214843750,       -0.0268554688,        0.0913085938,       11.2609863281,        7.4615478516,       99.2279052734
1489456764.1886138916,1489456764.1910059452,       -1.0214843750,       -0.0268554688,        0.0913085938,        6.2713623047,        7.9956054688,       98.5717773438
1489456764.1912829876,1489456764.1935660839,       -0.8925781250,        0.0053710938,        0.1381835938,        6.2713623047,        7.9956054688,       98.5717773438
1489456764.1938440800,1489456764.1961359978,       -0.8925781250,        0.0053710938,        0.1381835938,        0.7476806641,        7.7819824219,       96.4050292969
1489456764.1964139938,1489456764.1987020969,       -0.8925781250,        0.0053710938,        0.1381835938,        0.7476806641,        7.7819824219,       96.4050292969
1489456764.1989800930,1489456764.2012729645,       -0.8925781250,        0.0053710938,        0.1381835938,       -3.2196044922,        6.1798095703,       93.8873291016
1489456764.2015531063,1489456764.2038469315,       -0.8046875000,        0.1342773438,        0.1474609375,       -3.2196044922,        6.1798095703,       93.8873291016
1489456764.2041249275,1489456764.2064120770,       -0.8046875000,        0.1342773438,        0.1474609375,       -4.1046142578,        4.4860839844,       90.2099609375
1489456764.2066919804,1489456764.2090311050,       -0.8046875000,        0.1342773438,        0.1474609375,       -4.1046142578,        4.4860839844,       90.2099609375
1489456764.2093079090,1489456764.2116050720,       -0.8046875000,        0.1342773438,        0.1474609375,       -1.4648437500,        3.7078857422,       84.4268798828
1489456764.2118821144,1489456764.2141699791,       -0.7641601562,        0.0131835938,        0.1186523438,       -1.4648437500,        3.7078857422,       84.4268798828
1489456764.2145578861,1489456764.2168490887,       -0.7641601562,        0.0131835938,        0.1186523438,        2.5482177734,        2.1972656250,       75.8056640625
1489456764.2171270847,1489456764.2194530964,       -0.7641601562,        0.0131835938,        0.1186523438,        2.5482177734,        2.1972656250,       75.8056640625
1489456764.2197299004,1489456764.2220220566,       -0.7641601562,        0.0131835938,        0.1186523438,        2.5177001953,        0.7476806641,       66.4367675781
1489456764.2223010063,1489456764.2245941162,       -0.6967773438,       -0.2622070312,        0.0546875000,        2.5177001953,        0.7476806641,       66.4367675781
1489456764.2248721123,1489456764.2271609306,       -0.6967773438,       -0.2622070312,        0.0546875000,        2.5177001953,       -0.0152587891,       56.7016601562
1489456764.2274401188,1489456764.2299149036,       -0.6967773438,       -0.2622070312,        0.0546875000,       -1.8920898438,       -0.0152587891,       56.7016601562
1489456764.2301950455,1489456764.2324979305,       -0.6967773438,       -0.2622070312,        0.0546875000,       -1.8920898438,       -0.0152587891,       48.6602783203
1489456764.2327771187,1489456764.2350718975,       -0.6171875000,       -0.2998046875,        0.0141601562,       -9.9792480469,       -0.5950927734,       48.6602783203
1489456764.2353510857,1489456764.2376520634,       -0.6171875000,       -0.2998046875,        0.0141601562,       -9.9792480469,       -0.5950927734,       40.8630371094
1489456764.2379310131,1489456764.2403290272,       -0.6171875000,       -0.2998046875,        0.0141601562,      -18.6309814453,       -3.0059814453,       40.8630371094
1489456764.2406129837,1489456764.2429029942,       -0.6171875000,       -0.2998046875,        0.0141601562,      -18.6309814453,       -3.0059814453,       31.7840576172
1489456764.2431850433,1489456764.2454779148,       -0.5581054688,       -0.3183593750,        0.0605468750,      -29.3426513672,       -7.0190429688,       31.7840576172
1489456764.2457599640,1489456764.2480490208,       -0.5581054688,       -0.3183593750,        0.0605468750,      -29.3426513672,       -7.0190429688,       31.7840576172
1489456764.2483301163,1489456764.2507109642,       -0.5581054688,       -0.3183593750,        0.0605468750,      -40.0695800781,      -10.2539062500,       20.3552246094
1489456764.2509970665,1489456764.2532899380,       -0.5581054688,       -0.3183593750,        0.0654296875,      -40.0695800781,      -10.2539062500,       20.3552246094
1489456764.2535750866,1489456764.2558600903,       -0.5502929688,       -0.3671875000,        0.0654296875,      -47.3022460938,      -11.4135742188,        8.7280273438
1489456764.2561419010,1489456764.2584309578,       -0.5502929688,       -0.3671875000,        0.0654296875,      -47.3022460938,      -11.4135742188,        8.7280273438
1489456764.2587130070,1489456764.2610039711,       -0.5502929688,       -0.3671875000,        0.0654296875,      -52.1240234375,      -12.0849609375,       -2.7313232422
1489456764.2612860203,1489456764.2635710239,       -0.5502929688,       -0.3671875000,        0.0634765625,      -52.1240234375,      -12.0849609375,       -2.7313232422
1489456764.2638530731,1489456764.2661440372,       -0.5224609375,       -0.2734375000,        0.0634765625,      -54.8400878906,      -13.1378173828,      -14.0686035156
1489456764.2664299011,1489456764.2687139511,       -0.5224609375,       -0.2734375000,        0.0634765625,      -54.8400878906,      -13.1378173828,      -14.0686035156
1489456764.2690520287,1489456764.2713429928,       -0.5224609375,       -0.2734375000,        0.0634765625,      -55.2673339844,      -13.8092041016,      -25.2380371094
1489456764.2716290951,1489456764.2739200592,       -0.5224609375,       -0.2231445312,        0.0512695312,      -55.2673339844,      -13.8092041016,      -25.2380371094
1489456764.2742049694,1489456764.2764921188,       -0.5214843750,       -0.2231445312,        0.0512695312,      -53.8940429688,      -13.9770507812,      -36.4990234375
1489456764.2768819332,1489456764.2793149948,       -0.5214843750,       -0.2231445312,        0.0512695312,      -53.8940429688,      -13.9770507812,      -36.4990234375
1489456764.2795999050,1489456764.2818820477,       -0.5214843750,       -0.2231445312,        0.0512695312,      -51.8341064453,      -13.6871337891,      -47.8515625000
1489456764.2821660042,1489456764.2844491005,       -0.5214843750,       -0.2084960938,        0.0537109375,      -51.8341064453,      -13.6871337891,      -47.8515625000
1489456764.2847330570,1489456764.2870268822,       -0.5444335938,       -0.2084960938,        0.0537109375,      -51.8341064453,      -11.9628906250,      -58.9447021484
1489456764.2873110771,1489456764.2896571159,       -0.5444335938,       -0.2084960938,        0.0537109375,      -49.0570068359,      -11.9628906250,      -58.9447021484
1489456764.2899439335,1489456764.2922339439,       -0.5444335938,       -0.2084960938,        0.0537109375,      -49.0570068359,       -8.0566406250,      -69.1528320312
1489456764.2925169468,1489456764.2948100567,       -0.5693359375,       -0.1733398438,        0.0405273438,      -46.5240478516,      -10.6811523438,      -69.1528320312
1489456764.2953140736,1489456764.2976200581,       -0.5693359375,       -0.1733398438,        0.0405273438,      -46.5240478516,      -10.6811523438,      -78.6437988281
1489456764.2979059219,1489456764.3005030155,       -0.5693359375,       -0.1733398438,        0.0405273438,      -43.5333251953,      -10.1623535156,      -78.6437988281
1489456764.3007979393,1489456764.3032150269,       -0.5693359375,       -0.1733398438,        0.0405273438,      -43.5333251953,      -10.1623535156,      -87.5854492188
1489456764.3035080433,1489456764.3059279919,       -0.6044921875,       -0.1230468750,        0.0468750000,      -39.7644042969,       -9.3231201172,      -87.5854492188
1489456764.3062210083,1489456764.3086450100,       -0.6044921875,       -0.1230468750,        0.0468750000,      -39.7644042969,       -9.3231201172,      -95.8709716797
1489456764.3089458942,1489456764.3113610744,       -0.6044921875,       -0.1230468750,        0.0468750000,      -33.9813232422,       -8.0718994141,      -95.8709716797
1489456764.3116509914,1489456764.3140730858,       -0.6044921875,       -0.1230468750,        0.0517578125,      -33.9813232422,       -4.1656494141,     -103.6224365234
1489456764.3143620491,1489456764.3167750835,       -0.6298828125,       -0.0971679688,        0.0517578125,      -28.1524658203,       -6.9580078125,     -103.6224365234
1489456764.3170650005,1489456764.3194959164,       -0.6298828125,       -0.0971679688,        0.0517578125,      -28.1524658203,       -6.9580078125,     -111.1907958984
1489456764.3197851181,1489456764.3222069740,       -0.6298828125,       -0.0971679688,        0.0517578125,      -22.1405029297,       -6.9580078125,     -111.1907958984
1489456764.3224980831,1489456764.3249170780,       -0.6298828125,       -0.0849609375,        0.0732421875,      -22.1405029297,       -6.9580078125,     -118.7133789062
1489456764.3252060413,1489456764.3276200294,       -0.6831054688,       -0.0849609375,        0.0732421875,      -15.1977539062,       -6.3171386719,     -118.7133789062
1489456764.3279080391,1489456764.3302690983,       -0.6831054688,       -0.0849609375,        0.0732421875,      -15.1977539062,       -6.3171386719,     -124.6795654297
1489456764.3305521011,1489456764.3328421116,       -0.6831054688,       -0.0849609375,        0.0732421875,       -9.6588134766,       -6.6833496094,     -124.6795654297
1489456764.3331220150,1489456764.3354189396,       -0.7353515625,       -0.0664062500,        0.0439453125,       -9.6588134766,       -6.6833496094,     -132.4920654297
1489456764.3356969357,1489456764.3379859924,       -0.7353515625,       -0.0664062500,        0.0439453125,       -4.9591064453,       -6.9274902344,     -130.1727294922
1489456764.3382620811,1489456764.3406128883,       -0.7353515625,       -0.0664062500,        0.0439453125,       -4.9591064453,       -6.9274902344,     -130.1727294922
1489456764.3409988880,1489456764.3432989120,       -0.7353515625,       -0.0664062500,        0.0439453125,       -0.9155273438,       -6.3629150391,     -134.9487304688
1489456764.3435781002,1489456764.3458731174,       -0.7685546875,       -0.0351562500,        0.0498046875,       -0.9155273438,       -6.3629150391,     -134.9487304688
1489456764.3461520672,1489456764.3484420776,       -0.7685546875,       -0.0351562500,        0.0498046875,        1.6479492188,       -6.5307617188,     -139.1754150391
1489456764.3487179279,1489456764.3511040211,       -0.7685546875,       -0.0351562500,        0.0498046875,        1.6479492188,       -6.5307617188,     -139.1754150391
1489456764.3513829708,1489456764.3536760807,       -0.7685546875,       -0.0351562500,        0.0498046875,        2.7008056641,       -5.8746337891,     -142.9138183594
1489456764.3539540768,1489456764.3562479019,       -0.7983398438,        0.0205078125,        0.0317382812,        2.7008056641,       -5.8746337891,     -142.9138183594
1489456764.3565270901,1489456764.3589599133,       -0.7983398438,        0.0205078125,        0.0317382812,        3.3111572266,       -5.0048828125,     -146.0113525391
1489456764.3592479229,1489456764.3616619110,       -0.7983398438,        0.0205078125,        0.0317382812,        3.3111572266,       -5.0048828125,     -146.0113525391
1489456764.3619480133,1489456764.3643729687,       -0.7983398438,        0.0205078125,        0.0317382812,        2.4261474609,       -4.5013427734,     -147.6287841797
1489456764.3646590710,1489456764.3670890331,       -0.8266601562,        0.0708007812,        0.0195312500,        2.4261474609,       -4.5013427734,     -147.6287841797
1489456764.3673689365,1489456764.3698370457,       -0.8266601562,        0.0708007812,        0.0195312500,        0.2746582031,       -3.8146972656,     -148.8189697266
1489456764.3701229095,1489456764.3725049496,       -0.8266601562,        0.0708007812,        0.0195312500,        0.2746582031,       -3.8146972656,     -148.8189697266
1489456764.3727900982,1489456764.3753509521,       -0.8266601562,        0.1284179688,        0.0029296875,       -2.7008056641,       -2.4108886719,     -149.6734619141
1489456764.3756508827,1489456764.3780419827,       -0.8603515625,        0.1284179688,        0.0029296875,       -2.7008056641,       -2.4108886719,     -149.6734619141
1489456764.3783240318,1489456764.3807001114,       -0.8603515625,        0.1284179688,        0.0029296875,       -5.6762695312,       -2.7923583984,     -149.4903564453
1489456764.3809809685,1489456764.3832700253,       -0.8603515625,        0.1284179688,        0.0029296875,       -5.6762695312,       -2.7923583984,     -149.4903564453
1489456764.3835470676,1489456764.3858299255,       -0.8481445312,        0.1669921875,        0.0229492188,       -8.5601806641,       -3.2653808594,     -148.6206054688
1489456764.3861069679,1489456764.3883960247,       -0.8481445312,        0.1669921875,        0.0229492188,       -8.5601806641,       -3.2653808594,     -148.6206054688
1489456764.3886749744,1489456764.3909790516,       -0.8481445312,        0.1669921875,        0.0229492188,      -12.5579833984,       -3.6621093750,     -147.2167968750
1489456764.3912611008,1489456764.3935520649,       -0.8481445312,        0.1669921875,        0.0229492188,      -12.5579833984,       -3.6621093750,     -147.2167968750
1489456764.3938350677,1489456764.3961219788,       -0.8393554688,        0.1547851562,        0.0302734375,      -16.0369873047,       -4.3792724609,     -145.9045410156
1489456764.3964040279,1489456764.3986868858,       -0.8393554688,        0.1547851562,        0.0302734375,      -16.0369873047,       -4.3792724609,     -145.9045410156
1489456764.3989679813,1489456764.4012560844,       -0.8393554688,        0.1547851562,        0.0302734375,      -16.0369873047,       -5.2947998047,     -144.8364257812
1489456764.4015378952,1489456764.4038228989,       -0.8393554688,        0.1547851562,        0.0302734375,      -19.6685791016,       -5.2947998047,     -144.8364257812
1489456764.4042160511,1489456764.4065129757,       -0.8510742188,        0.1083984375,        0.0195312500,      -19.6685791016,       -5.2947998047,     -143.2952880859
1489456764.4067959785,1489456764.4091739655,       -0.8510742188,        0.1083984375,        0.0195312500,      -23.9410400391,       -7.0800781250,     -143.2952880859
1489456764.4094579220,1489456764.4117519855,       -0.8510742188,        0.1083984375,        0.0195312500,      -23.9410400391,       -7.0800781250,     -141.5863037109
1489456764.4120349884,1489456764.4143230915,       -0.8510742188,        0.1083984375,        0.0195312500,      -28.5644531250,       -7.8277587891,     -141.5863037109
1489456764.4146070480,1489456764.4168949127,       -0.8676757812,        0.0781250000,       -0.0034179688,      -28.5644531250,       -7.8277587891,     -137.6800537109
1489456764.4171769619,1489456764.4195768833,       -0.8676757812,        0.0781250000,       -0.0034179688,      -34.4696044922,       -8.1024169922,     -139.5874023438
1489456764.4198610783,1489456764.4221489429,       -0.8676757812,        0.0781250000,       -0.0034179688,      -34.4696044922,       -8.1024169922,     -139.5874023438
1489456764.4224328995,1489456764.4247260094,       -0.8676757812,        0.0781250000,       -0.0034179688,      -39.9322509766,       -8.3007812500,     -137.2222900391
1489456764.4250109196,1489456764.4273040295,       -0.8774414062,        0.0874023438,       -0.0268554688,      -39.9322509766,       -8.3007812500,     -137.2222900391
1489456764.4275879860,1489456764.4299950600,       -0.8774414062,        0.0874023438,       -0.0268554688,      -44.2810058594,       -7.5378417969,     -134.8266601562
1489456764.4302780628,1489456764.4325699806,       -0.8774414062,        0.0874023438,       -0.0268554688,      -44.2810058594,       -7.5378417969,     -134.8266601562
1489456764.4328520298,1489456764.4351470470,       -0.8774414062,        0.0874023438,       -0.0112304688,      -47.3327636719,       -5.7983398438,     -132.7819824219
1489456764.4354279041,1489456764.4377219677,       -0.8955078125,        0.1264648438,       -0.0112304688,      -47.3327636719,       -5.7983398438,     -132.7819824219
1489456764.4380030632,1489456764.4403839111,       -0.8955078125,        0.1264648438,       -0.0112304688,      -49.3469238281,       -4.1809082031,     -130.2947998047
1489456764.4406740665,1489456764.4430840015,       -0.8955078125,        0.1264648438,       -0.0112304688,      -49.3469238281,       -4.1809082031,     -130.2947998047
1489456764.4433729649,1489456764.4457890987,       -0.8955078125,        0.1459960938,       -0.0063476562,      -50.3997802734,       -2.0599365234,     -127.3498535156
1489456764.4460821152,1489456764.4484989643,       -0.8813476562,        0.1459960938,       -0.0063476562,      -50.3997802734,       -2.0599365234,     -127.3498535156
1489456764.4488289356,1489456764.4512460232,       -0.8813476562,        0.1459960938,       -0.0063476562,      -52.6885986328,       -0.5340576172,     -124.8321533203
1489456764.4515359402,1489456764.4539489746,       -0.8813476562,        0.1459960938,       -0.0063476562,      -52.6885986328,       -0.5340576172,     -124.8321533203
1489456764.4542379379,1489456764.4566509724,       -0.8750000000,        0.1528320312,        0.0000000000,      -55.6182861328,        0.5950927734,     -122.1008300781
1489456764.4569408894,1489456764.4593629837,       -0.8750000000,        0.1528320312,        0.0000000000,      -55.6182861328,        0.5950927734,     -122.1008300781
1489456764.4596529007,1489456764.4620690346,       -0.8750000000,        0.1528320312,        0.0000000000,      -57.8308105469,        1.9989013672,     -119.2474365234
1489456764.4623579979,1489456764.4647710323,       -0.8750000000,        0.1528320312,        0.0000000000,      -57.8308105469,        1.9989013672,     -119.2474365234
1489456764.4650599957,1489456764.4674730301,       -0.8652343750,        0.1669921875,        0.0102539062,      -59.8602294922,        4.1351318359,     -116.2872314453
1489456764.4678640366,1489456764.4702970982,       -0.8652343750,        0.1669921875,        0.0102539062,      -59.8602294922,        4.1351318359,     -116.2872314453
1489456764.4705870152,1489456764.4730041027,       -0.8652343750,        0.1669921875,        0.0102539062,      -61.5997314453,        6.3323974609,     -112.7166748047
1489456764.4732949734,1489456764.4757199287,       -0.8652343750,        0.1669921875,        0.0102539062,      -61.5997314453,        6.3323974609,     -112.7166748047
1489456764.4760088921,1489456764.4784219265,       -0.8369140625,        0.2075195312,        0.0102539062,      -64.4226074219,        8.7127685547,     -108.8562011719
1489456764.4787120819,1489456764.4810240269,       -0.8369140625,        0.2075195312,        0.0102539062,      -64.4226074219,        8.7127685547,     -108.8562011719
1489456764.4813070297,1489456764.4836030006,       -0.8369140625,        0.2075195312,        0.0102539062,      -69.0155029297,       10.2691650391,     -105.0262451172
1489456764.4838900566,1489456764.4863660336,       -0.8369140625,        0.2822265625,        0.0156250000,      -69.0155029297,       10.2691650391,     -105.0262451172
1489456764.4866540432,1489456764.4896199703,       -0.8066406250,        0.2822265625,        0.0156250000,      -72.5402832031,       12.1154785156,     -100.2807617188
1489456764.4899098873,1489456764.4922010899,       -0.8066406250,        0.2822265625,        0.0156250000,      -72.5402832031,       12.1154785156,     -100.2807617188
1489456764.4924879074,1489456764.4947760105,       -0.8066406250,        0.2822265625,        0.0156250000,      -75.7446289062,       13.8092041016,      -93.7194824219
1489456764.4950621128,1489456764.4973540306,       -0.7641601562,        0.3598632812,        0.0244140625,      -75.7446289062,       13.8092041016,      -93.7194824219
1489456764.4976398945,1489456764.5000050068,       -0.7641601562,        0.3598632812,        0.0244140625,      -78.2165527344,       13.5040283203,      -85.8917236328
1489456764.5002899170,1489456764.5025820732,       -0.7641601562,        0.3598632812,        0.0244140625,      -78.2165527344,       13.5040283203,      -85.8917236328
1489456764.5028688908,1489456764.5051600933,       -0.7641601562,        0.3598632812,        0.0244140625,      -80.8715820312,       11.3830566406,      -78.4606933594
1489456764.5054459572,1489456764.5077369213,       -0.7270507812,        0.4101562500,        0.0732421875,      -80.8715820312,       11.3830566406,      -78.4606933594
1489456764.5080220699,1489456764.5103690624,       -0.7270507812,        0.4101562500,        0.0732421875,      -84.7778320312,        8.3312988281,      -72.2961425781
1489456764.5106520653,1489456764.5129449368,       -0.7270507812,        0.4101562500,        0.0732421875,      -82.1990966797,        8.3312988281,      -72.2961425781
1489456764.5132269859,1489456764.5155138969,       -0.7270507812,        0.4101562500,        0.0732421875,      -82.1990966797,        4.4250488281,      -67.1081542969
1489456764.5157968998,1489456764.5180830956,       -0.7045898438,        0.4003906250,        0.0815429688,      -82.2143554688,        4.7912597656,      -67.1081542969
1489456764.5183670521,1489456764.5206599236,       -0.7045898438,        0.4003906250,        0.0815429688,      -82.2143554688,        4.7912597656,      -61.7828369141
1489456764.5209429264,1489456764.5232319832,       -0.7045898438,        0.4003906250,        0.0815429688,      -80.9020996094,        2.0294189453,      -61.7828369141
1489456764.5235149860,1489456764.5258018970,       -0.7045898438,        0.4003906250,        0.0815429688,      -80.9020996094,        2.0294189453,      -57.8765869141
1489456764.5260848999,1489456764.5283730030,       -0.7080078125,        0.3769531250,        0.0834960938,      -77.6977539062,        0.7324218750,      -56.1523437500
1489456764.5286560059,1489456764.5309739113,       -0.7080078125,        0.3769531250,        0.0834960938,      -77.6977539062,        0.7324218750,      -56.1523437500
1489456764.5312581062,1489456764.5335469246,       -0.7080078125,        0.3769531250,        0.0834960938,      -73.6541748047,       -0.3509521484,      -50.1403808594
1489456764.5339369774,1489456764.5362310410,       -0.7080078125,        0.3769531250,        0.0742187500,      -73.6541748047,       -0.3509521484,      -50.1403808594
1489456764.5365140438,1489456764.5389769077,       -0.7119140625,        0.4062500000,        0.0742187500,      -69.6258544922,       -1.3885498047,      -43.5028076172
1489456764.5392599106,1489456764.5415570736,       -0.7119140625,        0.4062500000,        0.0742187500,      -69.6258544922,       -1.3885498047,      -43.5028076172
1489456764.5418388844,1489456764.5441350937,       -0.7119140625,        0.4062500000,        0.0742187500,      -66.8487548828,       -2.4108886719,      -36.6363525391
1489456764.5444190502,1489456764.5467140675,       -0.7119140625,        0.4106445312,        0.0781250000,      -66.8487548828,       -2.4108886719,      -36.6363525391
1489456764.5469970703,1489456764.5494420528,       -0.6967773438,        0.4106445312,        0.0781250000,      -64.2395019531,       -3.2958984375,      -29.3121337891
1489456764.5497350693,1489456764.5521550179,       -0.6967773438,        0.4106445312,        0.0781250000,      -64.2395019531,       -3.2958984375,      -29.3121337891
1489456764.5524458885,1489456764.5548610687,       -0.6967773438,        0.4106445312,        0.0781250000,      -61.9049072266,       -3.9978027344,      -21.2554931641
1489456764.5551500320,1489456764.5575621128,       -0.7031250000,        0.4091796875,        0.0888671875,      -61.9049072266,       -3.9978027344,      -21.2554931641
1489456764.5578520298,1489456764.5602810383,       -0.7031250000,        0.4091796875,        0.0888671875,      -59.6160888672,       -5.0048828125,      -12.9089355469
1489456764.5605719090,1489456764.5629849434,       -0.7031250000,        0.4091796875,        0.0888671875,      -59.6160888672,       -5.0048828125,      -12.9089355469
1489456764.5632760525,1489456764.5656919479,       -0.7031250000,        0.4091796875,        0.0888671875,      -55.6182861328,       -6.2561035156,       -5.0048828125
1489456764.5659780502,1489456764.5683970451,       -0.7006835938,        0.4150390625,        0.1059570312,      -55.6182861328,       -6.2561035156,       -5.0048828125
1489456764.5686819553,1489456764.5711069107,       -0.7006835938,        0.4150390625,        0.1059570312,      -51.6510009766,       -7.5531005859,        1.8920898438
1489456764.5713930130,1489456764.5738730431,       -0.7006835938,        0.4150390625,        0.1059570312,      -51.6510009766,       -7.5531005859,        1.8920898438
1489456764.5741560459,1489456764.5764439106,       -0.7006835938,        0.4150390625,        0.1059570312,      -47.6226806641,       -8.6364746094,        8.9569091797
1489456764.5767259598,1489456764.5791959763,       -0.6772460938,        0.4047851562,        0.1157226562,      -47.6226806641,       -8.6364746094,        8.9569091797
1489456764.5794761181,1489456764.5817780495,       -0.6772460938,        0.4047851562,        0.1157226562,      -44.6166992188,      -10.7116699219,       15.6860351562
1489456764.5820639133,1489456764.5843560696,       -0.6772460938,        0.4047851562,        0.1157226562,      -44.6166992188,      -10.7116699219,       15.6860351562
1489456764.5847389698,1489456764.5872108936,       -0.6772460938,        0.3457031250,        0.1474609375,      -43.9910888672,      -13.9007568359,       21.6369628906
1489456764.5874979496,1489456764.5898590088,       -0.6879882812,        0.3457031250,        0.1474609375,      -43.9910888672,      -13.9007568359,       21.6369628906
1489456764.5901429653,1489456764.5924320221,       -0.6879882812,        0.3457031250,        0.1474609375,      -43.2891845703,      -15.7775878906,       28.7322998047
1489456764.5927140713,1489456764.5950019360,       -0.6879882812,        0.3457031250,        0.1474609375,      -43.2891845703,      -15.7775878906,       28.7322998047
1489456764.5952858925,1489456764.5975699425,       -0.6879882812,        0.3891601562,        0.1323242188,      -41.8548583984,      -17.2424316406,       37.1551513672
1489456764.5979690552,1489456764.6002719402,       -0.7031250000,        0.3891601562,        0.1323242188,      -41.8548583984,      -17.2424316406,       37.1551513672
1489456764.6005580425,1489456764.6028449535,       -0.7031250000,        0.3891601562,        0.1323242188,      -45.7611083984,      -17.2576904297,       46.1273193359
1489456764.6031301022,1489456764.6054170132,       -0.7031250000,        0.3891601562,        0.1323242188,      -43.5791015625,      -17.2576904297,       46.1273193359
1489456764.6057009697,1489456764.6079959869,       -0.7451171875,        0.3427734375,        0.1035156250,      -43.5791015625,      -17.2576904297,       53.7414550781
1489456764.6082789898,1489456764.6105949879,       -0.7451171875,        0.3427734375,        0.1035156250,      -44.6624755859,      -16.0064697266,       53.7414550781
1489456764.6108789444,1489456764.6131720543,       -0.7451171875,        0.3427734375,        0.1035156250,      -44.6624755859,      -16.0064697266,       54.6875000000
