time_stamp before, Acceleration x, Acceleration y, Acceleration z, Gyro x, Gyro y, Gyro z
1494036619.0137760639,       -0.6450195312,        2.0249023438,        0.0810546875,     -143.6004638672,       40.5578613281,     -240.0817871094
1494036619.0275940895,       -0.6450195312,        2.0249023438,        0.0810546875,     -122.0092773438,       44.2810058594,     -240.0817871094
1494036619.0312390327,       -0.6450195312,        2.0410156250,        0.1528320312,     -105.7434082031,       47.6684570312,     -223.6175537109
1494036619.0343379974,       -0.6337890625,        2.0410156250,        0.1528320312,     -105.7434082031,       47.6684570312,     -223.6175537109
1494036619.0370330811,       -0.6337890625,        2.0410156250,        0.1528320312,      -90.5761718750,       50.7202148438,     -206.8176269531
1494036619.0397219658,       -0.6337890625,        2.0410156250,        0.1528320312,      -90.5761718750,       50.7202148438,     -206.8176269531
1494036619.0424120426,       -0.7041015625,        2.0405273438,        0.1894531250,      -75.5157470703,       51.9866943359,     -189.8651123047
1494036619.0451130867,       -0.7041015625,        2.0405273438,        0.1894531250,      -75.5157470703,       51.9866943359,     -189.8651123047
1494036619.0478088856,       -0.7041015625,        2.0405273438,        0.1894531250,      -62.7288818359,       52.0324707031,     -172.7142333984
1494036619.0505020618,       -0.7041015625,        2.0405273438,        0.1894531250,      -62.7288818359,       52.0324707031,     -172.7142333984
1494036619.0531990528,       -0.8500976562,        2.0126953125,        0.2031250000,      -52.7954101562,       51.8035888672,     -154.9224853516
1494036619.0557510853,       -0.8500976562,        2.0126953125,        0.2031250000,      -52.7954101562,       51.8035888672,     -154.9224853516
1494036619.0583009720,       -0.8500976562,        2.0126953125,        0.2031250000,      -41.1376953125,       51.9409179688,     -136.4746093750
1494036619.0608530045,       -0.8500976562,        2.0126953125,        0.2255859375,      -41.1376953125,       51.9409179688,     -136.4746093750
1494036619.0634779930,       -0.8852539062,        2.0483398438,        0.2255859375,      -27.5268554688,       49.2401123047,     -117.8741455078
1494036619.0660340786,       -0.8852539062,        2.0483398438,        0.2255859375,      -27.5268554688,       49.2401123047,     -117.8741455078
1494036619.0685861111,       -0.8852539062,        2.0483398438,        0.2255859375,      -27.5268554688,       44.3878173828,      -99.9450683594
1494036619.0711400509,       -0.8852539062,        1.9233398438,        0.2485351562,      -15.0909423828,       44.3878173828,      -99.9450683594
1494036619.0738489628,       -0.8115234375,        1.9609375000,        0.2485351562,      -15.0909423828,       36.5753173828,      -83.8317871094
1494036619.0764069557,       -0.8115234375,        1.9609375000,        0.2485351562,       -4.8065185547,       38.4216308594,      -83.8317871094
1494036619.0789649487,       -0.8115234375,        1.9609375000,        0.2485351562,       -4.8065185547,       38.4216308594,      -67.3980712891
1494036619.0815150738,       -0.8115234375,        1.7026367188,        0.2055664062,        4.4250488281,       32.9284667969,      -67.3980712891
1494036619.0842161179,       -0.7670898438,        1.7026367188,        0.2055664062,        4.4250488281,       32.9284667969,      -51.7730712891
1494036619.0869090557,       -0.7670898438,        1.7026367188,        0.2055664062,       10.6506347656,       28.1829833984,      -50.8880615234
1494036619.0896060467,       -0.7670898438,        1.7026367188,        0.2055664062,       10.6506347656,       28.1829833984,      -31.3568115234
1494036619.0922999382,       -0.7783203125,        1.4077148438,        0.1372070312,       10.9252929688,       24.9176025391,      -34.2254638672
1494036619.0950040817,       -0.7783203125,        1.4077148438,        0.1372070312,       10.9252929688,       24.9176025391,      -18.6004638672
1494036619.0977020264,       -0.7783203125,        1.4077148438,        0.1372070312,        3.8299560547,       23.4680175781,      -17.4255371094
1494036619.1005580425,       -0.7783203125,        1.4077148438,        0.1372070312,        3.8299560547,       23.4680175781,       -1.8005371094
1494036619.1032578945,       -0.7270507812,        1.1772460938,        0.0097656250,       -9.6435546875,       22.8881835938,       -1.1291503906
1494036619.1059520245,       -0.7270507812,        1.1772460938,        0.0097656250,       -9.6435546875,       22.8881835938,       14.4958496094
1494036619.1086480618,       -0.7270507812,        1.1772460938,        0.0097656250,      -26.2908935547,       22.4914550781,       14.4195556641
1494036619.1113500595,       -0.7270507812,        1.1772460938,       -0.0610351562,      -26.2908935547,       22.4914550781,       30.0445556641
1494036619.1140561104,       -0.6298828125,        0.9584960938,       -0.0610351562,      -43.3197021484,       24.0478515625,       30.4718017578
1494036619.1166169643,       -0.6298828125,        0.9584960938,       -0.0610351562,      -43.3197021484,       24.0478515625,       30.4718017578
1494036619.1191799641,       -0.6298828125,        0.9584960938,       -0.0610351562,      -61.4013671875,       28.0456542969,       46.1730957031
1494036619.1217401028,       -0.6298828125,        0.7167968750,       -0.1274414062,      -61.4013671875,       28.0456542969,       46.1730957031
1494036619.1243789196,       -0.4775390625,        0.7167968750,       -0.1274414062,      -79.0710449219,       31.1431884766,       59.9670410156
1494036619.1269419193,       -0.4775390625,        0.7167968750,       -0.1274414062,      -79.0710449219,       31.1431884766,       59.9670410156
1494036619.1294949055,       -0.4775390625,        0.7167968750,       -0.1274414062,      -96.7254638672,       33.0657958984,       71.2280273438
1494036619.1320559978,       -0.3525390625,        0.4770507812,       -0.1933593750,      -96.7254638672,       33.0657958984,       71.2280273438
1494036619.1347410679,       -0.3725585938,        0.4770507812,       -0.1933593750,     -115.0817871094,       35.3088378906,       80.3680419922
1494036619.1374390125,       -0.3725585938,        0.4770507812,       -0.1933593750,     -115.0817871094,       35.3088378906,       80.3680419922
1494036619.1402530670,       -0.3725585938,        0.4770507812,       -0.1933593750,     -118.1793212891,       35.1715087891,       92.9565429688
1494036619.1429510117,       -0.1337890625,        1.4956054688,        0.4736328125,     -118.1793212891,       35.1715087891,       92.9565429688
1494036619.1458370686,       -0.1337890625,        1.4956054688,        0.4736328125,      -92.1630859375,       24.9328613281,      120.0714111328
1494036619.1485700607,       -0.1337890625,        1.4956054688,        0.4736328125,      -92.1630859375,       24.9328613281,      120.0714111328
1494036619.1514139175,       -0.1337890625,        1.4956054688,        0.0986328125,     -141.2811279297,       18.6462402344,      167.8619384766
1494036619.1541309357,       -0.2998046875,        3.0986328125,        0.0834960938,     -141.2811279297,       18.6462402344,      167.8619384766
1494036619.1568269730,       -0.2998046875,        3.0986328125,        0.0834960938,     -226.3641357422,       28.1066894531,      196.1975097656
1494036619.1595289707,       -0.2998046875,        3.0986328125,        0.0834960938,     -226.3641357422,       28.1066894531,      196.1975097656
1494036619.1622331142,       -0.2998046875,       -0.0625000000,        0.2055664062,      -72.5250244141,        6.8817138672,      166.8853759766
1494036619.1649420261,       -1.5463867188,       -0.0625000000,        0.2055664062,      -72.5250244141,        6.8817138672,      166.8853759766
1494036619.1676421165,       -1.5463867188,       -0.0625000000,        0.2055664062,       17.7307128906,       -8.9416503906,      164.1845703125
1494036619.1703379154,       -1.5463867188,       -0.0625000000,        0.2055664062,       17.7307128906,       -8.9416503906,      164.1845703125
1494036619.1731901169,       -1.9619140625,       -1.1083984375,        0.2680664062,      -12.3291015625,       -8.1176757812,      172.3937988281
1494036619.1757531166,       -1.9619140625,       -1.1083984375,        0.2680664062,      -12.3291015625,       -8.1176757812,      172.3937988281
1494036619.1783099174,       -1.9619140625,       -1.1083984375,        0.2680664062,      -31.5246582031,      -24.8870849609,      145.4925537109
1494036619.1808679104,       -1.9619140625,       -1.1083984375,        0.2680664062,      -31.5246582031,      -24.8870849609,      145.4925537109
1494036619.1834919453,       -1.4130859375,       -1.2880859375,       -0.4033203125,      -53.6651611328,       -0.3356933594,      105.2093505859
1494036619.1860470772,       -1.4130859375,       -1.2880859375,       -0.4033203125,      -53.6651611328,       -0.3356933594,      105.2093505859
1494036619.1886041164,       -1.4130859375,       -1.2880859375,       -0.4033203125,      -81.0089111328,       11.7187500000,       95.5963134766
1494036619.1911609173,       -1.4130859375,       -1.2880859375,       -0.4033203125,      -78.3538818359,       11.7187500000,       95.5963134766
1494036619.1938500404,       -0.2153320312,        0.1489257812,        1.2314453125,      -78.3538818359,      -26.1230468750,      108.7036132812
1494036619.1964120865,       -0.2153320312,        0.1489257812,        1.2314453125,     -101.8371582031,      -26.1230468750,      108.7036132812
1494036619.1989710331,       -0.2153320312,        0.1489257812,        1.2314453125,     -101.8371582031,      -26.1230468750,      125.8544921875
1494036619.2015340328,       -0.2153320312,        0.1489257812,        1.2314453125,     -127.3651123047,      -59.7991943359,      125.8544921875
1494036619.2042310238,       -2.3144531250,        0.3320312500,        1.4389648438,     -127.3651123047,      -59.7991943359,      152.9693603516
1494036619.2069299221,       -2.3144531250,        0.3320312500,        1.4389648438,     -122.9705810547,      -42.3736572266,      152.9693603516
1494036619.2096309662,       -2.3144531250,        0.3320312500,        1.4389648438,     -122.9705810547,      -42.3736572266,      158.1115722656
1494036619.2123360634,       -2.3144531250,       -1.0429687500,       -1.7944335938,      -94.8333740234,       -1.5869140625,      158.1115722656
1494036619.2149798870,       -6.7402343750,       -1.0043945312,       -1.7944335938,      -94.8333740234,       -1.5869140625,      142.4865722656
1494036619.2175331116,       -6.7402343750,       -1.0043945312,       -1.7944335938,       17.0440673828,       52.0782470703,      141.4794921875
1494036619.2200860977,       -6.7402343750,       -1.0043945312,       -1.7944335938,       17.0440673828,       52.0782470703,      141.4794921875
1494036619.2226428986,       -6.7402343750,       -0.4877929688,       -1.8974609375,       37.9180908203,       67.9931640625,      196.1212158203
1494036619.2253251076,       -1.9331054688,       -0.4877929688,       -1.8974609375,       37.9180908203,       67.9931640625,      196.1212158203
1494036619.2280230522,       -1.9331054688,       -0.4877929688,       -1.8974609375,      -51.3153076172,       56.4270019531,      235.3057861328
1494036619.2307200432,       -1.9331054688,       -0.4877929688,       -1.8974609375,      -51.3153076172,       56.4270019531,      235.3057861328
1494036619.2334499359,       -0.0361328125,        0.2983398438,       -0.0561523438,     -123.7945556641,       41.8243408203,      218.8110351562
1494036619.2360119820,       -0.0361328125,        0.2983398438,       -0.0561523438,     -123.7945556641,       41.8243408203,      218.8110351562
1494036619.2385709286,       -0.0361328125,        0.2983398438,       -0.0561523438,     -174.8352050781,       32.6385498047,      172.2412109375
1494036619.2411279678,       -0.0361328125,        0.2983398438,       -0.0561523438,     -174.8352050781,       32.6385498047,      172.2412109375
1494036619.2437300682,        1.0996093750,        0.6621093750,        0.4941406250,     -207.8399658203,       20.7214355469,      149.4750976562
1494036619.2465529442,        1.0996093750,        0.6621093750,        0.4941406250,     -207.8399658203,       20.7214355469,      149.4750976562
1494036619.2492530346,        1.0996093750,        0.6621093750,        0.4941406250,     -206.9702148438,       14.9230957031,      162.8112792969
1494036619.2519540787,        1.0996093750,        0.6621093750,        0.4941406250,     -206.9702148438,       14.9230957031,      162.8112792969
1494036619.2546880245,        0.8510742188,        0.8300781250,        0.3969726562,     -182.2814941406,       15.8386230469,      172.7752685547
1494036619.2573881149,        0.8510742188,        0.8300781250,        0.3969726562,     -182.2814941406,       15.8386230469,      172.7752685547
1494036619.2601630688,        0.8510742188,        0.8300781250,        0.3969726562,     -137.6342773438,       10.4522705078,      159.3933105469
1494036619.2628660202,        0.8510742188,        1.0800781250,        0.3901367188,     -137.6342773438,       10.4522705078,      159.3933105469
1494036619.2654678822,        0.1357421875,        1.0708007812,        0.3901367188,      -65.7958984375,        0.4730224609,      143.8293457031
1494036619.2680249214,        0.1357421875,        1.0708007812,        0.3901367188,      -65.7958984375,        0.4730224609,      143.8293457031
1494036619.2705800533,        0.1357421875,        1.0708007812,        0.3901367188,        8.8500976562,       -7.6751708984,      138.6260986328
1494036619.2731320858,        0.1357421875,        1.1533203125,        0.3325195312,        8.8500976562,       -7.6751708984,      138.6260986328
1494036619.2758710384,       -1.0581054688,        1.1533203125,        0.3325195312,       57.8918457031,      -16.1437988281,      129.9438476562
1494036619.2785689831,       -1.0581054688,        1.1533203125,        0.3325195312,       57.8918457031,      -16.1437988281,      129.9438476562
1494036619.2812690735,       -1.0581054688,        1.1533203125,        0.3325195312,       69.4732666016,      -23.8342285156,      119.5526123047
1494036619.2839810848,       -1.0327148438,        0.5576171875,       -0.1303710938,       69.4732666016,      -23.8342285156,      119.5526123047
1494036619.2866849899,       -1.0327148438,        0.5576171875,       -0.1303710938,       58.5784912109,      -30.5328369141,      116.3024902344
1494036619.2893879414,       -1.0327148438,        0.5576171875,       -0.1303710938,       58.5784912109,      -30.5328369141,      116.3024902344
1494036619.2920889854,       -1.0327148438,        0.5576171875,       -0.1303710938,       50.3997802734,      -30.7312011719,      118.8964843750
1494036619.2947111130,       -0.7309570312,        0.3217773438,       -0.3134765625,       50.3997802734,      -30.7312011719,      118.8964843750
1494036619.2972710133,       -0.7309570312,        0.3217773438,       -0.3134765625,       50.3997802734,      -24.2309570312,      119.7052001953
1494036619.2998349667,       -0.7309570312,        0.3217773438,       -0.3134765625,       39.7338867188,      -24.2309570312,      119.7052001953
1494036619.3023929596,       -0.7309570312,        0.3217773438,       -0.3134765625,       39.7338867188,      -16.4184570312,      120.5749511719
1494036619.3051059246,       -0.8852539062,        0.2612304688,       -0.0219726562,       21.2097167969,      -16.4337158203,      120.5749511719
1494036619.3076720238,       -0.8852539062,        0.2612304688,       -0.0219726562,       21.2097167969,      -16.4337158203,      121.8261718750
1494036619.3102359772,       -0.8852539062,        0.2612304688,       -0.0219726562,        6.6223144531,      -10.1318359375,      121.8261718750
1494036619.3127911091,       -0.8852539062,        0.2612304688,        0.2280273438,        6.6223144531,      -10.1318359375,      121.8261718750
1494036619.3154990673,       -0.7895507812,        0.0522460938,        0.1669921875,       -2.1972656250,       -6.0119628906,      121.8109130859
1494036619.3180520535,       -0.7895507812,        0.0522460938,        0.1669921875,       -2.1972656250,       -6.0119628906,      121.8109130859
1494036619.3207190037,       -0.7895507812,        0.0522460938,        0.1669921875,       -8.5144042969,       -3.2653808594,      124.4659423828
1494036619.3232789040,       -0.7895507812,        0.3022460938,        0.1850585938,       -8.5144042969,       -3.2653808594,      124.4659423828
1494036619.3259689808,       -0.5952148438,        0.2949218750,        0.1850585938,      -17.5170898438,       -0.8697509766,      125.1983642578
1494036619.3286690712,       -0.5952148438,        0.2949218750,        0.1850585938,      -17.5170898438,       -0.8697509766,      125.1983642578
1494036619.3313579559,       -0.5952148438,        0.2949218750,        0.1850585938,      -26.2145996094,        0.1068115234,      119.3389892578
1494036619.3340649605,       -0.4916992188,        0.7939453125,        0.1328125000,      -26.2145996094,        0.1068115234,      119.3389892578
1494036619.3367640972,       -0.4916992188,        0.7939453125,        0.1328125000,      -21.7742919922,       -1.2817382812,      112.3352050781
1494036619.3394539356,       -0.4916992188,        0.7939453125,        0.1328125000,      -21.7742919922,       -1.2817382812,      112.3352050781
1494036619.3421440125,       -0.4916992188,        0.7939453125,        0.1328125000,       -8.9263916016,       -6.0424804688,      108.5205078125
1494036619.3448750973,       -0.5166015625,        0.7929687500,        0.0874023438,       -8.9263916016,       -6.0424804688,      108.5205078125
1494036619.3475649357,       -0.5166015625,        0.7929687500,        0.0874023438,        7.6599121094,      -11.7340087891,      105.8654785156
1494036619.3502690792,       -0.5166015625,        0.7929687500,        0.0874023438,        7.6599121094,      -11.7340087891,      105.8654785156
1494036619.3530049324,       -0.5166015625,        0.7929687500,        0.0874023438,       20.1263427734,      -13.9465332031,      106.0638427734
1494036619.3557300568,       -0.6040039062,        0.5380859375,        0.0883789062,       20.1263427734,      -13.9465332031,      106.0638427734
1494036619.3582880497,       -0.6040039062,        0.5380859375,        0.0883789062,       24.7497558594,      -15.9759521484,      106.6131591797
1494036619.3609600067,       -0.6040039062,        0.5380859375,        0.0883789062,       24.7497558594,      -15.9759521484,      106.6131591797
1494036619.3639340401,       -0.6040039062,        0.5415039062,        0.0185546875,       23.0560302734,      -18.1884765625,      105.6060791016
1494036619.3666400909,       -0.7719726562,        0.5415039062,        0.0185546875,       23.0560302734,      -18.1884765625,      105.6060791016
1494036619.3693399429,       -0.7719726562,        0.5415039062,        0.0185546875,       19.1192626953,      -20.2331542969,      106.0943603516
1494036619.3720359802,       -0.7719726562,        0.5415039062,        0.0185546875,       19.1192626953,      -20.2331542969,      106.0943603516
1494036619.3747420311,       -0.8750000000,        0.5634765625,        0.0532226562,       17.4865722656,      -23.3001708984,      109.0850830078
1494036619.3774349689,       -0.8750000000,        0.5634765625,        0.0532226562,       17.4865722656,      -23.3001708984,      109.0850830078
1494036619.3801350594,       -0.8750000000,        0.5634765625,        0.0532226562,       20.2636718750,      -28.9611816406,      112.6861572266
1494036619.3828349113,       -0.8750000000,        0.5634765625,        0.0532226562,       20.2636718750,      -28.9611816406,      112.6861572266
1494036619.3855450153,       -1.0253906250,        0.7329101562,        0.4062500000,       33.0657958984,      -38.9251708984,      116.3024902344
1494036619.3882360458,       -1.0253906250,        0.7329101562,        0.4062500000,       33.0657958984,      -38.9251708984,      116.3024902344
1494036619.3909280300,       -1.0253906250,        0.7329101562,        0.4062500000,       45.2728271484,      -51.3000488281,      118.3929443359
1494036619.3937780857,       -1.0253906250,        0.7329101562,        0.3867187500,       45.2728271484,      -51.3000488281,      118.3929443359
1494036619.3963339329,       -1.7021484375,        0.7304687500,        0.3867187500,       35.0646972656,      -55.6488037109,      120.2545166016
1494036619.3988931179,       -1.7021484375,        0.7304687500,        0.3867187500,       35.0646972656,      -55.6488037109,      120.2545166016
1494036619.4014439583,       -1.7021484375,        0.7304687500,        0.3867187500,       27.8625488281,      -61.1572265625,      126.8157958984
1494036619.4040439129,       -1.7021484375,        0.7304687500,        0.0083007812,       27.8625488281,      -61.1572265625,      126.8157958984
1494036619.4066030979,       -1.9409179688,        0.7285156250,        0.0083007812,       39.6728515625,      -73.5626220703,      134.8876953125
1494036619.4091639519,       -1.9409179688,        0.7285156250,        0.0083007812,       39.6728515625,      -73.5626220703,      134.8876953125
1494036619.4117150307,       -1.9409179688,        0.7285156250,        0.0083007812,       51.3916015625,      -82.0770263672,      142.7001953125
1494036619.4143760204,       -1.9409179688,        0.4355468750,        0.0288085938,       51.8493652344,      -82.0770263672,      142.7001953125
1494036619.4169330597,       -2.3837890625,        0.4355468750,        0.0288085938,       51.8493652344,      -85.9832763672,      152.3590087891
1494036619.4194879532,       -2.3837890625,        0.4355468750,        0.0288085938,       56.4270019531,      -85.9527587891,      152.3590087891
1494036619.4220430851,       -2.3837890625,        0.4355468750,        0.0288085938,       56.4270019531,      -85.9527587891,      161.9873046875
1494036619.4248139858,       -2.3837890625,        0.0639648438,       -0.1196289062,       54.5196533203,      -88.6535644531,      161.9873046875
1494036619.4275159836,       -2.4233398438,        0.0639648438,       -0.1196289062,       54.5196533203,      -88.6535644531,      169.5556640625
1494036619.4302120209,       -2.4233398438,        0.0639648438,       -0.1196289062,       57.1594238281,      -90.4083251953,      169.5556640625
1494036619.4329099655,       -2.4233398438,        0.0639648438,       -0.1196289062,       57.1594238281,      -90.4083251953,      172.4548339844
1494036619.4356069565,       -1.9697265625,        0.1088867188,       -0.1440429688,       61.6302490234,      -90.4388427734,      172.4548339844
1494036619.4383039474,       -1.9697265625,        0.1088867188,       -0.1440429688,       61.6302490234,      -90.4388427734,      172.4700927734
1494036619.4409999847,       -1.9697265625,        0.1088867188,       -0.1440429688,       65.9790039062,      -91.4459228516,      172.4700927734
1494036619.4437179565,       -1.9697265625,        0.1088867188,       -0.1440429688,       65.9790039062,      -91.4459228516,      169.5556640625
1494036619.4464159012,       -1.6162109375,        0.0639648438,       -0.1645507812,       69.1375732422,      -94.5587158203,      169.5556640625
1494036619.4491200447,       -1.6162109375,        0.0639648438,       -0.1645507812,       69.1375732422,      -94.5587158203,      166.3513183594
1494036619.4518220425,       -1.6162109375,        0.0639648438,       -0.1645507812,       75.5767822266,      -96.9085693359,      166.3513183594
1494036619.4544699192,       -1.6162109375,        0.0639648438,       -0.2211914062,       75.5767822266,      -96.9085693359,      162.4450683594
1494036619.4570229053,       -1.4145507812,        0.0087890625,       -0.2211914062,       84.3811035156,      -98.8311767578,      162.3229980469
1494036619.4595789909,       -1.4145507812,        0.0087890625,       -0.2211914062,       84.3811035156,      -98.8311767578,      162.3229980469
1494036619.4621410370,       -1.4145507812,        0.0087890625,       -0.2211914062,       92.1783447266,     -101.5014648438,      155.8837890625
1494036619.4647951126,       -1.4145507812,       -0.0356445312,       -0.1459960938,       92.1783447266,     -101.5014648438,      155.8837890625
1494036619.4674620628,       -1.1879882812,       -0.0356445312,       -0.1459960938,       86.9445800781,     -107.5592041016,      141.5252685547
1494036619.4700269699,       -1.1879882812,       -0.0356445312,       -0.1459960938,       86.9445800781,     -107.5592041016,      141.5252685547
1494036619.4725890160,       -1.1879882812,       -0.0356445312,       -0.1459960938,       75.6225585938,     -112.1063232422,      116.5466308594
1494036619.4753019810,       -0.9892578125,       -0.4565429688,       -0.5009765625,       75.6225585938,     -112.1063232422,      116.5466308594
1494036619.4779870510,       -0.9892578125,       -0.4565429688,       -0.5009765625,       97.5189208984,     -104.2633056641,      104.3090820312
1494036619.4807798862,       -0.9892578125,       -0.4565429688,       -0.5009765625,       97.5189208984,     -104.2633056641,      104.3090820312
1494036619.4838600159,       -0.9892578125,       -0.4565429688,       -0.5009765625,      135.0708007812,      -94.6655273438,      106.0180664062
1494036619.4865610600,       -0.2617187500,       -0.0854492188,       -0.1621093750,      135.0708007812,      -94.6655273438,      106.0180664062
1494036619.4892649651,       -0.2617187500,       -0.0854492188,       -0.1621093750,      150.9552001953,      -84.1217041016,      104.8431396484
1494036619.4919719696,       -0.2617187500,       -0.0854492188,       -0.1621093750,      150.9552001953,      -84.1217041016,      104.8431396484
1494036619.4946780205,       -0.2617187500,       -0.0854492188,        0.2446289062,      161.1633300781,      -91.9952392578,       96.4660644531
1494036619.4973840714,        0.4208984375,       -0.7148437500,        0.2446289062,      161.1633300781,      -91.9952392578,       96.4660644531
1494036619.5000829697,        0.4208984375,       -0.7148437500,        0.2446289062,      166.9158935547,     -108.5510253906,       64.1326904297
1494036619.5027840137,        0.4208984375,       -0.7148437500,        0.2446289062,      166.9158935547,     -108.5510253906,       64.1326904297
1494036619.5054950714,        0.6708984375,       -2.4746093750,        0.1259765625,      177.7191162109,     -103.7445068359,        5.0506591797
1494036619.5081870556,        0.6411132812,       -2.4746093750,        0.1259765625,      177.7191162109,     -103.7445068359,        5.0506591797
1494036619.5108819008,        0.6411132812,       -2.4746093750,        0.1259765625,      168.7622070312,      -94.3603515625,      -31.9213867188
1494036619.5135819912,        0.6411132812,       -2.4746093750,        0.1259765625,      168.7622070312,      -94.3603515625,      -31.9213867188
1494036619.5161380768,       -0.1796875000,       -2.1572265625,       -0.2329101562,      130.5084228516,      -85.3424072266,      -50.3692626953
1494036619.5186951160,       -0.1796875000,       -2.1572265625,       -0.2329101562,      130.5084228516,      -85.3424072266,      -50.3692626953
1494036619.5212531090,       -0.1796875000,       -2.1572265625,       -0.2329101562,       72.2961425781,      -75.7904052734,      -76.0650634766
1494036619.5238599777,       -0.1796875000,       -2.1572265625,       -0.2329101562,       72.2961425781,      -75.7904052734,      -76.0650634766
1494036619.5264139175,       -0.5595703125,       -1.6430664062,       -0.1542968750,       33.6761474609,      -67.0776367188,     -102.2796630859
1494036619.5289759636,       -0.5595703125,       -1.6430664062,       -0.1542968750,       33.6761474609,      -67.0776367188,     -102.2796630859
1494036619.5315349102,       -0.5595703125,       -1.6430664062,       -0.1542968750,       21.9573974609,      -60.7757568359,     -123.0316162109
1494036619.5342020988,       -0.5595703125,       -1.6430664062,       -0.1542968750,       21.7437744141,      -60.7757568359,     -123.0316162109
1494036619.5367650986,       -0.3789062500,       -0.9492187500,        0.0024414062,       21.7437744141,      -57.3577880859,     -143.5241699219
1494036619.5393218994,       -0.3789062500,       -0.9492187500,        0.0024414062,        3.6010742188,      -57.3577880859,     -143.5241699219
1494036619.5419869423,       -0.3789062500,       -0.9492187500,        0.0024414062,        3.6010742188,      -53.9093017578,     -172.1649169922
1494036619.5447800159,       -0.3789062500,       -0.9492187500,        0.1274414062,      -28.9916992188,      -53.9093017578,     -172.1649169922
1494036619.5474820137,       -0.1748046875,       -0.8725585938,        0.2290039062,      -28.9916992188,      -50.0030517578,     -205.2764892578
1494036619.5501840115,       -0.1748046875,       -0.8725585938,        0.2290039062,      -59.1583251953,      -47.6531982422,     -205.2764892578
1494036619.5528800488,       -0.1748046875,       -0.8725585938,        0.2290039062,      -59.1583251953,      -35.9344482422,     -236.5264892578
1494036619.5555839539,       -0.1748046875,       -0.8330078125,        0.1547851562,      -76.5380859375,      -36.7279052734,     -236.5264892578
1494036619.5582809448,       -0.1855468750,       -0.8330078125,        0.1547851562,      -76.5380859375,      -21.1029052734,     -260.4370117188
1494036619.5609788895,       -0.1855468750,       -0.8330078125,        0.1547851562,      -89.5690917969,      -22.8118896484,     -260.4370117188
1494036619.5636880398,       -0.1855468750,       -0.8330078125,        0.1547851562,      -89.5690917969,      -11.0931396484,     -277.2674560547
1494036619.5663840771,       -0.3012695312,       -0.7197265625,        0.2275390625,     -104.1412353516,      -10.3454589844,     -277.2674560547
1494036619.5690770149,       -0.3012695312,       -0.7197265625,        0.2275390625,     -104.1412353516,       -2.5329589844,     -290.5426025391
1494036619.5717730522,       -0.3012695312,       -0.7197265625,        0.2275390625,     -115.3717041016,       -2.1820068359,     -290.5426025391
1494036619.5744171143,       -0.3012695312,       -0.7197265625,        0.2275390625,     -115.3717041016,       -2.1820068359,     -301.2847900391
1494036619.5769660473,       -0.3999023438,       -0.3818359375,        0.3007812500,     -121.2005615234,        2.5329589844,     -301.2847900391
1494036619.5795180798,       -0.3999023438,       -0.3818359375,        0.3007812500,     -121.2005615234,        2.5329589844,     -301.2847900391
1494036619.5820660591,       -0.3999023438,       -0.3818359375,        0.3007812500,     -118.7896728516,        3.9672851562,     -311.0656738281
1494036619.5847361088,       -0.3999023438,       -0.3818359375,        0.3007812500,     -118.7896728516,        3.9672851562,     -311.0656738281
1494036619.5874249935,       -0.4047851562,        0.0815429688,        0.3706054688,     -102.0355224609,        1.4190673828,     -320.3277587891
1494036619.5901188850,       -0.4047851562,        0.0815429688,        0.3706054688,     -102.0355224609,        1.4190673828,     -320.3277587891
1494036619.5928130150,       -0.4047851562,        0.0815429688,        0.3706054688,      -66.4978027344,       -4.1503906250,     -328.4454345703
1494036619.5955140591,       -0.4047851562,        0.0815429688,        0.2797851562,      -66.4978027344,       -4.1503906250,     -328.4454345703
1494036619.5982069969,       -0.3828125000,        0.5830078125,        0.2797851562,      -13.8092041016,      -10.5438232422,     -333.2214355469
1494036619.6010708809,       -0.3828125000,        0.5830078125,        0.2797851562,      -13.8092041016,      -10.5438232422,     -333.2214355469
1494036619.6038649082,       -0.3828125000,        0.5830078125,        0.2797851562,       45.5932617188,      -18.8903808594,     -335.7086181641
1494036619.6064960957,       -0.3881835938,        0.8022460938,        0.0297851562,       45.5932617188,      -18.8903808594,     -335.7086181641
1494036619.6090540886,       -0.3881835938,        0.8022460938,        0.0297851562,       99.3652343750,      -32.4859619141,     -337.4786376953
1494036619.6116180420,       -0.3881835938,        0.8022460938,        0.0297851562,       99.3652343750,      -32.4859619141,     -337.4786376953
1494036619.6143999100,       -0.3881835938,        0.8022460938,        0.0297851562,      139.6484375000,      -48.5992431641,     -337.0666503906
1494036619.6170890331,       -0.5014648438,        0.6342773438,       -0.2636718750,      139.6484375000,      -48.5992431641,     -337.0666503906
1494036619.6197700500,       -0.5014648438,        0.6342773438,       -0.2636718750,      162.1246337891,      -61.1267089844,     -335.6170654297
1494036619.6224539280,       -0.5014648438,        0.6342773438,       -0.2636718750,      162.1246337891,      -61.1267089844,     -335.6170654297
1494036619.6251459122,       -0.5014648438,        0.6342773438,       -0.2636718750,      166.5802001953,      -64.3615722656,     -333.5876464844
1494036619.6278250217,       -0.6923828125,        0.2724609375,       -0.5463867188,      166.5802001953,      -64.3615722656,     -333.5876464844
1494036619.6305060387,       -0.6923828125,        0.2724609375,       -0.5463867188,      154.3121337891,      -59.3719482422,     -331.3903808594
1494036619.6331939697,       -0.6923828125,        0.2724609375,       -0.5463867188,      154.3121337891,      -59.3719482422,     -331.3903808594
1494036619.6357529163,       -0.6923828125,        0.2724609375,       -0.7963867188,      120.2087402344,      -49.6215820312,     -328.4606933594
1494036619.6383130550,       -0.9218750000,        0.1899414062,       -0.7509765625,      120.2087402344,      -49.6215820312,     -328.4606933594
1494036619.6408720016,       -0.9218750000,        0.1899414062,       -0.7509765625,       66.6961669922,      -39.0777587891,     -323.7457275391
1494036619.6435310841,       -0.9218750000,        0.1899414062,       -0.7509765625,       66.6961669922,      -39.0777587891,     -323.7457275391
1494036619.6460840702,       -0.9218750000,        0.1899414062,       -0.7231445312,        4.5318603516,      -29.3731689453,     -318.1915283203
1494036619.6486361027,       -1.0659179688,        0.4736328125,       -0.7231445312,        4.5318603516,      -29.3731689453,     -318.1915283203
1494036619.6511859894,       -1.0659179688,        0.4736328125,       -0.7231445312,      -57.9681396484,      -21.2554931641,     -313.1256103516
1494036619.6538469791,       -1.0659179688,        0.4736328125,       -0.7231445312,      -55.1147460938,      -21.2554931641,     -313.1256103516
1494036619.6564140320,       -1.0659179688,        1.0986328125,       -0.4072265625,      -55.1147460938,       -9.5367431641,     -308.1512451172
1494036619.6589729786,       -1.2011718750,        1.0126953125,       -0.4072265625,     -105.3924560547,      -11.3220214844,     -308.1512451172
1494036619.6615300179,       -1.2011718750,        1.0126953125,       -0.4072265625,     -105.3924560547,      -11.3220214844,     -305.0537109375
1494036619.6642339230,       -1.2011718750,        1.0126953125,       -0.4072265625,     -144.1040039062,        0.2593994141,     -305.0537109375
1494036619.6669330597,       -1.2011718750,        1.5034179688,        0.0166015625,     -144.1040039062,        0.2593994141,     -302.7801513672
1494036619.6696279049,       -1.2236328125,        1.5034179688,        0.0166015625,     -175.9033203125,       12.4816894531,     -302.7801513672
1494036619.6723220348,       -1.2236328125,        1.5034179688,        0.0166015625,     -175.9033203125,       12.4816894531,     -297.7752685547
1494036619.6750171185,       -1.2236328125,        1.5034179688,        0.0166015625,     -203.6437988281,       24.6276855469,     -297.7752685547
1494036619.6777100563,       -1.2104492188,        1.9130859375,        0.3203125000,     -203.6437988281,       24.6276855469,     -285.9802246094
1494036619.6804120541,       -1.2104492188,        1.9130859375,        0.3203125000,     -221.7254638672,       34.4085693359,     -285.9802246094
1494036619.6831059456,       -1.2104492188,        1.9130859375,        0.3203125000,     -221.7254638672,       34.4085693359,     -270.0042724609
1494036619.6858088970,       -1.2104492188,        1.9130859375,        0.3203125000,     -225.6164550781,       40.4968261719,     -270.0042724609
1494036619.6886179447,       -1.1723632812,        2.3222656250,        0.4804687500,     -225.6164550781,       40.4968261719,     -253.6926269531
1494036619.6913180351,       -1.1723632812,        2.3222656250,        0.4804687500,     -215.5761718750,       42.0532226562,     -253.6926269531
1494036619.6939780712,       -1.1723632812,        2.3222656250,        0.4804687500,     -215.5761718750,       42.0532226562,     -238.0676269531
1494036619.6965360641,       -1.1723632812,        2.3222656250,        0.4145507812,     -189.1937255859,       39.0777587891,     -235.0158691406
1494036619.6990981102,       -1.1967773438,        2.5771484375,        0.4145507812,     -189.1937255859,       39.0777587891,     -235.0158691406
1494036619.7016549110,       -1.1967773438,        2.5771484375,        0.4145507812,     -148.1781005859,       36.2396240234,     -215.5151367188
1494036619.7043380737,       -1.1967773438,        2.5771484375,        0.4145507812,     -148.1781005859,       36.2396240234,     -215.5151367188
1494036619.7068929672,       -1.1967773438,        2.6791992188,        0.2656250000,      -95.5657958984,       34.1949462891,     -195.4193115234
1494036619.7094500065,       -1.0981445312,        2.6791992188,        0.2656250000,      -95.5657958984,       34.1949462891,     -195.4193115234
1494036619.7120049000,       -1.0981445312,        2.6791992188,        0.2656250000,      -36.1175537109,       29.8919677734,     -172.4548339844
1494036619.7147040367,       -1.0981445312,        2.6791992188,        0.2656250000,      -36.1175537109,       29.8919677734,     -172.4548339844
1494036619.7173969746,       -0.9731445312,        2.4433593750,        0.2768554688,       20.2026367188,       22.7355957031,     -148.4222412109
1494036619.7201790810,       -0.9169921875,        2.4433593750,        0.2768554688,       20.2026367188,       22.7355957031,     -148.4222412109
1494036619.7233040333,       -0.9169921875,        2.4433593750,        0.2768554688,       66.1163330078,       13.0157470703,     -123.5809326172
1494036619.7260088921,       -0.9169921875,        2.4433593750,        0.2768554688,       66.1163330078,       13.0157470703,     -123.5809326172
1494036619.7287049294,       -0.8393554688,        2.1767578125,        0.3178710938,      100.3723144531,        3.1585693359,      -96.7864990234
1494036619.7313969135,       -0.8393554688,        2.1767578125,        0.3178710938,      100.3723144531,        3.1585693359,      -96.7864990234
1494036619.7340989113,       -0.8393554688,        2.1767578125,        0.3178710938,      126.2359619141,       -3.5552978516,      -69.2749023438
1494036619.7367899418,       -0.8393554688,        2.1767578125,        0.1557617188,      126.2359619141,       -3.5552978516,      -69.2749023438
1494036619.7394809723,       -0.8129882812,        1.9453125000,        0.1557617188,      145.8587646484,       -7.1105957031,      -43.0145263672
1494036619.7421770096,       -0.8129882812,        1.9453125000,        0.1557617188,      145.8587646484,       -7.1105957031,      -43.0145263672
1494036619.7447919846,       -0.8129882812,        1.9453125000,        0.1557617188,      156.0058593750,       -8.6059570312,      -17.6544189453
1494036619.7473459244,       -0.8129882812,        1.4941406250,       -0.0756835938,      156.0058593750,       -8.6059570312,      -17.6544189453
1494036619.7498950958,       -0.8061523438,        1.4941406250,       -0.0756835938,      152.6031494141,       -5.6610107422,        5.7983398438
1494036619.7524440289,       -0.8061523438,        1.4941406250,       -0.0756835938,      152.6031494141,       -5.6610107422,        5.7983398438
1494036619.7550220490,       -0.8061523438,        1.4941406250,       -0.0756835938,      131.6528320312,        1.6174316406,       26.1840820312
1494036619.7575778961,       -0.8061523438,        0.9028320312,       -0.3183593750,      131.6528320312,        1.6174316406,       26.1840820312
1494036619.7601299286,       -0.7509765625,        0.9028320312,       -0.3183593750,       96.4965820312,        9.0332031250,       41.9158935547
1494036619.7627971172,       -0.7509765625,        0.9028320312,       -0.3183593750,       94.6807861328,        9.0332031250,       41.9158935547
1494036619.7653980255,       -0.7509765625,        0.9028320312,       -0.3183593750,       94.6807861328,       16.2811279297,       54.0771484375
1494036619.7679550648,       -0.6694335938,        0.4755859375,       -0.4306640625,       46.9512939453,       16.2811279297,       54.0771484375
1494036619.7705080509,       -0.6694335938,        0.4755859375,       -0.4306640625,       46.9512939453,       16.2811279297,       66.1468505859
1494036619.7730650902,       -0.6694335938,        0.4755859375,       -0.4306640625,       -4.1503906250,       24.3225097656,       66.1468505859
1494036619.7757380009,       -0.6694335938,        0.4755859375,       -0.4306640625,       -4.1503906250,       24.3225097656,       78.7200927734
1494036619.7782969475,       -0.5751953125,        0.2524414062,       -0.4477539062,      -55.5572509766,       33.6151123047,       78.7200927734
1494036619.7808580399,       -0.5751953125,        0.2524414062,       -0.4477539062,      -55.5572509766,       33.6151123047,       78.7200927734
1494036619.7835800648,       -0.5751953125,        0.2524414062,       -0.4477539062,     -106.3537597656,       43.1213378906,       89.9353027344
1494036619.7862908840,       -0.5751953125,        0.2524414062,       -0.4477539062,     -106.3537597656,       43.1213378906,       97.7478027344
1494036619.7889900208,       -0.4594726562,        0.1542968750,       -0.3520507812,     -154.6020507812,       51.4831542969,      100.6622314453
1494036619.7916951180,       -0.4594726562,        0.1542968750,       -0.3520507812,     -154.6020507812,       51.4831542969,      100.6622314453
1494036619.7943360806,       -0.4594726562,        0.1542968750,       -0.3520507812,     -198.5321044922,       58.8836669922,      112.7929687500
1494036619.7968900204,       -0.4594726562,        0.1542968750,       -0.3520507812,     -198.5321044922,       58.8836669922,      112.7929687500
1494036619.7994489670,       -0.3574218750,        0.1811523438,       -0.2182617188,     -235.7788085938,       64.6362304688,      122.6501464844
1494036619.8020060062,       -0.3574218750,        0.1811523438,       -0.2182617188,     -235.7788085938,       64.6362304688,      122.6501464844
1494036619.8046910763,       -0.3574218750,        0.1811523438,       -0.2182617188,     -257.4157714844,       67.0776367188,      131.4239501953
1494036619.8073890209,       -0.3574218750,        0.1811523438,        0.5039062500,     -257.4157714844,       67.0776367188,      131.4239501953
1494036619.8100891113,       -0.0732421875,        1.6450195312,        0.5039062500,     -212.2344970703,       62.0574951172,      153.1677246094
1494036619.8127889633,       -0.0732421875,        1.6450195312,        0.5039062500,     -212.2344970703,       62.0574951172,      153.1677246094
1494036619.8153820038,       -0.0732421875,        1.6450195312,        0.5039062500,     -182.1746826172,       42.8314208984,      197.9064941406
1494036619.8179409504,       -0.0732421875,        3.4633789062,       -0.2421875000,     -182.1746826172,       42.8314208984,      197.9064941406
1494036619.8205010891,       -0.3842773438,        3.4633789062,       -0.2421875000,     -362.0452880859,       45.4864501953,      240.6158447266
1494036619.8230619431,       -0.3842773438,        3.4633789062,       -0.2421875000,     -362.0452880859,       45.4864501953,      240.6158447266
1494036619.8257670403,       -0.3842773438,        3.4633789062,       -0.2421875000,     -171.2646484375,       34.6069335938,      194.9005126953
1494036619.8283278942,       -1.8842773438,       -0.4921875000,       -0.3666992188,     -171.2646484375,       34.6069335938,      194.9005126953
1494036619.8308820724,       -1.8955078125,       -0.4921875000,       -0.3666992188,       67.0166015625,      -11.7340087891,      177.5512695312
1494036619.8336179256,       -1.8955078125,       -0.4921875000,       -0.3666992188,       66.4215087891,      -11.7340087891,      177.5512695312
1494036619.8363211155,       -1.8955078125,       -0.4921875000,       -0.3666992188,      -39.0472412109,        9.4909667969,      191.1315917969
1494036619.8390200138,       -2.0258789062,       -1.3408203125,       -0.1523437500,      -37.1398925781,        9.4909667969,      191.1315917969
1494036619.8418459892,       -2.0258789062,       -1.3408203125,       -0.1523437500,     -106.8420410156,       13.1835937500,      180.6335449219
1494036619.8446888924,       -2.0258789062,       -1.3408203125,       -0.1523437500,     -106.8420410156,       13.1835937500,      180.6335449219
1494036619.8472490311,       -2.0258789062,       -1.3408203125,       -0.1523437500,     -126.3732910156,       32.5927734375,      138.0920410156
1494036619.8498060703,       -1.0776367188,       -1.5419921875,       -0.4492187500,     -127.2583007812,       32.5927734375,      138.0920410156
1494036619.8523619175,       -1.0776367188,       -1.5419921875,       -0.4492187500,     -127.2583007812,       56.4117431641,      115.3411865234
1494036619.8550219536,       -1.0776367188,       -1.5419921875,       -0.4492187500,     -148.1323242188,       56.4117431641,      115.3411865234
1494036619.8577220440,       -1.0776367188,       -1.5419921875,        2.5229492188,     -148.1323242188,       29.0679931641,      117.6300048828
1494036619.8604149818,        0.3144531250,        0.2226562500,        2.5229492188,     -195.9838867188,       31.1126708984,      117.6300048828
1494036619.8631169796,        0.3144531250,        0.2226562500,        2.5229492188,     -195.9838867188,      -39.1998291016,      132.6904296875
1494036619.8658170700,        0.3144531250,        0.2226562500,        2.5229492188,     -279.8614501953,      -42.0837402344,      132.6904296875
1494036619.8685119152,        0.3144531250,        0.1508789062,        4.3369140625,     -279.8614501953,      -88.9587402344,      151.3824462891
1494036619.8712139130,       -1.8886718750,        0.1508789062,        4.3369140625,     -308.8531494141,      -89.2028808594,      151.3824462891
1494036619.8738980293,       -1.8886718750,        0.1508789062,        4.3369140625,     -308.8531494141,      -89.2028808594,      165.5578613281
1494036619.8764600754,       -1.8886718750,        0.1508789062,        4.3369140625,     -225.8758544922,      -47.3632812500,      165.5578613281
1494036619.8790190220,       -8.8461914062,       -0.1625976562,       -3.4873046875,     -225.8758544922,      -47.3632812500,      142.1203613281
1494036619.8815760612,       -8.8461914062,       -0.1625976562,       -3.4873046875,      -11.6729736328,      107.3608398438,      143.2189941406
1494036619.8841381073,       -8.8461914062,       -0.1625976562,       -3.4873046875,      -11.6729736328,      107.3608398438,      143.2189941406
1494036619.8866989613,       -8.8461914062,       -0.1625976562,       -3.4873046875,      156.7993164062,      133.4075927734,      215.1489257812
1494036619.8892540932,       -1.4179687500,       -0.2348632812,       -2.5766601562,      156.7993164062,      133.4075927734,      215.1489257812
1494036619.8918139935,       -1.4179687500,       -0.2348632812,       -2.5766601562,       97.6409912109,       93.0633544922,      287.5366210938
1494036619.8945450783,       -1.4179687500,       -0.2348632812,       -2.5766601562,       97.6409912109,       93.0633544922,      287.5366210938
1494036619.8971049786,       -1.4179687500,       -0.2348632812,       -2.5766601562,      -13.2293701172,       27.5268554688,      288.0706787109
1494036619.8996629715,        0.6699218750,        0.0405273438,       -0.1069335938,      -13.2293701172,       27.5268554688,      288.0706787109
1494036619.9022240639,        0.6699218750,        0.0405273438,       -0.1069335938,     -139.0075683594,       12.1612548828,      204.2236328125
1494036619.9050168991,        0.6699218750,        0.0405273438,       -0.1069335938,     -139.0075683594,       12.1612548828,      204.2236328125
1494036619.9078269005,        0.6699218750,        0.0405273438,       -0.1069335938,     -224.1668701172,       16.9219970703,      147.3083496094
1494036619.9105300903,        1.3500976562,        0.7612304688,        0.4594726562,     -224.1668701172,       16.9219970703,      147.3083496094
1494036619.9132349491,        1.3500976562,        0.7612304688,        0.4594726562,     -224.9603271484,       17.0745849609,      169.8760986328
1494036619.9159340858,        1.3500976562,        0.7612304688,        0.4594726562,     -224.9603271484,       17.0745849609,      169.8760986328
1494036619.9186298847,        1.3500976562,        1.1362304688,        0.2441406250,     -181.2133789062,       22.1405029297,      193.1762695312
1494036619.9213230610,        0.9091796875,        1.2465820312,        0.2441406250,     -181.2133789062,       22.1405029297,      193.1762695312
1494036619.9240629673,        0.9091796875,        1.2465820312,        0.2441406250,     -125.3204345703,        4.9896240234,      175.6134033203
1494036619.9267599583,        0.9091796875,        1.2465820312,        0.2441406250,     -125.3204345703,        4.9896240234,      175.6134033203
1494036619.9294478893,       -0.1479492188,        1.1352539062,        0.1713867188,      -46.5850830078,      -19.6075439453,      159.9884033203
1494036619.9321420193,       -0.1479492188,        1.1352539062,        0.1713867188,      -46.5850830078,      -19.6075439453,      159.9884033203
1494036619.9348809719,       -0.1479492188,        1.1352539062,        0.1713867188,       29.2205810547,      -32.8063964844,      155.9906005859
1494036619.9375760555,       -0.1479492188,        1.1352539062,        0.1713867188,       29.2205810547,      -32.8063964844,      155.9906005859
1494036619.9402689934,       -1.2700195312,        0.8710937500,        0.0283203125,       64.6362304688,      -43.6401367188,      146.2707519531
1494036619.9429700375,       -1.2700195312,        0.8710937500,        0.0283203125,       64.6362304688,      -43.6401367188,      146.2707519531
1494036619.9455490112,       -1.2700195312,        0.8710937500,        0.0283203125,       63.2324218750,      -53.9855957031,      134.0942382812
1494036619.9481070042,       -1.2700195312,        0.8710937500,        0.0283203125,       63.2324218750,      -53.9855957031,      134.0942382812
1494036619.9506649971,       -1.0502929688,        0.4648437500,       -0.4785156250,       59.3261718750,      -59.1125488281,      130.5541992188
1494036619.9532101154,       -1.0502929688,        0.4648437500,       -0.4785156250,       60.5163574219,      -59.1125488281,      130.5541992188
1494036619.9557640553,       -1.0502929688,        0.4648437500,       -0.4785156250,       60.5163574219,      -55.2062988281,      131.1492919922
1494036619.9583199024,       -1.0502929688,        0.4648437500,       -0.4785156250,       61.9354248047,      -56.5185546875,      131.1492919922
1494036619.9610619545,       -0.8276367188,        0.5751953125,        0.1254882812,       61.9354248047,      -56.5185546875,      128.7384033203
1494036619.9640839100,       -0.8276367188,        0.5751953125,        0.1254882812,       57.9071044922,      -50.0946044922,      128.7384033203
1494036619.9667870998,       -0.8276367188,        0.5751953125,        0.1254882812,       54.0008544922,      -48.0957031250,      126.6326904297
1494036619.9694859982,       -0.7026367188,        0.2207031250,        0.5468750000,       50.9338378906,      -48.0957031250,      126.6326904297
1494036619.9721860886,       -0.6289062500,        0.2207031250,        0.5468750000,       50.9338378906,      -45.3186035156,      125.8087158203
1494036619.9748969078,       -0.6289062500,        0.2207031250,        0.5468750000,       43.7927246094,      -45.3186035156,      125.8087158203
1494036619.9775979519,       -0.6289062500,        0.2207031250,        0.5468750000,       43.7927246094,      -41.3208007812,      124.4354248047
1494036619.9802949429,       -0.5810546875,        0.3559570312,        0.4238281250,       31.1889648438,      -41.3208007812,      124.4354248047
1494036619.9831099510,       -0.5810546875,        0.3559570312,        0.4238281250,       23.3764648438,      -38.3148193359,      124.8626708984
1494036619.9858150482,       -0.5810546875,        0.3559570312,        0.4238281250,       22.9492187500,      -38.3148193359,      124.8626708984
1494036619.9885160923,       -0.5810546875,        0.3559570312,        0.4238281250,       22.9492187500,      -33.9508056641,      126.3427734375
1494036619.9912159443,       -0.7001953125,        0.5131835938,        0.0625000000,       19.8822021484,      -33.9508056641,      126.3427734375
1494036619.9939010143,       -0.7001953125,        0.5131835938,        0.0625000000,       19.8822021484,      -30.0445556641,      124.7100830078
1494036619.9964599609,       -0.7001953125,        0.5131835938,        0.0625000000,       12.6495361328,      -29.1748046875,      124.7100830078
1494036619.9990179539,       -0.7001953125,        0.5131835938,        0.0625000000,       12.6495361328,      -29.1748046875,      122.1008300781
1494036620.0015759468,       -0.8081054688,        0.7172851562,        0.0844726562,        9.6435546875,      -28.5949707031,      122.1008300781
1494036620.0041429996,       -0.8081054688,        0.7172851562,        0.0844726562,        9.6435546875,      -28.5949707031,      118.1945800781
1494036620.0067009926,       -0.8081054688,        0.7172851562,        0.0844726562,       11.5966796875,      -30.0750732422,      120.7427978516
1494036620.0092549324,       -0.8081054688,        0.7172851562,        0.2553710938,       11.5966796875,      -30.0750732422,      120.7427978516
1494036620.0118150711,       -0.8935546875,        0.6459960938,        0.2553710938,       13.8244628906,      -32.0739746094,      119.8883056641
1494036620.0145499706,       -0.8935546875,        0.6459960938,        0.2553710938,       13.8244628906,      -32.0739746094,      119.8883056641
1494036620.0171120167,       -0.8935546875,        0.6459960938,        0.2553710938,       20.7824707031,      -37.1398925781,      123.8403320312
1494036620.0196719170,       -0.8935546875,        0.7094726562,        0.3447265625,       20.7824707031,      -37.1398925781,      123.8403320312
1494036620.0222299099,       -0.9721679688,        0.7094726562,        0.3447265625,       38.0859375000,      -48.5382080078,      131.5917968750
1494036620.0250248909,       -0.9721679688,        0.7094726562,        0.3447265625,       38.0859375000,      -48.5382080078,      131.5917968750
1494036620.0277190208,       -0.9721679688,        0.7094726562,        0.3447265625,       55.4504394531,      -60.9741210938,      136.2152099609
1494036620.0304160118,       -1.6005859375,        0.8833007812,        0.5356445312,       55.4504394531,      -60.9741210938,      136.2152099609
1494036620.0331110954,       -1.6005859375,        0.8833007812,        0.5356445312,       52.8411865234,      -66.4367675781,      137.8326416016
1494036620.0358099937,       -1.6005859375,        0.8833007812,        0.5356445312,       52.8411865234,      -66.4367675781,      137.8326416016
1494036620.0385069847,       -1.6005859375,        0.8833007812,        0.5356445312,       40.1611328125,      -67.2760009766,      146.2402343750
1494036620.0411961079,       -2.1069335938,        0.9638671875,       -0.0903320312,       40.1611328125,      -67.2760009766,      146.2402343750
1494036620.0439019203,       -2.1069335938,        0.9638671875,       -0.0903320312,       43.9910888672,      -76.2481689453,      157.0892333984
1494036620.0465939045,       -2.1069335938,        0.9638671875,       -0.0903320312,       43.9910888672,      -76.2481689453,      157.0892333984
1494036620.0492858887,       -2.1069335938,        0.9638671875,       -0.0903320312,       60.9283447266,      -88.2873535156,      167.3583984375
1494036620.0519878864,       -2.4433593750,        0.8256835938,       -0.0737304688,       60.9283447266,      -88.2873535156,      167.3583984375
1494036620.0547330379,       -2.4433593750,        0.8256835938,       -0.0737304688,       71.0906982422,      -96.6339111328,      180.4046630859
1494036620.0572938919,       -2.4433593750,        0.8256835938,       -0.0737304688,       71.0906982422,      -96.6339111328,      180.4046630859
1494036620.0598499775,       -2.4433593750,        0.4506835938,       -0.1723632812,       71.7010498047,     -100.9368896484,      198.0285644531
1494036620.0624129772,       -2.8046875000,        0.4516601562,       -0.1723632812,       71.7010498047,     -100.9368896484,      198.0285644531
1494036620.0651130676,       -2.8046875000,        0.4516601562,       -0.1723632812,       67.7795410156,     -103.7139892578,      213.6840820312
1494036620.0678110123,       -2.8046875000,        0.4516601562,       -0.1723632812,       67.7795410156,     -103.7139892578,      213.6840820312
1494036620.0705039501,       -2.5546875000,        0.1425781250,       -0.0673828125,       69.6258544922,     -106.0333251953,      223.6633300781
1494036620.0732030869,       -2.5693359375,        0.1425781250,       -0.0673828125,       69.6258544922,     -106.0333251953,      223.6633300781
1494036620.0759029388,       -2.5693359375,        0.1425781250,       -0.0673828125,       80.1391601562,     -107.3455810547,      224.2736816406
1494036620.0785980225,       -2.5693359375,        0.1425781250,       -0.0673828125,       80.1391601562,     -107.3455810547,      224.2736816406
1494036620.0813519955,       -2.2934570312,       -0.3803710938,        0.0141601562,       89.1265869141,     -108.6425781250,      214.6453857422
1494036620.0844810009,       -2.2934570312,       -0.3803710938,        0.0141601562,       89.1265869141,     -108.6425781250,      214.6453857422
1494036620.0871810913,       -2.2934570312,       -0.3803710938,        0.0141601562,       82.8094482422,     -112.1215820312,      191.3299560547
1494036620.0898780823,       -2.2934570312,       -0.3803710938,        0.1127929688,       82.8094482422,     -112.1215820312,      191.3299560547
1494036620.0925719738,       -1.8081054688,       -0.9082031250,        0.1127929688,       65.7806396484,     -113.8458251953,      162.3535156250
1494036620.0952808857,       -1.8081054688,       -0.9082031250,        0.1127929688,       65.7806396484,     -113.8458251953,      162.3535156250
1494036620.0979790688,       -1.8081054688,       -0.9082031250,        0.1127929688,       57.3120117188,     -108.8104248047,      145.0653076172
1494036620.1006770134,       -1.0581054688,       -0.7431640625,       -0.2949218750,       57.3120117188,     -108.8104248047,      145.0653076172
1494036620.1034200191,       -1.0942382812,       -0.7431640625,       -0.2949218750,       72.4792480469,     -106.3537597656,      143.8293457031
1494036620.1059770584,       -1.0942382812,       -0.7431640625,       -0.2949218750,       72.4792480469,     -106.3537597656,      143.8293457031
1494036620.1085350513,       -1.0942382812,       -0.7431640625,       -0.2949218750,       95.9167480469,     -109.1156005859,      139.5721435547
1494036620.1110920906,       -0.2968750000,       -0.2158203125,       -0.0322265625,       97.0001220703,     -109.1156005859,      139.5721435547
1494036620.1136920452,       -0.2968750000,       -0.2158203125,       -0.0322265625,       97.0001220703,     -106.3079833984,      126.3580322266
1494036620.1162500381,       -0.2968750000,       -0.2158203125,       -0.0322265625,      138.6260986328,     -106.3079833984,      126.3580322266
1494036620.1188080311,       -0.2968750000,       -0.2158203125,       -0.0322265625,      138.6260986328,     -106.3079833984,      108.4136962891
1494036620.1213719845,        0.4619140625,       -0.3437500000,        0.2631835938,      173.5992431641,     -111.3433837891,      108.4136962891
1494036620.1239299774,        0.4619140625,       -0.3437500000,        0.2631835938,      173.5992431641,     -111.3433837891,       84.9761962891
1494036620.1264929771,        0.4619140625,       -0.3437500000,        0.2631835938,      189.9566650391,     -123.4893798828,       84.5336914062
1494036620.1291749477,        0.4619140625,       -0.3437500000,        0.2631835938,      189.9566650391,     -123.4893798828,       84.5336914062
1494036620.1317360401,        0.5937500000,       -2.0258789062,       -0.1020507812,      191.4062500000,     -119.0795898438,       47.4395751953
1494036620.1344280243,        0.5937500000,       -2.0258789062,       -0.1020507812,      191.4062500000,     -119.0795898438,       47.4395751953
1494036620.1369841099,        0.5937500000,       -2.0258789062,       -0.1020507812,      173.2330322266,     -106.0943603516,        5.2490234375
1494036620.1395390034,        0.5937500000,       -2.0258789062,       -0.1020507812,      173.2330322266,     -106.0943603516,        5.2490234375
1494036620.1420919895,       -0.0708007812,       -2.0063476562,       -0.2446289062,      138.5498046875,     -101.5472412109,      -23.2543945312
1494036620.1448729038,       -0.0708007812,       -2.0063476562,       -0.2446289062,      138.5498046875,     -101.5472412109,      -23.2543945312
1494036620.1475689411,       -0.0708007812,       -2.0063476562,       -0.2446289062,       93.9788818359,      -95.8862304688,      -45.2728271484
1494036620.1502680779,       -0.0708007812,       -2.0063476562,       -0.3696289062,       93.9788818359,      -95.8862304688,      -45.2728271484
1494036620.1529688835,       -0.6000976562,       -1.8852539062,       -0.2910156250,       62.6373291016,      -86.7156982422,      -71.6094970703
1494036620.1555500031,       -0.6000976562,       -1.8852539062,       -0.2910156250,       62.6373291016,      -86.7156982422,      -71.6094970703
1494036620.1581139565,       -0.6000976562,       -1.8852539062,       -0.2910156250,       47.5463867188,      -80.8105468750,      -96.2219238281
1494036620.1606709957,       -0.6000976562,       -1.8852539062,       -0.1430664062,       47.5463867188,      -80.8105468750,      -96.2219238281
1494036620.1632189751,       -0.3183593750,       -1.2338867188,       -0.1430664062,       29.1442871094,      -80.7495117188,     -116.8060302734
1494036620.1659190655,       -0.3183593750,       -1.2338867188,       -0.1430664062,       29.1442871094,      -80.7495117188,     -116.8060302734
1494036620.1686170101,       -0.3183593750,       -1.2338867188,       -0.1430664062,        3.2043457031,      -80.4290771484,     -142.5933837891
1494036620.1713130474,        0.0566406250,       -1.0581054688,        0.0161132812,        3.2043457031,      -80.4290771484,     -142.5933837891
1494036620.1739730835,        0.0844726562,       -1.0581054688,        0.0161132812,      -20.9655761719,      -76.2176513672,     -174.1790771484
1494036620.1765339375,        0.0844726562,       -1.0581054688,        0.0161132812,      -20.9655761719,      -76.2176513672,     -174.1790771484
1494036620.1790909767,        0.0844726562,       -1.0581054688,        0.0161132812,      -20.9655761719,      -66.7724609375,     -206.9854736328
1494036620.1816489697,        0.1118164062,       -1.0263671875,        0.0708007812,      -38.2385253906,      -66.7724609375,     -206.9854736328
1494036620.1843240261,        0.1118164062,       -1.0263671875,        0.0708007812,      -38.2385253906,      -55.0537109375,     -235.2905273438
1494036620.1870229244,        0.1118164062,       -1.0263671875,        0.0708007812,      -50.7812500000,      -55.5572509766,     -235.2905273438
1494036620.1897211075,        0.1118164062,       -1.0263671875,        0.0708007812,      -50.7812500000,      -47.7447509766,     -257.5378417969
1494036620.1924118996,       -0.0229492188,       -0.8325195312,        0.2143554688,      -58.6090087891,      -47.9278564453,     -257.5378417969
1494036620.1950259209,       -0.0229492188,       -0.8325195312,        0.2143554688,      -58.6090087891,      -47.9278564453,     -276.5045166016
1494036620.1975810528,       -0.0229492188,       -0.8325195312,        0.2143554688,      -60.1501464844,      -42.4652099609,     -276.5045166016
1494036620.2003850937,       -0.0229492188,       -0.8325195312,        0.2143554688,      -60.1501464844,      -42.4652099609,     -291.6717529297
1494036620.2030560970,       -0.1567382812,       -0.3530273438,        0.2597656250,      -54.1839599609,      -38.3758544922,     -291.6717529297
1494036620.2059628963,       -0.1567382812,       -0.3530273438,        0.2597656250,      -54.1839599609,      -38.3758544922,     -301.7883300781
1494036620.2086570263,       -0.1567382812,       -0.3530273438,        0.2597656250,      -38.4826660156,      -37.2314453125,     -301.7883300781
1494036620.2113521099,       -0.1567382812,        0.0219726562,        0.1079101562,      -38.4826660156,      -37.2314453125,     -308.7463378906
1494036620.2140960693,       -0.1914062500,        0.0786132812,        0.1079101562,      -18.9514160156,      -36.6210937500,     -308.7463378906
1494036620.2167990208,       -0.1914062500,        0.0786132812,        0.1079101562,      -18.9514160156,      -36.6210937500,     -312.8662109375
1494036620.2195000648,       -0.1914062500,        0.0786132812,        0.1079101562,        1.6937255859,      -36.7431640625,     -312.8662109375
1494036620.2221930027,       -0.2182617188,        0.4174804688,       -0.1689453125,        1.6937255859,      -36.7431640625,     -315.3533935547
1494036620.2248980999,       -0.2182617188,        0.4174804688,       -0.1689453125,       28.5797119141,      -38.8641357422,     -315.3533935547
1494036620.2275979519,       -0.2182617188,        0.4174804688,       -0.1689453125,       28.5797119141,      -38.8641357422,     -318.0541992188
1494036620.2302908897,       -0.2182617188,        0.4174804688,       -0.1689453125,       60.3485107422,      -43.7927246094,     -318.0541992188
1494036620.2329900265,       -0.3256835938,        0.5424804688,       -0.3051757812,       60.3485107422,      -43.7927246094,     -320.7855224609
1494036620.2355659008,       -0.3256835938,        0.5424804688,       -0.3051757812,       94.5434570312,      -48.6297607422,     -320.7855224609
1494036620.2381200790,       -0.3256835938,        0.5424804688,       -0.3051757812,       94.5434570312,      -48.6297607422,     -320.7855224609
1494036620.2406799793,       -0.3256835938,        0.5424804688,       -0.3051757812,      121.6125488281,      -51.5136718750,     -323.5626220703
1494036620.2432310581,       -0.5292968750,        0.2695312500,       -0.5219726562,      121.6125488281,      -51.5136718750,     -323.5626220703
1494036620.2457880974,       -0.5292968750,        0.2695312500,       -0.5219726562,      132.3699951172,      -51.4526367188,     -325.8972167969
1494036620.2483439445,       -0.5292968750,        0.2695312500,       -0.5219726562,      132.3699951172,      -51.4526367188,     -325.8972167969
1494036620.2509000301,       -0.5292968750,        0.2695312500,       -0.5219726562,      121.5362548828,      -48.5687255859,     -325.9277343750
1494036620.2536110878,       -0.7124023438,        0.1503906250,       -0.7426757812,      121.5362548828,      -48.5687255859,     -325.9277343750
1494036620.2561700344,       -0.7124023438,        0.1503906250,       -0.7426757812,       91.2628173828,      -43.4722900391,     -322.7844238281
1494036620.2587308884,       -0.7124023438,        0.1503906250,       -0.7426757812,       91.2628173828,      -43.4722900391,     -322.7844238281
1494036620.2612900734,       -0.7124023438,        0.1503906250,       -0.7426757812,       47.8668212891,      -36.0870361328,     -319.2901611328
1494036620.2640080452,       -0.7675781250,        0.4770507812,       -0.7392578125,       47.8668212891,      -36.0870361328,     -319.2901611328
1494036620.2666931152,       -0.7675781250,        0.4770507812,       -0.7392578125,       -0.6408691406,      -27.1759033203,     -315.9179687500
1494036620.2693760395,       -0.7675781250,        0.4770507812,       -0.7392578125,       -0.6408691406,      -27.1759033203,     -315.9179687500
1494036620.2720549107,       -0.7675781250,        0.8237304688,       -0.6005859375,      -48.9654541016,      -18.1274414062,     -313.2781982422
1494036620.2748599052,       -0.7836914062,        0.8237304688,       -0.6005859375,      -48.9654541016,      -18.1274414062,     -313.2781982422
1494036620.2775449753,       -0.7836914062,        0.8237304688,       -0.6005859375,      -92.5292968750,       -7.2479248047,     -312.8204345703
1494036620.2802278996,       -0.7836914062,        0.8237304688,       -0.6005859375,      -92.5292968750,       -7.2479248047,     -312.8204345703
1494036620.2829139233,       -0.9257812500,        1.0112304688,       -0.3735351562,     -127.6550292969,        4.5928955078,     -311.1572265625
1494036620.2856070995,       -0.9257812500,        1.0112304688,       -0.3735351562,     -127.6550292969,        4.5928955078,     -311.1572265625
1494036620.2882928848,       -0.9257812500,        1.0112304688,       -0.3735351562,     -151.1993408203,       16.2200927734,     -308.5021972656
1494036620.2909779549,       -0.9257812500,        1.0112304688,       -0.3735351562,     -151.1993408203,       16.2200927734,     -308.5021972656
1494036620.2936758995,       -1.1791992188,        1.2104492188,       -0.1538085938,     -167.2058105469,       26.5960693359,     -303.8330078125
1494036620.2963659763,       -1.1791992188,        1.2104492188,       -0.1538085938,     -167.2058105469,       26.5960693359,     -303.8330078125
1494036620.2990520000,       -1.1791992188,        1.2104492188,       -0.1538085938,     -181.3964843750,       37.3687744141,     -296.8139648438
1494036620.3017311096,       -1.1791992188,        1.2104492188,        0.0078125000,     -181.3964843750,       37.3687744141,     -296.8139648438
1494036620.3044679165,       -1.3906250000,        1.4819335938,        0.0078125000,     -193.5729980469,       48.8739013672,     -289.8101806641
1494036620.3071649075,       -1.3906250000,        1.4819335938,        0.0078125000,     -193.5729980469,       48.8739013672,     -289.8101806641
1494036620.3098618984,       -1.3906250000,        1.4819335938,        0.0078125000,     -201.3854980469,       55.9844970703,     -286.1328125000
1494036620.3125638962,       -1.3906250000,        1.6752929688,        0.2397460938,     -199.7680664062,       55.9844970703,     -286.1328125000
1494036620.3152730465,       -1.4501953125,        1.6752929688,        0.2397460938,     -195.8618164062,       60.5163574219,     -281.3873291016
1494036620.3179700375,       -1.4501953125,        1.6752929688,        0.2397460938,     -198.9593505859,       60.5163574219,     -281.3873291016
1494036620.3207449913,       -1.4501953125,        1.6752929688,        0.2397460938,     -191.1468505859,       66.2841796875,     -272.3083496094
1494036620.3238670826,       -1.4321289062,        2.0043945312,        0.4199218750,     -190.6890869141,       66.2841796875,     -272.3083496094
1494036620.3265690804,       -1.4321289062,        2.0043945312,        0.4199218750,     -177.5054931641,       70.0225830078,     -259.0637207031
1494036620.3292679787,       -1.4321289062,        2.0043945312,        0.4199218750,     -177.5054931641,       70.0225830078,     -259.0637207031
1494036620.3319621086,       -1.4321289062,        2.0043945312,        0.4199218750,     -155.4107666016,       68.9849853516,     -242.6147460938
1494036620.3346641064,       -1.3300781250,        2.3251953125,        0.4394531250,     -155.4107666016,       68.9849853516,     -242.6147460938
1494036620.3373610973,       -1.3300781250,        2.3251953125,        0.4394531250,     -121.9787597656,       65.2618408203,     -223.9990234375
1494036620.3400590420,       -1.3300781250,        2.3251953125,        0.4394531250,     -121.9787597656,       65.2618408203,     -223.9990234375
1494036620.3427579403,       -1.3300781250,        2.4072265625,        0.3232421875,      -79.5440673828,       61.9506835938,     -204.6203613281
1494036620.3453779221,       -1.2622070312,        2.4072265625,        0.3232421875,      -79.5440673828,       61.9506835938,     -204.6203613281
1494036620.3479380608,       -1.2622070312,        2.4072265625,        0.3232421875,      -32.6690673828,       58.0291748047,     -183.7463378906
1494036620.3506050110,       -1.2622070312,        2.4072265625,        0.3232421875,      -34.5764160156,       58.0291748047,     -183.7463378906
1494036620.3532030582,       -1.1640625000,        2.2182617188,        0.3598632812,      -34.5764160156,       52.2766113281,     -161.2854003906
1494036620.3557579517,       -1.1640625000,        2.2182617188,        0.3598632812,        5.7678222656,       52.2766113281,     -161.2854003906
1494036620.3583130836,       -1.1640625000,        2.2182617188,        0.3598632812,        5.7678222656,       52.2766113281,     -135.8795166016
1494036620.3608670235,       -1.1640625000,        2.2182617188,        0.3598632812,       37.6739501953,       42.7551269531,     -135.8795166016
1494036620.3634700775,       -0.9819335938,        2.0205078125,        0.4560546875,       37.6739501953,       42.7551269531,     -112.4420166016
1494036620.3660221100,       -0.9819335938,        2.0205078125,        0.4560546875,       59.5397949219,       31.4788818359,     -110.3515625000
1494036620.3685820103,       -0.9819335938,        2.0205078125,        0.4560546875,       59.5397949219,       31.4788818359,     -110.3515625000
1494036620.3711340427,       -0.9819335938,        2.0205078125,        0.4560546875,       74.4171142578,       21.6979980469,      -86.9903564453
1494036620.3738009930,       -0.7495117188,        1.6025390625,        0.2856445312,       74.4171142578,       21.6979980469,      -86.9903564453
1494036620.3763589859,       -0.7495117188,        1.6025390625,        0.2856445312,       84.9456787109,       13.7023925781,      -64.8193359375
1494036620.3789141178,       -0.7495117188,        1.6025390625,        0.2856445312,       84.9456787109,       13.7023925781,      -64.8193359375
1494036620.3814671040,       -0.7495117188,        1.6025390625,        0.2856445312,       87.3260498047,        8.0413818359,      -43.1518554688
1494036620.3841609955,       -0.6069335938,        1.0737304688,       -0.0263671875,       87.3260498047,        8.0413818359,      -43.1518554688
1494036620.3867170811,       -0.6069335938,        1.0737304688,       -0.0263671875,       74.0661621094,        4.0130615234,      -22.4914550781
1494036620.3892729282,       -0.6069335938,        1.0737304688,       -0.0263671875,       74.0661621094,        4.0130615234,      -22.4914550781
1494036620.3918220997,       -0.6069335938,        1.0737304688,       -0.0263671875,       47.0275878906,        3.7994384766,       -2.7923583984
1494036620.3944849968,       -0.4838867188,        0.8256835938,       -0.2929687500,       47.0275878906,        3.7994384766,       -2.7923583984
1494036620.3971800804,       -0.4838867188,        0.8256835938,       -0.2929687500,       13.9465332031,        6.3934326172,       15.6707763672
1494036620.3998730183,       -0.4838867188,        0.8256835938,       -0.2929687500,       13.9465332031,        6.3934326172,       15.6707763672
1494036620.4025650024,       -0.4838867188,        0.8256835938,       -0.2929687500,      -20.2178955078,       10.0860595703,       33.3251953125
1494036620.4052700996,       -0.3344726562,        0.7153320312,       -0.3750000000,      -20.2178955078,       10.0860595703,       33.3251953125
1494036620.4079670906,       -0.3344726562,        0.7153320312,       -0.3750000000,      -52.6733398438,       15.9606933594,       51.3000488281
1494036620.4106650352,       -0.3344726562,        0.7153320312,       -0.3750000000,      -52.6733398438,       15.9606933594,       51.3000488281
1494036620.4134159088,       -0.3344726562,        0.5478515625,       -0.4228515625,      -83.2214355469,       22.1252441406,       67.5811767578
1494036620.4161090851,       -0.2514648438,        0.5478515625,       -0.4228515625,      -83.2214355469,       22.1252441406,       67.5811767578
1494036620.4188010693,       -0.2514648438,        0.5478515625,       -0.4228515625,     -111.6333007812,       27.4505615234,       80.6274414062
1494036620.4214971066,       -0.2514648438,        0.5478515625,       -0.4228515625,     -111.6333007812,       27.4505615234,       80.6274414062
1494036620.4243049622,       -0.2709960938,        0.3823242188,       -0.4682617188,     -138.4124755859,       31.6314697266,       93.0786132812
1494036620.4270050526,       -0.2709960938,        0.3823242188,       -0.4682617188,     -138.4124755859,       31.6314697266,       93.0786132812
1494036620.4296970367,       -0.2709960938,        0.3823242188,       -0.4682617188,     -152.5115966797,       37.4908447266,      109.4360351562
1494036620.4323899746,       -0.2709960938,        0.3823242188,       -0.4682617188,     -152.5115966797,       37.4908447266,      109.4360351562
1494036620.4350049496,       -0.3476562500,        2.9433593750,        0.3984375000,     -109.5428466797,       39.7796630859,      153.6712646484
1494036620.4375619888,       -0.3476562500,        2.9433593750,        0.3984375000,     -110.8551025391,       39.7796630859,      153.6712646484
1494036620.4402000904,       -0.3476562500,        2.9433593750,        0.3984375000,     -110.8551025391,       39.7796630859,      206.6040039062
1494036620.4427630901,       -0.3476562500,        2.9433593750,       -0.6577148438,     -280.4565429688,       42.0379638672,      206.6040039062
1494036620.4459049702,       -0.6835937500,        1.0336914062,       -0.6577148438,     -260.9252929688,       49.7741699219,      172.5921630859
1494036620.4486000538,       -0.6835937500,        1.0336914062,       -0.6577148438,     -258.5296630859,       49.7741699219,      172.5921630859
1494036620.4512979984,       -0.6835937500,        1.0336914062,       -0.6577148438,       34.4390869141,       -9.6282958984,      167.5109863281
1494036620.4539949894,       -1.5585937500,        0.6279296875,       -0.0532226562,       31.5704345703,       -9.6282958984,      167.5109863281
1494036620.4566900730,       -1.6113281250,        0.6279296875,       -0.0532226562,      -38.7420654297,       -8.3160400391,      219.3908691406
1494036620.4593920708,       -1.6113281250,        0.6279296875,       -0.0532226562,      -37.9333496094,       -8.3160400391,      219.3908691406
1494036620.4620869160,       -1.6113281250,        0.6279296875,       -0.0532226562,      -37.9333496094,       -5.6915283203,      240.7379150391
1494036620.4647860527,       -2.3520507812,       -0.8461914062,        0.2348632812,      -84.5031738281,       -5.6915283203,      240.7379150391
1494036620.4674799442,       -2.3520507812,       -0.8461914062,        0.2348632812,      -84.5031738281,       -8.2550048828,      207.8552246094
1494036620.4701728821,       -2.3520507812,       -0.8461914062,        0.2348632812,      -81.4514160156,       -8.2550048828,      207.8552246094
1494036620.4728720188,       -2.3520507812,       -0.8461914062,        0.2348632812,      -81.4514160156,       19.0887451172,      177.7954101562
1494036620.4754679203,       -1.5083007812,       -0.5419921875,       -0.1010742188,      -82.3516845703,       17.5933837891,      177.7954101562
1494036620.4780280590,       -1.5083007812,       -0.5419921875,       -0.1010742188,      -82.3516845703,       17.5933837891,      160.0341796875
1494036620.4805901051,       -1.5083007812,       -0.5419921875,       -0.1010742188,      -78.4454345703,        9.0179443359,      160.0341796875
1494036620.4831910133,       -1.5083007812,       -0.5419921875,       -0.1010742188,      -78.4454345703,        9.0179443359,      148.3154296875
1494036620.4857521057,       -0.2221679688,       -0.1474609375,        2.3750000000,     -101.4556884766,      -40.2374267578,      145.9197998047
1494036620.4883120060,       -0.2221679688,       -0.1474609375,        2.3750000000,     -101.4556884766,      -40.2374267578,      145.9197998047
1494036620.4908730984,       -0.2221679688,       -0.1474609375,        2.3750000000,     -117.3095703125,      -86.8530273438,      145.5078125000
1494036620.4935960770,       -0.2221679688,       -0.1474609375,        1.6245117188,     -117.3095703125,      -86.8530273438,      145.5078125000
1494036620.4962570667,       -2.3100585938,        0.1557617188,        1.6245117188,      -87.8906250000,      -86.6088867188,      170.3338623047
1494036620.4988169670,       -2.3100585938,        0.1557617188,        1.6245117188,      -87.8906250000,      -86.6088867188,      170.3338623047
1494036620.5013709068,       -2.3100585938,        0.1557617188,        1.6245117188,      -19.0124511719,      -33.9813232422,      201.6906738281
1494036620.5040740967,       -2.3100585938,       -0.3808593750,       -2.5410156250,      -19.0124511719,      -33.9813232422,      201.6906738281
1494036620.5067720413,       -6.1152343750,       -0.3808593750,       -2.5410156250,      123.8250732422,       19.9890136719,      206.8481445312
1494036620.5094699860,       -6.1152343750,       -0.3808593750,       -2.5410156250,      123.8250732422,       19.9890136719,      206.8481445312
1494036620.5121641159,       -6.1152343750,       -0.3808593750,       -2.5410156250,      183.7158203125,       14.7552490234,      231.9641113281
1494036620.5148730278,       -1.6430664062,       -0.3037109375,       -1.7753906250,      183.7158203125,       14.7552490234,      231.9641113281
1494036620.5175800323,       -1.6430664062,       -0.3037109375,       -1.7753906250,      102.2186279297,       -1.3275146484,      247.1771240234
1494036620.5202751160,       -1.6430664062,       -0.3037109375,       -1.7753906250,      102.2186279297,       -1.3275146484,      247.1771240234
1494036620.5229671001,       -1.6430664062,       -0.3037109375,       -1.7753906250,      -28.0609130859,      -10.7727050781,      232.4218750000
1494036620.5256690979,        0.0947265625,       -0.5898437500,       -0.1503906250,      -28.0609130859,      -10.7727050781,      232.4218750000
1494036620.5283670425,        0.0947265625,       -0.5898437500,       -0.1503906250,     -135.0097656250,       -4.7760009766,      221.5270996094
1494036620.5310630798,        0.0947265625,       -0.5898437500,       -0.1503906250,     -135.0097656250,       -4.7760009766,      221.5270996094
1494036620.5337519646,        0.0947265625,       -0.5898437500,        0.4746093750,     -162.1246337891,        2.4871826172,      227.2338867188
1494036620.5363070965,        0.5844726562,       -0.0883789062,        0.4941406250,     -162.1246337891,        2.4871826172,      227.2338867188
1494036620.5388619900,        0.5844726562,       -0.0883789062,        0.4941406250,     -179.2755126953,        5.4016113281,      225.2197265625
1494036620.5414099693,        0.5844726562,       -0.0883789062,        0.4941406250,     -179.2755126953,        5.4016113281,      225.2197265625
1494036620.5440149307,        0.5844726562,       -0.0883789062,        0.9018554688,     -183.9447021484,        3.6010742188,      213.1042480469
1494036620.5467140675,        0.7836914062,        1.4033203125,        0.9018554688,     -183.9447021484,        3.6010742188,      213.1042480469
1494036620.5494060516,        0.7836914062,        1.4033203125,        0.9018554688,     -125.3509521484,       -1.7242431641,      191.0552978516
1494036620.5521020889,        0.7836914062,        1.4033203125,        0.9018554688,     -127.4719238281,       -1.7242431641,      191.0552978516
1494036620.5548141003,       -0.0913085938,        1.5317382812,        0.7109375000,      -45.4406738281,      -14.5111083984,      171.0510253906
1494036620.5575120449,       -0.0380859375,        1.5317382812,        0.7109375000,      -44.3878173828,      -14.5111083984,      171.0510253906
1494036620.5603630543,       -0.0380859375,        1.5317382812,        0.7109375000,       32.1807861328,      -30.7159423828,      157.8216552734
1494036620.5634748936,       -0.0380859375,        1.5317382812,        0.7109375000,       32.1807861328,      -30.7159423828,      157.8216552734
1494036620.5661780834,       -0.8842773438,        1.0683593750,        0.3154296875,       79.5593261719,      -35.8581542969,      149.0631103516
1494036620.5688810349,       -0.8842773438,        1.0683593750,        0.3154296875,       79.5593261719,      -35.8581542969,      149.0631103516
1494036620.5716950893,       -0.8842773438,        1.0683593750,        0.3154296875,       85.6323242188,      -27.5115966797,      144.2871093750
1494036620.5744030476,       -0.8842773438,        1.0683593750,        0.1923828125,       85.6323242188,      -27.5115966797,      144.2871093750
1494036620.5770990849,       -0.8754882812,        0.3808593750,        0.1923828125,       69.4427490234,      -17.7307128906,      140.5181884766
1494036620.5797998905,       -0.8754882812,        0.3808593750,        0.1923828125,       69.4427490234,      -17.7307128906,      140.5181884766
1494036620.5824999809,       -0.8754882812,        0.3808593750,        0.1923828125,       48.4313964844,       -9.8419189453,      138.8549804688
1494036620.5850980282,       -0.6254882812,        0.1806640625,        0.0107421875,       48.4313964844,       -9.8419189453,      138.8549804688
1494036620.5876619816,       -0.6958007812,        0.1806640625,        0.0107421875,       31.9671630859,        0.0152587891,      138.9465332031
1494036620.5902159214,       -0.6958007812,        0.1806640625,        0.0107421875,       31.9671630859,        0.0152587891,      138.9465332031
1494036620.5927710533,       -0.6958007812,        0.1806640625,        0.0107421875,       31.9671630859,        9.8114013672,      140.4418945312
1494036620.5953760147,       -0.6401367188,        0.3613281250,       -0.0449218750,       16.0827636719,        9.8114013672,      140.4418945312
1494036620.5979340076,       -0.6401367188,        0.3613281250,       -0.0449218750,       16.0827636719,        9.8114013672,      141.5252685547
1494036620.6004951000,       -0.6401367188,        0.3613281250,       -0.0449218750,        2.8381347656,       17.3645019531,      141.5252685547
1494036620.6030509472,       -0.6401367188,        0.3613281250,       -0.0449218750,        2.8381347656,       17.3645019531,      137.6190185547
1494036620.6056170464,       -0.5424804688,        0.5058593750,        0.0004882812,      -11.4746093750,       24.3682861328,      140.3045654297
1494036620.6081779003,       -0.5424804688,        0.5058593750,        0.0004882812,      -11.4746093750,       24.3682861328,      140.3045654297
1494036620.6107389927,       -0.5424804688,        0.5058593750,        0.0004882812,      -21.5148925781,       29.6783447266,      137.6190185547
1494036620.6134951115,       -0.5424804688,        0.5058593750,        0.0004882812,      -21.5148925781,       29.6783447266,      137.6190185547
1494036620.6160728931,       -0.6430664062,        0.7114257812,        0.1381835938,      -20.0195312500,       30.2886962891,      135.6048583984
1494036620.6186330318,       -0.6430664062,        0.7114257812,        0.1381835938,      -20.0195312500,       30.2886962891,      135.6048583984
1494036620.6211910248,       -0.6430664062,        0.7114257812,        0.1381835938,      -12.7410888672,       26.5960693359,      133.8806152344
1494036620.6239209175,       -0.6430664062,        0.7114257812,        0.1381835938,      -12.7410888672,       26.5960693359,      133.8806152344
1494036620.6266140938,       -0.8046875000,        0.7685546875,        0.2509765625,       -1.2512207031,       20.9350585938,      132.3089599609
1494036620.6292970181,       -0.8046875000,        0.7685546875,        0.2509765625,       -1.2512207031,       20.9350585938,      132.3089599609
1494036620.6319799423,       -0.8046875000,        0.7685546875,        0.2509765625,       13.5803222656,       13.7329101562,      130.6457519531
1494036620.6346120834,       -0.8046875000,        0.7685546875,        0.2509765625,       13.5803222656,       13.7329101562,      130.6457519531
1494036620.6371710300,       -1.1870117188,        0.8754882812,        0.3276367188,       27.3895263672,        5.6610107422,      131.3171386719
1494036620.6397240162,       -1.1870117188,        0.8754882812,        0.3276367188,       27.3895263672,        5.6610107422,      131.3171386719
1494036620.6422829628,       -1.1870117188,        0.8754882812,        0.3276367188,       35.2020263672,       -0.7934570312,      132.5225830078
1494036620.6451439857,       -1.1870117188,        0.7504882812,        0.0297851562,       35.2020263672,       -0.7934570312,      132.5225830078
1494036620.6478428841,       -1.7753906250,        0.8706054688,        0.0297851562,       40.6341552734,       -7.1411132812,      135.7269287109
1494036620.6505401134,       -1.7753906250,        0.8706054688,        0.0297851562,       40.6341552734,       -7.1411132812,      135.7269287109
1494036620.6532480717,       -1.7753906250,        0.8706054688,        0.0297851562,       44.0826416016,      -14.9993896484,      142.1356201172
1494036620.6558110714,       -2.1503906250,        0.7138671875,       -0.1123046875,       44.0826416016,      -14.9993896484,      142.1356201172
1494036620.6583690643,       -2.2172851562,        0.7138671875,       -0.1123046875,       47.9431152344,      -22.6898193359,      151.2756347656
1494036620.6609320641,       -2.2172851562,        0.7138671875,       -0.1123046875,       47.9431152344,      -22.6898193359,      151.2756347656
1494036620.6635389328,       -2.2172851562,        0.7138671875,       -0.1123046875,       47.9431152344,      -28.9916992188,      164.7186279297
1494036620.6662280560,       -2.6738281250,        0.6831054688,       -0.1044921875,       49.0875244141,      -28.9916992188,      164.7186279297
1494036620.6689159870,       -2.6738281250,        0.6831054688,       -0.1044921875,       49.0875244141,      -36.0412597656,      182.1899414062
1494036620.6715979576,       -2.6738281250,        0.6831054688,       -0.1044921875,       48.2025146484,      -36.0412597656,      182.1899414062
1494036620.6744349003,       -2.6738281250,        0.6831054688,       -0.1044921875,       48.2025146484,      -43.3807373047,      201.2023925781
1494036620.6770999432,       -2.9873046875,        0.4223632812,       -0.0874023438,       48.9654541016,      -43.3807373047,      201.2023925781
1494036620.6799259186,       -2.9873046875,        0.4223632812,       -0.0874023438,       56.7779541016,      -48.8891601562,      215.6829833984
1494036620.6826190948,       -2.9873046875,        0.4223632812,       -0.0874023438,       54.8400878906,      -48.8891601562,      215.6829833984
1494036620.6857299805,       -2.9873046875,       -0.2226562500,       -0.0581054688,       63.0187988281,      -49.9267578125,      218.8720703125
1494036620.6884350777,       -2.9433593750,       -0.2226562500,       -0.0581054688,       63.0187988281,      -49.9267578125,      218.8720703125
1494036620.6911399364,       -2.9433593750,       -0.2226562500,       -0.0581054688,       70.5413818359,      -54.0618896484,      210.0982666016
1494036620.6938929558,       -2.9433593750,       -0.2226562500,       -0.0581054688,       70.5413818359,      -54.0618896484,      210.0982666016
1494036620.6965909004,       -2.4667968750,       -0.9687500000,       -0.0556640625,       61.7828369141,      -67.8100585938,      187.3016357422
1494036620.6992900372,       -2.4667968750,       -0.9687500000,       -0.0556640625,       61.7828369141,      -67.8100585938,      187.3016357422
1494036620.7019920349,       -2.4667968750,       -0.9687500000,       -0.0556640625,       31.3568115234,      -77.8198242188,      150.2685546875
1494036620.7047019005,       -2.4667968750,       -0.9687500000,       -0.0556640625,       31.3568115234,      -77.8198242188,      150.2685546875
1494036620.7074050903,       -1.4531250000,       -1.0478515625,       -0.6865234375,       35.6750488281,      -59.4635009766,      148.1475830078
1494036620.7101008892,       -1.4531250000,       -1.0478515625,       -0.6865234375,       35.6750488281,      -59.4635009766,      148.1475830078
1494036620.7127990723,       -1.4531250000,       -1.0478515625,       -0.6865234375,       45.9289550781,      -54.9011230469,      178.8177490234
1494036620.7153890133,       -1.4531250000,       -1.0478515625,       -0.3115234375,       45.9289550781,      -54.9011230469,      178.8177490234
1494036620.7180509567,       -0.2485351562,       -0.5327148438,       -0.3012695312,       57.6477050781,      -53.6651611328,      177.5360107422
1494036620.7206149101,       -0.2485351562,       -0.5327148438,       -0.3012695312,       56.8237304688,      -53.6651611328,      177.5360107422
1494036620.7232110500,       -0.2485351562,       -0.5327148438,       -0.3012695312,       56.8237304688,      -65.3839111328,      144.1192626953
1494036620.7257750034,       -0.2485351562,       -0.5327148438,        0.1962890625,       63.6291503906,      -63.1561279297,      144.1192626953
1494036620.7283329964,        0.5434570312,       -1.0253906250,        0.1962890625,       63.6291503906,      -63.1561279297,       97.5952148438
1494036620.7308919430,        0.5434570312,       -1.0253906250,        0.1962890625,       61.9049072266,      -81.1462402344,       97.5952148438
1494036620.7335960865,        0.5434570312,       -1.0253906250,        0.1962890625,       61.9049072266,      -81.1462402344,       46.8139648438
1494036620.7361519337,        0.5434570312,       -2.5161132812,        0.0747070312,       74.6002197266,      -79.6661376953,       44.5556640625
1494036620.7387130260,        0.4770507812,       -2.5161132812,        0.0747070312,       74.6002197266,      -79.6661376953,       44.5556640625
1494036620.7412769794,        0.4770507812,       -2.5161132812,        0.0747070312,       68.7103271484,      -78.9489746094,        9.4757080078
1494036620.7440381050,        0.4770507812,       -2.5161132812,        0.0747070312,       68.7103271484,      -78.9489746094,        9.4757080078
1494036620.7467250824,       -0.4765625000,       -2.1381835938,       -0.2597656250,       35.2172851562,      -67.6574707031,      -19.1192626953
1494036620.7494161129,       -0.4765625000,       -2.1381835938,       -0.2597656250,       35.2172851562,      -67.6574707031,      -19.1192626953
1494036620.7521018982,       -0.4765625000,       -2.1381835938,       -0.2597656250,       22.0031738281,      -53.6346435547,      -53.8177490234
1494036620.7547900677,       -0.4765625000,       -2.1381835938,       -0.2597656250,       22.0031738281,      -53.6346435547,      -53.8177490234
1494036620.7574779987,       -0.5605468750,       -1.0273437500,       -0.1933593750,       37.1704101562,      -48.1872558594,      -81.8786621094
1494036620.7601599693,       -0.5605468750,       -1.0273437500,       -0.1933593750,       37.1704101562,      -48.1872558594,      -81.8786621094
1494036620.7628760338,       -0.5605468750,       -1.0273437500,       -0.1933593750,       44.6777343750,      -51.6815185547,     -103.7597656250
1494036620.7658879757,       -0.5605468750,       -1.0273437500,        0.0244140625,       44.6777343750,      -51.6815185547,     -103.7597656250
1494036620.7685871124,       -0.1801757812,       -0.9067382812,        0.0244140625,       35.9039306641,      -57.6782226562,     -130.9661865234
1494036620.7712910175,       -0.1801757812,       -0.9067382812,        0.0244140625,       35.9039306641,      -57.6782226562,     -130.9661865234
1494036620.7739920616,       -0.1801757812,       -0.9067382812,        0.0244140625,       27.2064208984,      -56.2896728516,     -164.2150878906
1494036620.7766919136,       -0.1801757812,       -1.2695312500,        0.0312500000,       27.2064208984,      -56.2896728516,     -164.2150878906
1494036620.7793900967,       -0.1479492188,       -1.2695312500,        0.0312500000,       21.4233398438,      -49.3621826172,     -194.4274902344
1494036620.7820940018,       -0.1479492188,       -1.2695312500,        0.0312500000,       21.4233398438,      -49.3621826172,     -194.4274902344
1494036620.7847130299,       -0.1479492188,       -1.2695312500,        0.0312500000,       17.3492431641,      -42.9229736328,     -215.7287597656
1494036620.7872710228,       -0.0751953125,       -0.8945312500,        0.0273437500,       17.3492431641,      -42.9229736328,     -215.7287597656
1494036620.7898290157,       -0.0751953125,       -0.8945312500,        0.0273437500,       17.5781250000,      -38.8946533203,     -233.2305908203
1494036620.7925040722,       -0.0751953125,       -0.8945312500,        0.0273437500,       17.5781250000,      -38.8946533203,     -233.2305908203
1494036620.7951788902,       -0.0751953125,       -0.8945312500,        0.0273437500,       20.8892822266,      -36.1175537109,     -252.1057128906
1494036620.7978799343,       -0.0048828125,       -0.4448242188,        0.0737304688,       20.8892822266,      -36.1175537109,     -252.1057128906
1494036620.8007469177,       -0.0048828125,       -0.4448242188,        0.0737304688,       28.1829833984,      -34.1644287109,     -271.5606689453
1494036620.8038740158,       -0.0048828125,       -0.4448242188,        0.0737304688,       28.1829833984,      -34.1644287109,     -271.5606689453
1494036620.8065719604,       -0.0048828125,       -0.1948242188,       -0.0585937500,       37.3687744141,      -31.7535400391,     -289.6423339844
1494036620.8092730045,       -0.0991210938,       -0.2285156250,       -0.0585937500,       37.3687744141,      -31.7535400391,     -289.6423339844
1494036620.8119759560,       -0.0991210938,       -0.2285156250,       -0.0585937500,       46.3104248047,      -29.9682617188,     -304.2144775391
1494036620.8146929741,       -0.0991210938,       -0.2285156250,       -0.0585937500,       46.3104248047,      -29.9682617188,     -304.2144775391
1494036620.8173921108,       -0.2719726562,       -0.1337890625,       -0.2197265625,       54.6875000000,      -28.8696289062,     -314.8651123047
1494036620.8200869560,       -0.2719726562,       -0.1337890625,       -0.2197265625,       54.6875000000,      -28.8696289062,     -314.8651123047
1494036620.8227889538,       -0.2719726562,       -0.1337890625,       -0.2197265625,       58.7158203125,      -26.7639160156,     -322.2198486328
1494036620.8255000114,       -0.2719726562,       -0.1337890625,       -0.2197265625,       58.7158203125,      -26.7639160156,     -322.2198486328
1494036620.8282070160,       -0.3554687500,        0.1655273438,       -0.2988281250,       54.9774169922,      -25.1159667969,     -328.3081054688
1494036620.8309040070,       -0.3554687500,        0.1655273438,       -0.2988281250,       54.9774169922,      -25.1159667969,     -328.3081054688
1494036620.8335850239,       -0.3554687500,        0.1655273438,       -0.2988281250,       48.2788085938,      -25.9704589844,     -334.0759277344
1494036620.8361399174,       -0.3554687500,        0.1655273438,       -0.2988281250,       48.2788085938,      -25.9704589844,     -334.0759277344
1494036620.8387000561,       -0.3745117188,        0.4506835938,       -0.4023437500,       44.0063476562,      -27.6184082031,     -337.8753662109
1494036620.8412590027,       -0.3745117188,        0.4506835938,       -0.4023437500,       44.0063476562,      -27.6184082031,     -337.8753662109
1494036620.8438649178,       -0.3745117188,        0.4506835938,       -0.4023437500,       36.9415283203,      -28.1982421875,     -337.5396728516
1494036620.8464229107,       -0.3745117188,        0.4506835938,       -0.5273437500,       36.9415283203,      -28.1982421875,     -337.5396728516
1494036620.8489820957,       -0.5483398438,        0.4179687500,       -0.6010742188,       19.2718505859,      -26.4129638672,     -333.5113525391
1494036620.8515350819,       -0.5483398438,        0.4179687500,       -0.6010742188,       19.2718505859,      -26.4129638672,     -333.5113525391
1494036620.8543109894,       -0.5483398438,        0.4179687500,       -0.6010742188,       -8.9416503906,      -22.4761962891,     -325.7446289062
1494036620.8568780422,       -0.5483398438,        0.4179687500,       -0.6210937500,       -8.9416503906,      -22.4761962891,     -325.7446289062
1494036620.8594369888,       -0.6440429688,        0.5717773438,       -0.6210937500,       -8.9416503906,      -16.9525146484,     -318.1152343750
1494036620.8619909286,       -0.6440429688,        0.5717773438,       -0.6210937500,      -44.6929931641,      -16.9525146484,     -318.1152343750
1494036620.8648009300,       -0.6440429688,        0.5717773438,       -0.6210937500,      -44.6929931641,      -10.7574462891,     -314.5751953125
1494036620.8676109314,       -0.5190429688,        1.0029296875,       -0.4394531250,      -79.8797607422,      -10.7574462891,     -314.5751953125
1494036620.8703129292,       -0.5703125000,        1.0029296875,       -0.4394531250,      -79.8797607422,       -3.9062500000,     -311.9506835938
1494036620.8730099201,       -0.5703125000,        1.0029296875,       -0.4394531250,     -110.1074218750,       -3.9062500000,     -311.9506835938
1494036620.8757200241,       -0.5703125000,        1.0029296875,       -0.4394531250,     -110.1074218750,        3.2806396484,     -309.9060058594
1494036620.8784139156,       -0.5581054688,        1.3793945312,       -0.1552734375,     -135.1165771484,        3.2806396484,     -309.9060058594
1494036620.8811070919,       -0.5581054688,        1.3793945312,       -0.1552734375,     -135.1165771484,       11.0931396484,     -309.2651367188
1494036620.8837790489,       -0.5581054688,        1.3793945312,       -0.1552734375,     -151.9165039062,       10.8489990234,     -309.2651367188
1494036620.8863420486,       -0.5581054688,        1.3793945312,       -0.1552734375,     -151.9165039062,       10.8489990234,     -306.9610595703
1494036620.8889029026,       -0.6420898438,        1.6259765625,        0.0717773438,     -158.2641601562,       20.3399658203,     -306.9610595703
1494036620.8914599419,       -0.6420898438,        1.6259765625,        0.0717773438,     -158.2641601562,       20.3399658203,     -303.0548095703
1494036620.8940598965,       -0.6420898438,        1.6259765625,        0.0717773438,     -156.1279296875,       30.4412841797,     -301.0406494141
1494036620.8966228962,       -0.6420898438,        1.6259765625,        0.0717773438,     -156.1279296875,       30.4412841797,     -301.0406494141
1494036620.8991808891,       -0.7622070312,        1.8881835938,        0.2495117188,     -150.2838134766,       38.6505126953,     -290.8630371094
1494036620.9017410278,       -0.7622070312,        1.8881835938,        0.2495117188,     -150.2838134766,       38.6505126953,     -290.8630371094
1494036620.9043979645,       -0.7622070312,        1.8881835938,        0.2495117188,     -145.6756591797,       45.0286865234,     -276.6418457031
1494036620.9069519043,       -0.7622070312,        1.8881835938,        0.2495117188,     -145.6756591797,       45.0286865234,     -276.6418457031
1494036620.9095060825,       -1.0278320312,        2.1137695312,        0.3945312500,     -144.8211669922,       51.7425537109,     -257.6904296875
1494036620.9120650291,       -1.0278320312,        2.1137695312,        0.3945312500,     -144.8211669922,       51.7425537109,     -257.6904296875
1494036620.9147350788,       -1.0278320312,        2.1137695312,        0.3945312500,     -146.2554931641,       60.3027343750,     -238.4033203125
1494036620.9174420834,       -1.0278320312,        2.1137695312,        0.3940429688,     -146.2554931641,       60.3027343750,     -238.4033203125
1494036620.9203460217,       -1.3149414062,        2.1879882812,        0.3940429688,     -140.5944824219,       68.3135986328,     -221.5576171875
1494036620.9234819412,       -1.3149414062,        2.1879882812,        0.3940429688,     -140.5944824219,       68.3135986328,     -221.5576171875
1494036620.9261889458,       -1.3149414062,        2.1879882812,        0.3940429688,     -126.0070800781,       73.5015869141,     -207.2906494141
1494036620.9288840294,       -1.4184570312,        2.2104492188,        0.3305664062,     -126.0070800781,       73.5015869141,     -207.2906494141
1494036620.9315810204,       -1.4184570312,        2.2104492188,        0.3305664062,     -103.6834716797,       75.5004882812,     -191.6046142578
1494036620.9342439175,       -1.4184570312,        2.2104492188,        0.3305664062,     -103.6834716797,       75.5004882812,     -191.6046142578
1494036620.9368031025,       -1.4184570312,        2.2104492188,        0.3305664062,      -81.5887451172,       72.3114013672,     -172.5769042969
1494036620.9394590855,       -1.1914062500,        2.1816406250,        0.3388671875,      -81.5887451172,       72.3114013672,     -172.5769042969
1494036620.9420199394,       -1.1914062500,        2.1816406250,        0.3388671875,      -63.9343261719,       65.0482177734,     -152.3284912109
1494036620.9446949959,       -1.1914062500,        2.1816406250,        0.3388671875,      -63.9343261719,       65.0482177734,     -152.3284912109
1494036620.9473969936,       -1.1914062500,        2.1816406250,        0.4638671875,      -50.3082275391,       54.0313720703,     -129.8217773438
1494036620.9500920773,       -0.7768554688,        1.9223632812,        0.4277343750,      -50.3082275391,       54.0313720703,     -129.8217773438
1494036620.9527869225,       -0.7768554688,        1.9223632812,        0.4277343750,      -43.9758300781,       41.2750244141,     -103.2257080078
1494036620.9553840160,       -0.7768554688,        1.9223632812,        0.4277343750,      -43.9758300781,       41.2750244141,     -103.2257080078
1494036620.9579451084,       -0.7768554688,        1.7973632812,        0.4741210938,      -45.2880859375,       28.5491943359,      -74.6459960938
1494036620.9605040550,       -0.4580078125,        1.8129882812,        0.4741210938,      -45.2880859375,       28.5491943359,      -74.6459960938
1494036620.9630589485,       -0.4580078125,        1.8129882812,        0.4741210938,      -49.1943359375,       16.4489746094,      -47.3327636719
1494036620.9656219482,       -0.4580078125,        1.8129882812,        0.4741210938,      -49.4384765625,       16.4489746094,      -47.3327636719
1494036620.9681839943,       -0.4580078125,        1.6616210938,        0.3227539062,      -49.4384765625,        4.7302246094,      -22.9034423828
1494036620.9707388878,       -0.2246093750,        1.6616210938,        0.3227539062,      -53.5430908203,        4.0435791016,      -22.9034423828
1494036620.9734320641,       -0.2246093750,        1.6616210938,        0.3227539062,      -53.5430908203,        4.0435791016,       -1.4190673828
1494036620.9759991169,       -0.2246093750,        1.6616210938,        0.3227539062,      -57.3577880859,       -6.4392089844,       -1.4190673828
1494036620.9785530567,       -0.2246093750,        1.4160156250,        0.1772460938,      -57.3577880859,       -6.4392089844,       18.1121826172
1494036620.9811038971,       -0.1494140625,        1.4160156250,        0.1772460938,      -55.6182861328,      -13.8397216797,       18.4631347656
1494036620.9837930202,       -0.1494140625,        1.4160156250,        0.1772460938,      -55.6182861328,      -13.8397216797,       18.4631347656
1494036620.9863550663,       -0.1494140625,        1.4160156250,        0.1772460938,      -50.6744384766,      -14.8162841797,       37.5823974609
1494036620.9889121056,       -0.2226562500,        1.1298828125,        0.0097656250,      -50.6744384766,      -14.8162841797,       37.5823974609
1494036620.9914700985,       -0.2226562500,        1.1298828125,        0.0097656250,      -43.6401367188,      -12.9241943359,       55.1757812500
1494036620.9941170216,       -0.2226562500,        1.1298828125,        0.0097656250,      -43.6401367188,      -12.9241943359,       55.1757812500
1494036620.9968209267,       -0.2226562500,        1.1298828125,        0.0097656250,      -33.7677001953,       -8.8043212891,       72.0672607422
1494036620.9995250702,       -0.3071289062,        0.9458007812,       -0.2167968750,      -33.7677001953,       -8.8043212891,       72.0672607422
1494036621.0022249222,       -0.3071289062,        0.9458007812,       -0.2167968750,      -23.9105224609,       -1.5258789062,       88.3178710938
1494036621.0049369335,       -0.3071289062,        0.9458007812,       -0.2167968750,      -23.9105224609,       -1.5258789062,       88.3178710938
1494036621.0076329708,       -0.3071289062,        0.9458007812,       -0.2167968750,      -16.8304443359,        7.0953369141,      101.6235351562
1494036621.0103321075,       -0.2895507812,        1.2006835938,       -0.4135742188,      -16.8304443359,        7.0953369141,      101.6235351562
1494036621.0131440163,       -0.2895507812,        1.2006835938,       -0.4135742188,       13.3972167969,       17.1966552734,      124.3286132812
1494036621.0157470703,       -0.2895507812,        1.2006835938,       -0.4135742188,       13.3972167969,       17.1966552734,      124.3286132812
1494036621.0183060169,       -0.2895507812,        1.2006835938,        1.0283203125,      -18.0053710938,       13.0767822266,      194.3969726562
1494036621.0208649635,       -0.3344726562,        5.8027343750,        1.0283203125,      -18.0053710938,       13.0767822266,      194.3969726562
1494036621.0234949589,       -0.3344726562,        5.8027343750,        1.0283203125,     -278.3508300781,       14.5721435547,      268.5852050781
1494036621.0261940956,       -0.3344726562,        5.8027343750,        1.0283203125,     -278.3508300781,       14.5721435547,      268.5852050781
1494036621.0288960934,       -0.3344726562,       -0.4262695312,       -0.2944335938,     -108.9324951172,       20.9350585938,      226.0131835938
1494036621.0315990448,       -2.1562500000,       -0.4262695312,       -0.2944335938,     -108.9324951172,       20.9350585938,      226.0131835938
1494036621.0342659950,       -2.1562500000,       -0.4262695312,       -0.2944335938,       35.5377197266,       -5.8746337891,      239.1662597656
1494036621.0368180275,       -2.1562500000,       -0.4262695312,       -0.2944335938,       35.5377197266,       -5.8746337891,      239.1662597656
1494036621.0396330357,       -2.6396484375,       -1.5009765625,       -0.0996093750,      -55.6488037109,       15.0604248047,      233.4747314453
1494036621.0421900749,       -2.6396484375,       -1.5009765625,       -0.0996093750,      -55.6488037109,       15.0604248047,      233.4747314453
1494036621.0452840328,       -2.6396484375,       -1.5009765625,       -0.0996093750,      -36.2854003906,      -10.3912353516,      171.5240478516
1494036621.0479779243,       -2.6396484375,       -1.5009765625,       -0.0996093750,      -36.2854003906,      -10.3912353516,      171.5240478516
1494036621.0506720543,       -1.4511718750,       -2.1186523438,       -0.8530273438,      -35.4614257812,       -0.2899169922,      110.8703613281
1494036621.0534150600,       -1.4511718750,       -2.1186523438,       -0.8530273438,      -35.4614257812,       -0.2899169922,      110.8703613281
1494036621.0561139584,       -1.4511718750,       -2.1186523438,       -0.8530273438,     -105.1330566406,       13.0157470703,       99.7772216797
1494036621.0588090420,       -1.4511718750,        0.1313476562,        1.0981445312,     -105.1330566406,       13.0157470703,       99.7772216797
1494036621.0615100861,        0.1708984375,        0.2441406250,        1.0981445312,     -183.8836669922,      -19.9737548828,      124.1607666016
1494036621.0642130375,        0.1708984375,        0.2441406250,        1.0981445312,     -183.8836669922,      -19.9737548828,      124.1607666016
1494036621.0669100285,        0.1708984375,        0.2441406250,        1.0981445312,     -245.8190917969,      -62.5457763672,      171.2646484375
1494036621.0696039200,       -2.2661132812,        0.6958007812,        2.5117187500,     -245.8190917969,      -62.5457763672,      171.2646484375
1494036621.0723030567,       -2.2661132812,        0.6958007812,        2.5117187500,     -193.3135986328,      -48.2940673828,      215.3778076172
1494036621.0749080181,       -2.2661132812,        0.6958007812,        2.5117187500,     -193.3135986328,      -48.2940673828,      215.3778076172
1494036621.0774660110,       -2.2661132812,        0.6958007812,        2.5117187500,      -80.0323486328,      -34.9273681641,      194.3969726562
1494036621.0800220966,       -8.7011718750,       -0.8808593750,       -2.7236328125,      -80.1544189453,      -34.9273681641,      194.3969726562
1494036621.0825800896,       -8.7011718750,       -0.8808593750,       -2.7236328125,      -80.1544189453,       -5.8593750000,      204.9102783203
1494036621.0851900578,       -8.7011718750,       -0.8808593750,       -2.7236328125,       97.5646972656,       -5.8593750000,      204.9102783203
1494036621.0878579617,       -8.7011718750,       -0.8808593750,       -2.7236328125,       97.5646972656,       -5.8593750000,      274.3835449219
1494036621.0904130936,       -1.4428710938,       -0.1669921875,       -1.5781250000,       66.7877197266,        2.4108886719,      274.3835449219
1494036621.0929698944,       -1.4428710938,       -0.1669921875,       -1.5781250000,       66.7877197266,        2.4108886719,      260.3454589844
1494036621.0956790447,       -1.4428710938,       -0.1669921875,       -1.5781250000,      -57.6324462891,       13.7176513672,      260.3454589844
1494036621.0982339382,       -1.4428710938,       -0.1669921875,       -1.5781250000,      -57.6324462891,       13.7176513672,      260.3454589844
1494036621.1007881165,        0.3876953125,        0.6899414062,       -0.3188476562,     -124.8474121094,       17.2576904297,      218.1091308594
1494036621.1035039425,        0.3876953125,        0.6899414062,       -0.3188476562,     -124.8474121094,       17.2576904297,      218.1091308594
1494036621.1062068939,        0.3876953125,        0.6899414062,       -0.3188476562,     -114.6697998047,        8.7280273438,      210.9375000000
1494036621.1089010239,        0.3876953125,        0.6899414062,        0.1953125000,     -114.6697998047,        8.7280273438,      210.9375000000
1494036621.1115949154,        1.0112304688,        0.6313476562,        0.1953125000,     -102.4932861328,      -11.6424560547,      217.9718017578
1494036621.1143019199,        1.0112304688,        0.6313476562,        0.1953125000,     -102.4932861328,      -11.6424560547,      217.9718017578
1494036621.1169979572,        1.0112304688,        0.6313476562,        0.1953125000,      -89.3402099609,      -24.7039794922,      214.7216796875
1494036621.1196920872,        1.0112304688,        0.5317382812,        0.9799804688,      -89.3402099609,      -24.7039794922,      214.7216796875
1494036621.1223919392,        1.3344726562,        0.5317382812,        0.9799804688,      -68.4814453125,      -19.0429687500,      199.2187500000
1494036621.1250059605,        1.3344726562,        0.5317382812,        0.9799804688,      -68.4814453125,      -19.0429687500,      199.2187500000
1494036621.1275570393,        1.3344726562,        0.5317382812,        0.9799804688,      -42.1905517578,      -23.2849121094,      174.8352050781
1494036621.1301119328,        0.5078125000,        1.1914062500,        0.9335937500,      -42.1905517578,      -23.2849121094,      174.8352050781
1494036621.1326689720,        0.5078125000,        1.1914062500,        0.9335937500,      -10.3912353516,      -44.8608398438,      153.9154052734
1494036621.1353490353,        0.5078125000,        1.1914062500,        0.9335937500,      -10.3912353516,      -44.8608398438,      153.9154052734
1494036621.1380488873,        0.5078125000,        1.1914062500,        0.9335937500,       21.2707519531,      -55.6488037109,      137.4816894531
1494036621.1407489777,       -0.9619140625,        1.2402343750,        0.2880859375,       21.2707519531,      -55.6488037109,      137.4816894531
1494036621.1434888840,       -0.9619140625,        1.2402343750,        0.2880859375,       46.5087890625,      -52.0477294922,      126.2512207031
1494036621.1461899281,       -0.9619140625,        1.2402343750,        0.2880859375,       46.5087890625,      -52.0477294922,      126.2512207031
1494036621.1488890648,       -0.9619140625,        1.2402343750,        0.2880859375,       56.3354492188,      -49.0570068359,      120.2087402344
1494036621.1515851021,       -0.8457031250,        0.6381835938,       -0.1025390625,       56.3354492188,      -49.0570068359,      120.2087402344
1494036621.1542990208,       -0.8457031250,        0.6381835938,       -0.1025390625,       52.7191162109,      -48.1109619141,      118.3013916016
1494036621.1569969654,       -0.8457031250,        0.6381835938,       -0.1025390625,       52.7191162109,      -48.1109619141,      118.3013916016
1494036621.1599659920,       -0.8457031250,        0.4316406250,       -0.0161132812,       39.4592285156,      -40.9545898438,      115.8294677734
1494036621.1626639366,       -0.9858398438,        0.4316406250,       -0.0161132812,       39.4592285156,      -40.9545898438,      115.8294677734
1494036621.1657810211,       -0.9858398438,        0.4316406250,       -0.0161132812,       26.9317626953,      -29.6325683594,      116.9891357422
1494036621.1684899330,       -0.9858398438,        0.4316406250,       -0.0161132812,       26.9317626953,      -29.6325683594,      116.9891357422
1494036621.1711859703,       -1.1796875000,        0.2539062500,        0.1577148438,       16.0522460938,      -22.6135253906,      123.7945556641
1494036621.1738700867,       -1.1796875000,        0.2539062500,        0.1577148438,       16.0522460938,      -22.6135253906,      123.7945556641
1494036621.1764268875,       -1.1796875000,        0.2539062500,        0.1577148438,        4.5776367188,      -17.9901123047,      130.4473876953
1494036621.1789839268,       -1.1796875000,        0.2539062500,        0.1577148438,        4.5776367188,      -17.9901123047,      130.4473876953
