time_stamp before, Acceleration x, Acceleration y, Acceleration z, Gyro x, Gyro y, Gyro z
1494036529.0136580467,       -0.5078125000,       -0.0512695312,       -0.1347656250,      -35.8123779297,        6.4849853516,       97.7478027344
1494036529.0273079872,       -0.5078125000,       -0.0512695312,       -0.1347656250,      -35.6140136719,        6.4849853516,       97.7478027344
1494036529.0306630135,       -0.5078125000,       -0.0512695312,       -0.1347656250,      -39.6118164062,        7.9956054688,       87.7532958984
1494036529.0341539383,       -0.4179687500,       -0.1123046875,       -0.1264648438,      -39.6118164062,        7.9956054688,       76.0345458984
1494036529.0368499756,       -0.4179687500,       -0.1123046875,       -0.1264648438,      -43.0297851562,       10.0708007812,       77.5299072266
1494036529.0395541191,       -0.4179687500,       -0.1123046875,       -0.1264648438,      -43.0297851562,       10.0708007812,       77.5299072266
1494036529.0422449112,       -0.3437500000,       -0.1557617188,       -0.1210937500,      -45.0592041016,       11.9323730469,       66.2231445312
1494036529.0449550152,       -0.3437500000,       -0.1557617188,       -0.1210937500,      -45.0592041016,       11.9323730469,       66.2231445312
1494036529.0476479530,       -0.3437500000,       -0.1557617188,       -0.1210937500,      -46.6003417969,       13.6260986328,       55.2062988281
1494036529.0503370762,       -0.3437500000,       -0.1557617188,       -0.1210937500,      -46.6003417969,       13.6260986328,       55.2062988281
1494036529.0530281067,       -0.3046875000,       -0.2138671875,       -0.1040039062,      -48.1719970703,       15.3503417969,       43.6096191406
1494036529.0557301044,       -0.3046875000,       -0.2138671875,       -0.1040039062,      -48.1719970703,       15.3503417969,       43.6096191406
1494036529.0584199429,       -0.3046875000,       -0.2138671875,       -0.1040039062,      -49.4537353516,       17.1966552734,       33.1878662109
1494036529.0611169338,       -0.3046875000,       -0.2138671875,       -0.1040039062,      -49.4537353516,       17.1966552734,       33.1878662109
1494036529.0638430119,       -0.3002929688,       -0.2543945312,       -0.1059570312,      -51.8798828125,       18.2189941406,       22.3846435547
1494036529.0663909912,       -0.3002929688,       -0.2543945312,       -0.1059570312,      -51.8798828125,       18.2189941406,       22.3846435547
1494036529.0689411163,       -0.3002929688,       -0.2543945312,       -0.1059570312,      -54.5654296875,       18.7225341797,       11.3220214844
1494036529.0714900494,       -0.3002929688,       -0.2543945312,       -0.1059570312,      -54.5654296875,       18.7225341797,       11.3220214844
1494036529.0740818977,       -0.2924804688,       -0.2246093750,       -0.0859375000,      -56.2438964844,       19.1192626953,        0.0305175781
1494036529.0766420364,       -0.2924804688,       -0.2246093750,       -0.0859375000,      -56.2438964844,       19.1192626953,        0.0305175781
1494036529.0791969299,       -0.2924804688,       -0.2246093750,       -0.0859375000,      -55.6945800781,       19.4244384766,      -11.2304687500
1494036529.0817620754,       -0.2924804688,       -0.2246093750,       -0.0712890625,      -55.6945800781,       19.4244384766,      -11.2304687500
1494036529.0844659805,       -0.2836914062,       -0.1821289062,       -0.0712890625,      -54.0008544922,       18.8751220703,      -22.9492187500
1494036529.0870220661,       -0.2836914062,       -0.1821289062,       -0.0712890625,      -54.0008544922,       18.8751220703,      -22.9492187500
1494036529.0895829201,       -0.2836914062,       -0.1821289062,       -0.0712890625,      -54.0008544922,       18.4020996094,      -34.2559814453
1494036529.0921380520,       -0.2836914062,       -0.1821289062,       -0.0610351562,      -51.4373779297,       18.4020996094,      -34.2559814453
1494036529.0948948860,       -0.2851562500,       -0.1816406250,       -0.0610351562,      -47.5311279297,       18.4173583984,      -45.1354980469
1494036529.0975921154,       -0.2851562500,       -0.1816406250,       -0.0610351562,      -48.6755371094,       18.4173583984,      -45.1354980469
1494036529.1004569530,       -0.2851562500,       -0.1816406250,       -0.0610351562,      -44.7692871094,       18.4936523438,      -55.7556152344
1494036529.1031999588,       -0.2929687500,       -0.1967773438,       -0.0615234375,      -46.6156005859,       18.4936523438,      -55.7556152344
1494036529.1059010029,       -0.2929687500,       -0.1967773438,       -0.0615234375,      -46.6156005859,       18.4173583984,      -65.5364990234
1494036529.1085979939,       -0.2929687500,       -0.1967773438,       -0.0615234375,      -45.4406738281,       18.4173583984,      -65.5364990234
1494036529.1112990379,       -0.2929687500,       -0.1967773438,       -0.0615234375,      -45.4406738281,       19.0429687500,      -74.7985839844
1494036529.1139678955,       -0.2700195312,       -0.1650390625,       -0.0483398438,      -45.4559326172,       19.0429687500,      -74.7985839844
1494036529.1165370941,       -0.2700195312,       -0.1650390625,       -0.0483398438,      -45.4559326172,       22.9492187500,      -83.6791992188
1494036529.1191000938,       -0.2700195312,       -0.1650390625,       -0.0483398438,      -45.0286865234,       19.5617675781,      -83.6791992188
1494036529.1216549873,       -0.2700195312,       -0.1650390625,       -0.0483398438,      -45.0286865234,       19.5617675781,      -92.7734375000
1494036529.1242671013,       -0.2397460938,       -0.1328125000,       -0.0429687500,      -44.6166992188,       20.0958251953,      -92.7734375000
1494036529.1268289089,       -0.2397460938,       -0.1328125000,       -0.0429687500,      -44.6166992188,       20.0958251953,     -100.5859375000
1494036529.1293859482,       -0.2397460938,       -0.1328125000,       -0.0429687500,      -43.8537597656,       20.6451416016,     -101.5167236328
1494036529.1319859028,       -0.2397460938,       -0.1328125000,       -0.0429687500,      -43.8537597656,       20.6451416016,     -101.5167236328
1494036529.1346609592,       -0.2265625000,       -0.0874023438,       -0.0346679688,      -42.9077148438,       20.7672119141,     -110.2142333984
1494036529.1373651028,       -0.2265625000,       -0.0874023438,       -0.0346679688,      -42.9077148438,       20.7672119141,     -110.2142333984
1494036529.1400620937,       -0.2265625000,       -0.0874023438,       -0.0346679688,      -39.6423339844,       20.6604003906,     -118.6370849609
1494036529.1427600384,       -0.2265625000,       -0.0004882812,       -0.0043945312,      -39.6423339844,       20.6604003906,     -118.6370849609
1494036529.1455070972,       -0.2231445312,       -0.0004882812,       -0.0043945312,      -35.7055664062,       20.2941894531,     -126.1138916016
1494036529.1482000351,       -0.2231445312,       -0.0004882812,       -0.0043945312,      -35.7055664062,       20.2941894531,     -126.1138916016
1494036529.1509869099,       -0.2231445312,       -0.0004882812,       -0.0043945312,      -30.7464599609,       19.8822021484,     -132.9650878906
1494036529.1536939144,       -0.2568359375,        0.0415039062,        0.0278320312,      -30.7464599609,       19.8822021484,     -132.9650878906
1494036529.1563930511,       -0.2568359375,        0.0415039062,        0.0278320312,      -26.4282226562,       18.8446044922,     -139.2669677734
1494036529.1590890884,       -0.2568359375,        0.0415039062,        0.0278320312,      -26.4282226562,       18.8446044922,     -139.2669677734
1494036529.1617870331,       -0.2568359375,        0.0415039062,        0.0278320312,      -20.6756591797,       18.4936523438,     -145.6451416016
1494036529.1644389629,       -0.2880859375,        0.1538085938,        0.0610351562,      -20.6756591797,       18.4936523438,     -145.6451416016
1494036529.1669969559,       -0.2880859375,        0.1538085938,        0.0610351562,      -13.2904052734,       17.4102783203,     -151.0162353516
1494036529.1695590019,       -0.2880859375,        0.1538085938,        0.0610351562,      -13.2904052734,       17.4102783203,     -151.0162353516
1494036529.1722331047,       -0.2880859375,        0.1538085938,        0.0610351562,       -5.7373046875,       15.3503417969,     -155.6396484375
1494036529.1749479771,       -0.3095703125,        0.2138671875,        0.0820312500,       -5.7373046875,       15.3503417969,     -155.6396484375
1494036529.1776499748,       -0.3095703125,        0.2138671875,        0.0820312500,        0.9765625000,       13.4429931641,     -159.0118408203
1494036529.1803460121,       -0.3095703125,        0.2138671875,        0.0820312500,        0.9765625000,       13.4429931641,     -159.0118408203
1494036529.1831429005,       -0.3095703125,        0.2109375000,        0.0722656250,        6.2255859375,       11.7492675781,     -161.1480712891
1494036529.1861629486,       -0.3525390625,        0.2109375000,        0.0722656250,        6.2255859375,       11.7492675781,     -161.1480712891
1494036529.1887180805,       -0.3525390625,        0.2109375000,        0.0722656250,        9.4451904297,       10.6506347656,     -162.7960205078
1494036529.1912720203,       -0.3525390625,        0.2109375000,        0.0722656250,        9.4451904297,       10.6506347656,     -162.7960205078
1494036529.1939089298,       -0.3510742188,        0.2578125000,        0.0332031250,       11.8255615234,        9.4299316406,     -163.9404296875
1494036529.1966040134,       -0.3510742188,        0.2578125000,        0.0332031250,       11.8255615234,        9.4299316406,     -163.9404296875
1494036529.1993041039,       -0.3510742188,        0.2578125000,        0.0332031250,       13.8244628906,        8.2397460938,     -164.4592285156
1494036529.2020020485,       -0.3510742188,        0.2578125000,        0.0332031250,       13.8244628906,        8.2397460938,     -164.4592285156
1494036529.2047090530,       -0.3486328125,        0.3090820312,        0.0151367188,       14.9841308594,        7.4615478516,     -164.9475097656
1494036529.2074060440,       -0.3486328125,        0.3090820312,        0.0151367188,       14.9841308594,        7.4615478516,     -164.9475097656
1494036529.2100980282,       -0.3486328125,        0.3090820312,        0.0151367188,       15.2587890625,        5.8898925781,     -165.1458740234
1494036529.2127950191,       -0.3486328125,        0.3090820312,        0.0117187500,       15.2587890625,        5.8898925781,     -165.1458740234
1494036529.2153840065,       -0.3413085938,        0.3564453125,        0.0117187500,       15.1824951172,        4.7607421875,     -165.2984619141
1494036529.2179369926,       -0.3413085938,        0.3564453125,        0.0117187500,       15.1824951172,        4.7607421875,     -165.2984619141
1494036529.2204918861,       -0.3413085938,        0.3564453125,        0.0117187500,       14.6789550781,        2.9602050781,     -164.3066406250
1494036529.2230439186,       -0.3413085938,        0.3564453125,       -0.0200195312,       14.6789550781,        2.9602050781,     -164.3066406250
1494036529.2256119251,       -0.3637695312,        0.3564453125,       -0.0200195312,       14.6789550781,        1.9531250000,     -161.3769531250
1494036529.2281649113,       -0.3637695312,        0.3564453125,       -0.0200195312,       12.5885009766,        1.9531250000,     -161.3769531250
1494036529.2307250500,       -0.3637695312,        0.3564453125,       -0.0200195312,       12.5885009766,        1.9531250000,     -157.7148437500
1494036529.2333610058,       -0.3637695312,        0.4814453125,       -0.0375976562,        9.3688964844,        1.3580322266,     -157.7148437500
1494036529.2359290123,       -0.4150390625,        0.4130859375,       -0.0375976562,        9.3688964844,        1.3580322266,     -153.9459228516
1494036529.2385630608,       -0.4150390625,        0.4130859375,       -0.0375976562,        4.8675537109,        0.2136230469,     -153.9459228516
1494036529.2411150932,       -0.4150390625,        0.4130859375,       -0.0375976562,        4.8675537109,        0.2136230469,     -150.0396728516
1494036529.2438869476,       -0.4150390625,        0.5205078125,       -0.0634765625,        0.7171630859,        0.5493164062,     -150.2227783203
1494036529.2465550900,       -0.4599609375,        0.5205078125,       -0.0634765625,        0.7171630859,        0.5493164062,     -146.3165283203
1494036529.2491180897,       -0.4599609375,        0.5205078125,       -0.0634765625,       -3.3416748047,        0.9460449219,     -145.4162597656
1494036529.2516789436,       -0.4599609375,        0.5205078125,       -0.0634765625,       -3.3416748047,        0.9460449219,     -145.4162597656
1494036529.2544329166,       -0.4936523438,        0.6459960938,       -0.0688476562,       -7.9345703125,        0.5493164062,     -139.7705078125
1494036529.2570950985,       -0.4936523438,        0.6459960938,       -0.0688476562,       -7.9345703125,        0.5493164062,     -134.2926025391
1494036529.2609629631,       -0.4936523438,        0.6459960938,       -0.0688476562,      -12.0086669922,        0.8697509766,     -134.2926025391
1494036529.2636549473,       -0.4936523438,        0.7709960938,       -0.0258789062,      -12.0086669922,        1.4495849609,     -128.1280517578
1494036529.2662060261,       -0.5156250000,        0.8134765625,       -0.0258789062,      -13.8244628906,        1.4495849609,     -128.1280517578
1494036529.2687540054,       -0.5156250000,        0.8134765625,       -0.0258789062,      -13.8244628906,        1.4495849609,     -121.9177246094
1494036529.2713088989,       -0.5156250000,        0.8134765625,       -0.0258789062,      -12.6190185547,        1.6937255859,     -121.9177246094
1494036529.2739179134,       -0.5156250000,        0.9150390625,       -0.0009765625,      -12.6190185547,        1.6937255859,     -114.3035888672
1494036529.2766070366,       -0.5341796875,        0.9150390625,       -0.0009765625,       -9.1552734375,        1.2817382812,     -114.3035888672
1494036529.2792959213,       -0.5341796875,        0.9150390625,       -0.0009765625,       -9.1552734375,        1.2817382812,     -105.9265136719
1494036529.2819890976,       -0.5341796875,        0.9150390625,       -0.0009765625,       -8.3465576172,        1.4495849609,     -105.9265136719
1494036529.2846889496,       -0.5307617188,        0.9624023438,        0.0371093750,       -8.3465576172,        1.4495849609,      -94.2077636719
1494036529.2873818874,       -0.5307617188,        0.9624023438,        0.0371093750,       -9.0789794922,        1.3427734375,      -96.3134765625
1494036529.2900669575,       -0.5307617188,        0.9624023438,        0.0371093750,       -9.0789794922,        1.3427734375,      -88.5009765625
1494036529.2927560806,       -0.5307617188,        0.9624023438,        0.0371093750,       -9.9639892578,       -0.0915527344,      -86.3037109375
1494036529.2953720093,       -0.5493164062,        0.9633789062,        0.0566406250,       -9.9639892578,       -0.0915527344,      -86.3037109375
1494036529.2979249954,       -0.5493164062,        0.9633789062,        0.0566406250,      -10.5438232422,       -0.5187988281,      -77.0721435547
1494036529.3004789352,       -0.5493164062,        0.9633789062,        0.0566406250,      -10.5438232422,       -0.5187988281,      -77.0721435547
1494036529.3030269146,       -0.5493164062,        0.9633789062,        0.0566406250,      -10.0860595703,       -0.1373291016,      -67.4896240234
1494036529.3057060242,       -0.5649414062,        0.9072265625,        0.0400390625,      -10.0860595703,       -0.1373291016,      -67.4896240234
1494036529.3082580566,       -0.5649414062,        0.9072265625,        0.0400390625,       -9.3994140625,        0.3204345703,      -57.0526123047
1494036529.3108069897,       -0.5649414062,        0.9072265625,        0.0400390625,       -9.3994140625,        0.3204345703,      -57.0526123047
1494036529.3135199547,       -0.5649414062,        0.9072265625,        0.0400390625,      -10.4522705078,        0.5340576172,      -47.1343994141
1494036529.3160779476,       -0.5546875000,        0.8417968750,        0.0004882812,      -10.4522705078,        0.5340576172,      -47.1343994141
1494036529.3186318874,       -0.5546875000,        0.8417968750,        0.0004882812,      -13.1530761719,        1.0223388672,      -38.0554199219
1494036529.3212931156,       -0.5546875000,        0.8417968750,        0.0004882812,      -13.1530761719,        1.0223388672,      -38.0554199219
1494036529.3239159584,       -0.5546875000,        0.8417968750,       -0.0332031250,      -16.4031982422,        2.1209716797,      -30.3649902344
1494036529.3266060352,       -0.5239257812,        0.7749023438,       -0.0332031250,      -16.4031982422,        2.1209716797,      -30.3649902344
1494036529.3292980194,       -0.5239257812,        0.7749023438,       -0.0332031250,      -20.3704833984,        4.0435791016,      -23.3917236328
1494036529.3319900036,       -0.5239257812,        0.7749023438,       -0.0332031250,      -20.3704833984,        4.0435791016,      -23.3917236328
1494036529.3346951008,       -0.3989257812,        0.7084960938,       -0.0502929688,      -25.0701904297,        5.8288574219,      -16.8151855469
1494036529.3373870850,       -0.4995117188,        0.7084960938,       -0.0502929688,      -25.0701904297,        5.8288574219,      -16.8151855469
1494036529.3400819302,       -0.4995117188,        0.7084960938,       -0.0502929688,      -29.2510986328,        7.3547363281,      -10.9252929688
1494036529.3427751064,       -0.4995117188,        0.7084960938,       -0.0502929688,      -29.2510986328,        7.3547363281,      -10.9252929688
1494036529.3454880714,       -0.4692382812,        0.6811523438,       -0.0532226562,      -32.4859619141,        9.7503662109,       -6.0729980469
1494036529.3481791019,       -0.4692382812,        0.6811523438,       -0.0532226562,      -32.4859619141,        9.7503662109,       -6.0729980469
1494036529.3508648872,       -0.4692382812,        0.6811523438,       -0.0532226562,      -36.3922119141,       11.8255615234,       -1.2207031250
1494036529.3535668850,       -0.4692382812,        0.6811523438,       -0.0532226562,      -36.0412597656,       11.8255615234,       -1.2207031250
1494036529.3562579155,       -0.3999023438,        0.6030273438,       -0.0014648438,      -39.9475097656,       12.4511718750,        3.5552978516
1494036529.3589520454,       -0.3999023438,        0.6030273438,       -0.0014648438,      -40.6799316406,       12.4511718750,        3.5552978516
1494036529.3616440296,       -0.3999023438,        0.6030273438,       -0.0014648438,      -44.5861816406,       12.3291015625,        7.4462890625
1494036529.3643000126,       -0.3999023438,        0.6030273438,        0.0444335938,      -46.0815429688,       12.3291015625,        7.4462890625
1494036529.3668539524,       -0.3886718750,        0.4438476562,        0.0444335938,      -46.0815429688,       12.3291015625,        9.9945068359
1494036529.3694970608,       -0.3886718750,        0.4438476562,        0.0444335938,      -51.9714355469,       13.0004882812,        9.9945068359
1494036529.3720550537,       -0.3886718750,        0.4438476562,        0.0444335938,      -51.9714355469,       13.0004882812,       11.9018554688
1494036529.3747460842,       -0.3886718750,        0.3378906250,        0.0751953125,      -56.2896728516,       14.0533447266,       11.9018554688
1494036529.3775289059,       -0.3847656250,        0.3378906250,        0.0751953125,      -56.2896728516,       14.0533447266,       12.6342773438
1494036529.3802878857,       -0.3847656250,        0.3378906250,        0.0751953125,      -60.3027343750,       13.8397216797,       12.6342773438
1494036529.3831329346,       -0.3847656250,        0.3378906250,        0.0751953125,      -60.3027343750,        9.9334716797,       11.1389160156
1494036529.3858819008,       -0.4672851562,        0.3041992188,        0.5356445312,      -78.6895751953,        8.4991455078,       11.1389160156
1494036529.3885760307,       -0.4672851562,        0.3041992188,        0.5356445312,      -78.6895751953,       -3.2196044922,       15.2282714844
1494036529.3912699223,       -0.4672851562,        0.3041992188,        0.5356445312,      -99.7467041016,       -1.6479492188,       15.2282714844
1494036529.3940849304,       -0.4672851562,        0.3041992188,        0.5356445312,      -99.7467041016,       -9.4604492188,       30.1971435547
1494036529.3967859745,       -1.1191406250,        0.9902343750,        0.7749023438,      -93.5058593750,      -10.9710693359,       30.1971435547
1494036529.3994860649,       -1.1191406250,        0.9902343750,        0.7749023438,      -93.5058593750,      -18.7835693359,       46.5545654297
1494036529.4021859169,       -1.1191406250,        0.9902343750,        0.7749023438,      -88.2263183594,      -16.4794921875,       46.5545654297
1494036529.4048130512,       -1.1191406250,        1.4902343750,        0.1860351562,      -88.2263183594,      -16.4794921875,       63.0798339844
1494036529.4073650837,       -2.3466796875,        1.4394531250,        0.1860351562,      -74.4171142578,      -17.4407958984,       63.0798339844
1494036529.4099209309,       -2.3466796875,        1.4394531250,        0.1860351562,      -74.4171142578,      -17.4407958984,       70.8923339844
1494036529.4124760628,       -2.3466796875,        1.4394531250,        0.1860351562,      -40.1916503906,       -9.0332031250,       70.3125000000
1494036529.4150440693,       -2.3466796875,        0.5644531250,       -0.4653320312,      -40.1916503906,       -9.0332031250,       70.3125000000
1494036529.4175980091,       -1.7387695312,        0.5815429688,       -0.4653320312,      -14.6179199219,        5.9509277344,       64.1479492188
1494036529.4201540947,       -1.7387695312,        0.5815429688,       -0.4653320312,      -14.6179199219,        5.9509277344,       64.1479492188
1494036529.4227120876,       -1.7387695312,        0.5815429688,       -0.4653320312,       -3.6468505859,       12.5274658203,       53.8635253906
1494036529.4253909588,       -1.7387695312,       -0.2734375000,       -0.5888671875,       -3.6468505859,       12.5274658203,       53.8635253906
1494036529.4279410839,       -0.4653320312,       -0.2734375000,       -0.5888671875,        2.9144287109,       11.8560791016,       43.4265136719
1494036529.4305019379,       -0.4653320312,       -0.2734375000,       -0.5888671875,        2.9144287109,       11.8560791016,       43.4265136719
1494036529.4330599308,       -0.4653320312,       -0.2734375000,       -0.5888671875,       -3.4332275391,       10.1928710938,       35.8581542969
1494036529.4358580112,       -0.1865234375,       -0.0512695312,       -0.3149414062,       -3.4332275391,       10.1928710938,       35.8581542969
1494036529.4385480881,       -0.1865234375,       -0.0512695312,       -0.3149414062,      -16.4947509766,        9.2926025391,       34.6221923828
1494036529.4412438869,       -0.1865234375,       -0.0512695312,       -0.3149414062,      -16.4947509766,        9.2926025391,       34.6221923828
1494036529.4439499378,       -0.1865234375,       -0.0512695312,       -0.3149414062,      -24.0631103516,        6.4544677734,       36.6668701172
1494036529.4466459751,       -0.3359375000,        0.4047851562,       -0.0405273438,      -24.0631103516,        6.4544677734,       36.6668701172
1494036529.4493401051,       -0.3359375000,        0.4047851562,       -0.0405273438,      -26.9622802734,        4.0130615234,       37.9028320312
1494036529.4520349503,       -0.3359375000,        0.4047851562,       -0.0405273438,      -26.9622802734,        4.0130615234,       37.9028320312
1494036529.4547369480,       -0.3359375000,        0.4047851562,        0.2094726562,      -29.5104980469,        2.8228759766,       38.3300781250
1494036529.4574329853,       -0.4746093750,        0.7104492188,        0.1586914062,      -29.5104980469,        2.8228759766,       38.3300781250
1494036529.4601271152,       -0.4746093750,        0.7104492188,        0.1586914062,      -31.2500000000,        0.6713867188,       37.0941162109
1494036529.4628160000,       -0.4746093750,        0.7104492188,        0.1586914062,      -31.2500000000,        0.6713867188,       37.0941162109
1494036529.4654030800,       -0.4746093750,        0.7104492188,        0.1889648438,      -33.2641601562,       -2.1667480469,       33.7982177734
1494036529.4680750370,       -0.4902343750,        0.6821289062,        0.1889648438,      -33.2641601562,       -2.1667480469,       33.7982177734
1494036529.4706339836,       -0.4902343750,        0.6821289062,        0.1889648438,      -33.2641601562,       -5.1879882812,       30.0598144531
1494036529.4732289314,       -0.4902343750,        0.6821289062,        0.1889648438,      -34.1949462891,       -5.1879882812,       30.0598144531
1494036529.4759280682,       -0.4902343750,        0.4653320312,        0.0649414062,      -30.2886962891,       -8.5144042969,       26.8554687500
1494036529.4786250591,       -0.4951171875,        0.4653320312,        0.0649414062,      -30.3649902344,       -8.5144042969,       26.8554687500
1494036529.4813189507,       -0.4951171875,        0.4653320312,        0.0649414062,      -30.3649902344,      -11.3525390625,       24.3835449219
1494036529.4840679169,       -0.4951171875,        0.4653320312,        0.0649414062,      -21.7742919922,      -11.3525390625,       24.3835449219
1494036529.4867660999,       -0.6845703125,        0.4111328125,       -0.1293945312,      -21.7742919922,      -13.0004882812,       22.5830078125
1494036529.4895939827,       -0.6845703125,        0.4111328125,       -0.1293945312,      -11.7645263672,      -13.0004882812,       22.5830078125
1494036529.4922881126,       -0.6845703125,        0.4111328125,       -0.1293945312,       -0.0457763672,      -12.1154785156,       20.8435058594
1494036529.4949879646,       -0.6845703125,        0.4111328125,       -0.1293945312,       -3.5400390625,      -12.1154785156,       20.8435058594
1494036529.4976871014,       -0.8466796875,        0.4868164062,       -0.1215820312,        0.3662109375,       -9.9334716797,       18.2647705078
1494036529.5003769398,       -0.8466796875,        0.4868164062,       -0.1215820312,        0.1220703125,       -9.9334716797,       18.2647705078
1494036529.5030710697,       -0.8466796875,        0.4868164062,       -0.1215820312,        0.1220703125,       -9.7045898438,       13.4429931641
1494036529.5057780743,       -0.8466796875,        0.4868164062,        0.0346679688,       -1.0223388672,       -9.7045898438,       13.4429931641
1494036529.5084679127,       -0.7651367188,        0.4926757812,        0.0346679688,       -1.0223388672,      -11.5356445312,        8.6212158203
1494036529.5111649036,       -0.7651367188,        0.4926757812,        0.0346679688,       -1.0070800781,      -11.5356445312,        8.6212158203
1494036529.5138330460,       -0.7651367188,        0.4926757812,        0.0346679688,       -1.0070800781,      -15.4418945312,        5.6915283203
1494036529.5163810253,       -0.6401367188,        0.4858398438,        0.0747070312,        2.7160644531,      -13.9312744141,        5.6915283203
1494036529.5189340115,       -0.6738281250,        0.4858398438,        0.0747070312,        2.7160644531,      -13.9312744141,        4.3792724609
1494036529.5214850903,       -0.6738281250,        0.4858398438,        0.0747070312,        7.3242187500,      -14.9383544922,        4.3792724609
1494036529.5240719318,       -0.6738281250,        0.4858398438,        0.0747070312,        7.3242187500,      -14.9383544922,        4.3792724609
1494036529.5266239643,       -0.6166992188,        0.4248046875,        0.0634765625,        9.6740722656,      -13.9312744141,        3.0517578125
1494036529.5291759968,       -0.6166992188,        0.4248046875,        0.0634765625,        9.6740722656,      -13.9312744141,        3.0517578125
1494036529.5317349434,       -0.6166992188,        0.4248046875,        0.0634765625,        8.4381103516,      -11.7187500000,        0.7934570312
1494036529.5344099998,       -0.6166992188,        0.4248046875,        0.0634765625,        8.4381103516,      -11.7187500000,        0.7934570312
1494036529.5369639397,       -0.5820312500,        0.3310546875,        0.1049804688,        5.0201416016,       -9.1705322266,       -1.7242431641
1494036529.5395200253,       -0.5820312500,        0.3310546875,        0.1049804688,        5.0201416016,       -9.1705322266,       -1.7242431641
1494036529.5421729088,       -0.5820312500,        0.3310546875,        0.1049804688,        0.9460449219,       -7.2631835938,       -3.7689208984
1494036529.5448229313,       -0.5820312500,        0.3310546875,        0.1049804688,        0.9460449219,       -7.2631835938,       -3.7689208984
1494036529.5475089550,       -0.6455078125,        0.3242187500,        0.0893554688,       -3.2043457031,       -5.9509277344,       -4.8828125000
1494036529.5501940250,       -0.6455078125,        0.3242187500,        0.0893554688,       -3.2043457031,       -5.9509277344,       -4.8828125000
1494036529.5528841019,       -0.6455078125,        0.3242187500,        0.0893554688,       -6.2866210938,       -4.6234130859,       -4.8065185547
1494036529.5555770397,       -0.6455078125,        0.3242187500,        0.0893554688,       -6.2866210938,       -4.6234130859,       -4.8065185547
1494036529.5582671165,       -0.7124023438,        0.3071289062,        0.0957031250,       -7.5683593750,       -1.6937255859,       -5.0354003906
1494036529.5609579086,       -0.7124023438,        0.3071289062,        0.0957031250,       -7.5683593750,       -1.6937255859,       -5.0354003906
1494036529.5636429787,       -0.7124023438,        0.3071289062,        0.0957031250,       -7.6141357422,        0.3967285156,       -5.9051513672
1494036529.5661880970,       -0.7124023438,        0.3071289062,        0.1269531250,       -7.6141357422,        0.3967285156,       -5.9051513672
1494036529.5687379837,       -0.7192382812,        0.3168945312,        0.1269531250,       -7.5225830078,        2.3040771484,       -7.0343017578
1494036529.5712809563,       -0.7192382812,        0.3168945312,        0.1269531250,       -7.5225830078,        2.3040771484,       -7.0343017578
1494036529.5739200115,       -0.7192382812,        0.3168945312,        0.1269531250,       -7.5225830078,        2.9602050781,       -7.5683593750
1494036529.5766060352,       -0.7192382812,        0.3520507812,        0.1416015625,       -6.4392089844,        2.9602050781,       -7.5683593750
1494036529.5792889595,       -0.7084960938,        0.3520507812,        0.1416015625,       -6.4392089844,        4.1961669922,       -7.1868896484
1494036529.5819730759,       -0.7084960938,        0.3520507812,        0.1416015625,       -4.2114257812,        4.1961669922,       -7.1868896484
1494036529.5847630501,       -0.7084960938,        0.3520507812,        0.1416015625,       -4.2114257812,        6.2561035156,       -7.3394775391
1494036529.5873088837,       -0.7060546875,        0.3823242188,        0.1035156250,       -1.4038085938,        6.2561035156,       -7.3394775391
1494036529.5899639130,       -0.7060546875,        0.3823242188,        0.1035156250,       -1.4038085938,        6.2561035156,       -8.5296630859
1494036529.5928969383,       -0.7060546875,        0.3823242188,        0.1035156250,        1.0528564453,        7.4005126953,       -8.5296630859
1494036529.5954499245,       -0.7060546875,        0.3823242188,        0.1035156250,        1.0528564453,       11.3067626953,      -10.2081298828
1494036529.5980041027,       -0.6894531250,        0.3955078125,        0.0581054688,        3.2806396484,        8.5449218750,      -10.2081298828
1494036529.6005599499,       -0.6894531250,        0.3955078125,        0.0581054688,        3.2806396484,        8.5449218750,      -11.0168457031
1494036529.6031150818,       -0.6894531250,        0.3955078125,        0.0581054688,        4.5013427734,        8.4075927734,      -11.0168457031
1494036529.6058139801,       -0.6894531250,        0.3955078125,        0.0581054688,        4.5013427734,        8.4075927734,      -14.9230957031
1494036529.6085069180,       -0.6933593750,        0.3579101562,        0.0048828125,        5.7830810547,        8.5296630859,      -11.7492675781
1494036529.6111938953,       -0.6933593750,        0.3579101562,        0.0048828125,        5.7830810547,        8.5296630859,      -11.7492675781
1494036529.6139810085,       -0.6933593750,        0.3579101562,        0.0048828125,        5.8288574219,        9.3688964844,      -12.7868652344
1494036529.6165349483,       -0.6933593750,        0.3579101562,       -0.0180664062,        5.8288574219,        9.3688964844,      -12.7868652344
1494036529.6190860271,       -0.6875000000,        0.3764648438,       -0.0180664062,        4.0283203125,        9.5214843750,      -13.6718750000
1494036529.6216390133,       -0.6875000000,        0.3764648438,       -0.0180664062,        4.0283203125,        9.5214843750,      -13.6718750000
1494036529.6242370605,       -0.6875000000,        0.3764648438,       -0.0180664062,        0.4730224609,        8.7432861328,      -14.0533447266
1494036529.6267929077,       -0.6875000000,        0.2514648438,       -0.0371093750,        0.4730224609,        8.7432861328,      -14.0533447266
1494036529.6293480396,       -0.6845703125,        0.3442382812,       -0.0371093750,       -1.7089843750,        7.9956054688,      -15.1672363281
1494036529.6318979263,       -0.6845703125,        0.3442382812,       -0.0371093750,       -1.7089843750,        7.9956054688,      -15.1672363281
1494036529.6345770359,       -0.6845703125,        0.3442382812,       -0.0371093750,       -2.4719238281,        7.3089599609,      -16.4489746094
1494036529.6371281147,       -0.6845703125,        0.3457031250,       -0.0493164062,       -2.4719238281,        7.3089599609,      -16.4489746094
1494036529.6396780014,       -0.6835937500,        0.3457031250,       -0.0493164062,       -4.2572021484,        5.9509277344,      -17.3950195312
1494036529.6422328949,       -0.6835937500,        0.3457031250,       -0.0493164062,       -4.2572021484,        5.9509277344,      -17.3950195312
1494036529.6450219154,       -0.6835937500,        0.3457031250,       -0.0493164062,       -6.2561035156,        4.9285888672,      -17.9290771484
1494036529.6477160454,       -0.6660156250,        0.3593750000,       -0.0434570312,       -6.2561035156,        4.9285888672,      -17.9290771484
1494036529.6504070759,       -0.6660156250,        0.3593750000,       -0.0434570312,       -8.3160400391,        3.5705566406,      -19.1497802734
1494036529.6531040668,       -0.6660156250,        0.3593750000,       -0.0434570312,       -8.3160400391,        3.5705566406,      -19.1497802734
1494036529.6558020115,       -0.6660156250,        0.3593750000,       -0.0434570312,       -8.5296630859,        2.0141601562,      -20.5230712891
1494036529.6584889889,       -0.6572265625,        0.3671875000,       -0.0468750000,       -8.5296630859,        2.0141601562,      -20.5230712891
1494036529.6611831188,       -0.6572265625,        0.3671875000,       -0.0468750000,       -8.7127685547,        0.8087158203,      -21.6217041016
1494036529.6638579369,       -0.6572265625,        0.3671875000,       -0.0468750000,       -8.7127685547,        0.8087158203,      -21.6217041016
1494036529.6664140224,       -0.6572265625,        0.3671875000,       -0.0468750000,       -8.7127685547,       -0.6256103516,      -23.5290527344
1494036529.6689679623,       -0.6518554688,        0.3691406250,       -0.0180664062,       -9.3536376953,       -0.6256103516,      -23.5290527344
1494036529.6715219021,       -0.6518554688,        0.3691406250,       -0.0180664062,       -9.3536376953,       -0.6256103516,      -25.5279541016
1494036529.6741399765,       -0.6518554688,        0.3691406250,       -0.0180664062,       -9.0942382812,       -2.1820068359,      -25.5279541016
1494036529.6768319607,       -0.6518554688,        0.3691406250,        0.1069335938,       -9.0942382812,       -2.1820068359,      -27.9083251953
1494036529.6795220375,       -0.6298828125,        0.3779296875,        0.0034179688,       -7.5836181641,       -4.2724609375,      -27.9083251953
1494036529.6822121143,       -0.6298828125,        0.3779296875,        0.0034179688,       -7.5836181641,       -4.2724609375,      -29.9224853516
1494036529.6849451065,       -0.6298828125,        0.3779296875,        0.0034179688,       -5.3710937500,       -6.7291259766,      -29.9224853516
1494036529.6877400875,       -0.6298828125,        0.3842773438,        0.0112304688,       -5.3710937500,       -6.7291259766,      -31.5704345703
1494036529.6904299259,       -0.6484375000,        0.3842773438,        0.0112304688,       -2.4261474609,       -7.3089599609,      -31.5704345703
1494036529.6931231022,       -0.6484375000,        0.3842773438,        0.0112304688,       -2.4261474609,       -7.3089599609,      -32.8369140625
1494036529.6958160400,       -0.6484375000,        0.3842773438,        0.0112304688,        0.7629394531,       -8.7585449219,      -32.8369140625
1494036529.6985070705,       -0.6645507812,        0.3588867188,       -0.0043945312,        0.7629394531,       -8.7585449219,      -33.7829589844
1494036529.7012789249,       -0.6645507812,        0.3588867188,       -0.0043945312,        3.2196044922,      -10.6811523438,      -33.7829589844
1494036529.7043769360,       -0.6645507812,        0.3588867188,       -0.0043945312,        3.2196044922,      -10.6811523438,      -34.9426269531
1494036529.7070739269,       -0.6645507812,        0.3588867188,       -0.0043945312,        4.5166015625,      -11.6271972656,      -34.9426269531
1494036529.7097699642,       -0.6894531250,        0.3315429688,       -0.0087890625,        4.5166015625,      -11.6271972656,      -35.6140136719
1494036529.7124669552,       -0.6894531250,        0.3315429688,       -0.0087890625,        5.2490234375,      -11.3983154297,      -35.6140136719
1494036529.7150790691,       -0.6894531250,        0.3315429688,       -0.0087890625,        5.2490234375,      -11.3983154297,      -35.9954833984
1494036529.7176349163,       -0.6894531250,        0.3315429688,        0.0068359375,        6.4086914062,      -11.0015869141,      -35.9954833984
1494036529.7201869488,       -0.7026367188,        0.3217773438,        0.0068359375,        6.4086914062,      -11.0015869141,      -35.9954833984
1494036529.7227458954,       -0.7026367188,        0.3217773438,        0.0068359375,        6.2561035156,      -10.9252929688,      -36.4837646484
1494036529.7254700661,       -0.7026367188,        0.3217773438,        0.0068359375,        6.2561035156,      -10.9252929688,      -36.4837646484
1494036529.7281649113,       -0.7026367188,        0.3334960938,        0.0292968750,        5.4016113281,      -11.0626220703,      -36.7431640625
1494036529.7308580875,       -0.6708984375,        0.3334960938,        0.0292968750,        5.4016113281,      -11.0626220703,      -36.7431640625
1494036529.7335529327,       -0.6708984375,        0.3334960938,        0.0292968750,        5.2032470703,      -10.4675292969,      -37.2924804688
1494036529.7361099720,       -0.6708984375,        0.3334960938,        0.0292968750,        5.2032470703,      -10.4675292969,      -37.2924804688
1494036529.7386670113,       -0.6645507812,        0.3383789062,        0.0444335938,        5.9051513672,      -10.3759765625,      -38.1164550781
1494036529.7412250042,       -0.6645507812,        0.3383789062,        0.0444335938,        5.9051513672,      -10.3759765625,      -38.1164550781
1494036529.7437810898,       -0.6645507812,        0.3383789062,        0.0444335938,        7.3089599609,      -10.3759765625,      -38.2690429688
1494036529.7463319302,       -0.6645507812,        0.3383789062,        0.0444335938,        7.3089599609,      -10.3759765625,      -38.2690429688
1494036529.7488849163,       -0.6723632812,        0.3051757812,        0.0297851562,        8.1329345703,      -10.2233886719,      -38.2385253906
1494036529.7514369488,       -0.6723632812,        0.3051757812,        0.0297851562,        8.1329345703,      -10.2233886719,      -38.2385253906
1494036529.7541608810,       -0.6723632812,        0.3051757812,        0.0297851562,        8.2397460938,       -9.2468261719,      -37.9486083984
1494036529.7567160130,       -0.6723632812,        0.3051757812,        0.0297851562,        8.2397460938,       -9.2468261719,      -37.9486083984
1494036529.7592680454,       -0.7036132812,        0.2749023438,        0.0419921875,        7.9193115234,       -8.2397460938,      -37.7349853516
1494036529.7619299889,       -0.7036132812,        0.2749023438,        0.0419921875,        7.9193115234,       -8.2397460938,      -37.7349853516
1494036529.7645831108,       -0.7036132812,        0.2749023438,        0.0419921875,        4.0130615234,       -7.4310302734,      -37.4908447266
1494036529.7671380043,       -0.7036132812,        0.2749023438,        0.0419921875,        6.7901611328,       -7.4310302734,      -37.4908447266
1494036529.7696909904,       -0.7089843750,        0.2524414062,        0.0493164062,        6.7901611328,       -7.4310302734,      -37.3077392578
1494036529.7722411156,       -0.7089843750,        0.2524414062,        0.0493164062,        6.5917968750,       -7.0953369141,      -37.3077392578
1494036529.7749300003,       -0.7089843750,        0.2524414062,        0.0493164062,        6.5917968750,       -7.0953369141,      -36.4990234375
1494036529.7776238918,       -0.7089843750,        0.2524414062,        0.0493164062,        5.9356689453,       -6.8511962891,      -36.4990234375
1494036529.7803120613,       -0.7075195312,        0.2387695312,        0.0493164062,        5.9356689453,       -6.8511962891,      -36.1938476562
1494036529.7829990387,       -0.7075195312,        0.2387695312,        0.0493164062,        5.5389404297,       -6.4392089844,      -36.1938476562
1494036529.7856969833,       -0.7075195312,        0.2387695312,        0.0493164062,        5.5389404297,       -6.4392089844,      -36.0717773438
1494036529.7883799076,       -0.7075195312,        0.2387695312,        0.0566406250,        5.2185058594,       -6.0424804688,      -36.0717773438
1494036529.7910680771,       -0.7006835938,        0.2465820312,        0.0566406250,        5.2185058594,       -6.0424804688,      -35.9954833984
1494036529.7937619686,       -0.7006835938,        0.2465820312,        0.0566406250,        5.4016113281,       -5.9509277344,      -35.9954833984
1494036529.7964460850,       -0.7006835938,        0.2465820312,        0.0566406250,        5.4016113281,       -5.9509277344,      -36.0565185547
1494036529.7991309166,       -0.6962890625,        0.2856445312,        0.0366210938,        5.8746337891,       -6.2103271484,      -36.0565185547
1494036529.8018219471,       -0.6962890625,        0.2856445312,        0.0366210938,        5.8746337891,       -6.2103271484,      -36.0565185547
1494036529.8045229912,       -0.6962890625,        0.2856445312,        0.0366210938,        7.5531005859,       -6.4239501953,      -36.3311767578
1494036529.8072121143,       -0.6962890625,        0.2856445312,        0.0366210938,        7.5531005859,       -6.4239501953,      -36.3311767578
1494036529.8099019527,       -0.6879882812,        0.2817382812,        0.0185546875,       10.3759765625,       -6.7291259766,      -36.8347167969
1494036529.8125970364,       -0.6879882812,        0.2817382812,        0.0185546875,       10.3759765625,       -6.7291259766,      -36.8347167969
1494036529.8151960373,       -0.6879882812,        0.2817382812,        0.0185546875,       12.2680664062,       -6.9580078125,      -37.4603271484
1494036529.8177459240,       -0.6879882812,        0.2817382812,        0.0185546875,       12.2680664062,       -6.9580078125,      -37.4603271484
1494036529.8204689026,       -0.6816406250,        0.2470703125,        0.0014648438,       13.3056640625,       -7.0190429688,      -36.7584228516
1494036529.8230309486,       -0.6816406250,        0.2470703125,        0.0014648438,       13.3056640625,       -7.0190429688,      -36.7584228516
1494036529.8259799480,       -0.6816406250,        0.2470703125,        0.0014648438,       12.6800537109,       -6.8054199219,      -35.6903076172
1494036529.8286809921,       -0.6816406250,        0.2470703125,        0.0146484375,       12.6800537109,       -6.8054199219,      -35.6903076172
1494036529.8313770294,       -0.7031250000,        0.1826171875,        0.0146484375,       11.3372802734,       -6.5765380859,      -35.0036621094
1494036529.8341960907,       -0.7031250000,        0.1826171875,        0.0146484375,       11.3372802734,       -6.5765380859,      -35.0036621094
1494036529.8368918896,       -0.7031250000,        0.1826171875,        0.0146484375,        8.7585449219,       -6.1187744141,      -34.1033935547
1494036529.8395879269,       -0.7270507812,        0.1606445312,        0.0268554688,        8.7585449219,       -6.1187744141,      -34.1033935547
1494036529.8422760963,       -0.7270507812,        0.1606445312,        0.0268554688,        5.9051513672,       -5.5694580078,      -32.5317382812
1494036529.8449749947,       -0.7270507812,        0.1606445312,        0.0268554688,        5.9051513672,       -5.5694580078,      -32.5317382812
1494036529.8476719856,       -0.7270507812,        0.1606445312,        0.0268554688,        2.1820068359,       -5.0506591797,      -31.2347412109
1494036529.8503620625,       -0.7119140625,        0.1923828125,        0.0390625000,        2.1820068359,       -5.0506591797,      -31.2347412109
1494036529.8530499935,       -0.7119140625,        0.1923828125,        0.0390625000,        0.4577636719,       -4.9133300781,      -29.7393798828
1494036529.8556249142,       -0.7119140625,        0.1923828125,        0.0390625000,        0.4577636719,       -4.9133300781,      -29.7393798828
1494036529.8581709862,       -0.7119140625,        0.1923828125,        0.0390625000,        0.4272460938,       -4.4250488281,      -28.1677246094
1494036529.8607230186,       -0.7231445312,        0.2163085938,        0.0380859375,        0.4272460938,       -4.4250488281,      -28.1677246094
1494036529.8632690907,       -0.7231445312,        0.2163085938,        0.0380859375,        1.1596679688,       -4.1656494141,      -26.8554687500
1494036529.8658189774,       -0.7231445312,        0.2163085938,        0.0380859375,        1.1596679688,       -4.1656494141,      -26.8554687500
1494036529.8683660030,       -0.7231445312,        0.2163085938,        0.0380859375,        2.7618408203,       -4.0435791016,      -25.2227783203
1494036529.8709120750,       -0.7124023438,        0.2041015625,        0.0512695312,        2.7618408203,       -4.0435791016,      -25.2227783203
1494036529.8736250401,       -0.7124023438,        0.2041015625,        0.0512695312,        4.6539306641,       -3.8452148438,      -23.7274169922
1494036529.8761789799,       -0.7124023438,        0.2041015625,        0.0512695312,        4.6539306641,       -3.8452148438,      -23.7274169922
1494036529.8787319660,       -0.7124023438,        0.2041015625,        0.0512695312,        4.6539306641,       -4.2419433594,      -22.3846435547
1494036529.8812808990,       -0.7104492188,        0.2045898438,        0.0722656250,        6.8359375000,       -4.2419433594,      -22.3846435547
1494036529.8840100765,       -0.7104492188,        0.2045898438,        0.0722656250,        6.8359375000,       -4.2419433594,      -20.7519531250
1494036529.8867039680,       -0.7104492188,        0.2045898438,        0.0722656250,        9.6435546875,       -4.6234130859,      -20.7519531250
1494036529.8893909454,       -0.7104492188,        0.1962890625,        0.0576171875,        9.6435546875,       -4.6234130859,      -18.8598632812
1494036529.8920838833,       -0.7216796875,        0.1962890625,        0.0576171875,       12.0544433594,       -4.9133300781,      -18.8598632812
1494036529.8947830200,       -0.7216796875,        0.1962890625,        0.0576171875,       12.0544433594,       -4.9133300781,      -16.2200927734
1494036529.8974800110,       -0.7216796875,        0.1962890625,        0.0576171875,       14.1601562500,       -4.6691894531,      -16.2200927734
1494036529.9001739025,       -0.7246093750,        0.1542968750,        0.0332031250,       14.1601562500,       -4.6691894531,      -13.5040283203
1494036529.9028699398,       -0.7246093750,        0.1542968750,        0.0332031250,       15.5639648438,       -4.5928955078,      -13.5040283203
1494036529.9055719376,       -0.7246093750,        0.1542968750,        0.0332031250,       15.5639648438,       -4.5928955078,      -11.1389160156
1494036529.9083778858,       -0.7246093750,        0.1542968750,        0.0332031250,       15.6250000000,       -4.6539306641,      -11.1389160156
1494036529.9110810757,       -0.7148437500,        0.1367187500,        0.0146484375,       15.6250000000,       -4.6539306641,       -8.5144042969
1494036529.9137570858,       -0.7148437500,        0.1367187500,        0.0146484375,       14.4348144531,       -4.2877197266,       -8.5144042969
1494036529.9163029194,       -0.7148437500,        0.1367187500,        0.0146484375,       14.4348144531,       -4.2877197266,       -5.7983398438
1494036529.9188530445,       -0.7148437500,        0.1367187500,        0.0146484375,       12.3901367188,       -3.9978027344,       -5.7983398438
1494036529.9213991165,       -0.7299804688,        0.1850585938,        0.0234375000,       12.3901367188,       -3.9978027344,       -5.7983398438
1494036529.9239969254,       -0.7299804688,        0.1850585938,        0.0234375000,       11.0015869141,       -4.5318603516,       -3.2806396484
1494036529.9266889095,       -0.7299804688,        0.1850585938,        0.0234375000,       11.0015869141,       -4.5318603516,       -3.2806396484
1494036529.9293870926,       -0.7299804688,        0.1850585938,        0.0288085938,       11.3525390625,       -5.1116943359,       -1.1291503906
1494036529.9320800304,       -0.7299804688,        0.2045898438,        0.0288085938,       11.3525390625,       -5.1116943359,       -1.1291503906
1494036529.9347770214,       -0.7299804688,        0.2045898438,        0.0288085938,       12.9394531250,       -5.3710937500,        0.5493164062
1494036529.9374670982,       -0.7299804688,        0.2045898438,        0.0288085938,       12.9394531250,       -5.3710937500,        0.5493164062
1494036529.9403090477,       -0.6928710938,        0.2060546875,        0.0234375000,       16.3574218750,       -6.6070556641,        2.0751953125
1494036529.9434189796,       -0.6928710938,        0.2060546875,        0.0234375000,       16.3574218750,       -6.6070556641,        3.8299560547
1494036529.9461150169,       -0.6928710938,        0.2060546875,        0.0234375000,       19.8974609375,       -8.2397460938,        3.8299560547
1494036529.9488060474,       -0.6928710938,        0.2060546875,        0.0234375000,       19.8974609375,       -8.2397460938,        7.7362060547
1494036529.9515020847,       -0.6953125000,        0.2363281250,        0.0307617188,       22.4456787109,       -9.7198486328,        5.9509277344
1494036529.9541969299,       -0.6953125000,        0.2363281250,        0.0307617188,       22.4456787109,       -9.7198486328,        9.8571777344
1494036529.9568860531,       -0.6953125000,        0.2363281250,        0.0307617188,       24.6124267578,      -10.6506347656,        7.8125000000
1494036529.9595808983,       -0.6953125000,        0.2363281250,        0.0473632812,       24.6124267578,      -10.6506347656,        7.8125000000
1494036529.9622709751,       -0.7221679688,        0.1923828125,        0.0473632812,       26.4129638672,      -11.4593505859,        9.4909667969
1494036529.9648940563,       -0.7221679688,        0.1923828125,        0.0473632812,       26.4129638672,      -11.4593505859,        9.4909667969
1494036529.9674489498,       -0.7221679688,        0.1923828125,        0.0473632812,       28.1219482422,      -12.5427246094,       11.4746093750
1494036529.9700059891,       -0.7221679688,        0.1923828125,        0.0190429688,       28.1219482422,      -12.5427246094,       11.4746093750
1494036529.9725639820,       -0.7309570312,        0.1674804688,        0.0190429688,       28.7170410156,      -13.5498046875,       14.2059326172
1494036529.9751729965,       -0.7309570312,        0.1674804688,        0.0190429688,       28.7170410156,      -13.5498046875,       14.2059326172
1494036529.9777350426,       -0.7309570312,        0.1674804688,        0.0190429688,       27.7709960938,      -14.9383544922,       17.2424316406
1494036529.9802920818,       -0.7309570312,        0.2036132812,        0.0253906250,       27.7709960938,      -14.9383544922,       17.2424316406
1494036529.9829680920,       -0.7167968750,        0.2036132812,        0.0253906250,       27.7099609375,      -14.3737792969,       20.0805664062
1494036529.9855720997,       -0.7167968750,        0.2036132812,        0.0253906250,       27.7099609375,      -14.3737792969,       20.0805664062
1494036529.9881250858,       -0.7167968750,        0.2036132812,        0.0253906250,       27.9998779297,      -12.9852294922,       22.6593017578
1494036529.9906830788,       -0.7167968750,        0.1718750000,       -0.0219726562,       27.9998779297,      -12.9852294922,       22.6593017578
1494036529.9933209419,       -0.7329101562,        0.1718750000,       -0.0219726562,       28.7017822266,      -12.6190185547,       25.2227783203
1494036529.9958839417,       -0.7329101562,        0.1718750000,       -0.0219726562,       28.7017822266,      -12.6190185547,       25.2227783203
1494036529.9984428883,       -0.7329101562,        0.1718750000,       -0.0219726562,       28.7017822266,      -12.7105712891,       28.7170410156
1494036530.0010008812,       -0.7656250000,        0.1396484375,       -0.0581054688,       28.5034179688,      -12.7105712891,       28.7170410156
1494036530.0036909580,       -0.7656250000,        0.1396484375,       -0.0581054688,       28.5034179688,      -12.7105712891,       32.3181152344
1494036530.0062689781,       -0.7656250000,        0.1396484375,       -0.0581054688,       26.5045166016,      -13.5650634766,       32.3181152344
1494036530.0088300705,       -0.7656250000,        0.1396484375,       -0.0581054688,       26.5045166016,      -13.5650634766,       35.7513427734
1494036530.0113921165,       -0.7797851562,        0.0986328125,       -0.0698242188,       24.4293212891,      -13.5345458984,       35.7513427734
1494036530.0139949322,       -0.7797851562,        0.0986328125,       -0.0698242188,       24.4293212891,      -13.5345458984,       35.7513427734
1494036530.0166969299,       -0.7797851562,        0.0986328125,       -0.0698242188,       22.8118896484,      -13.2446289062,       38.9862060547
1494036530.0193960667,       -0.7797851562,        0.0986328125,       -0.0698242188,       22.8118896484,      -13.2446289062,       42.8924560547
1494036530.0220909119,       -0.7485351562,        0.1450195312,       -0.0483398438,       20.0195312500,      -13.2598876953,       41.9311523438
1494036530.0247890949,       -0.7485351562,        0.1450195312,       -0.0483398438,       20.0195312500,      -13.2598876953,       41.9311523438
1494036530.0274860859,       -0.7485351562,        0.1450195312,       -0.0483398438,       16.8609619141,      -13.0767822266,       44.5556640625
1494036530.0301909447,       -0.7485351562,        0.1450195312,        0.0019531250,       16.8609619141,      -13.0767822266,       44.5556640625
1494036530.0328879356,       -0.7446289062,        0.2216796875,        0.0019531250,       13.9923095703,      -12.7868652344,       46.8444824219
1494036530.0355908871,       -0.7446289062,        0.2216796875,        0.0019531250,       13.9923095703,      -12.7868652344,       46.8444824219
1494036530.0382900238,       -0.7446289062,        0.2216796875,        0.0019531250,       13.3056640625,      -12.6953125000,       48.0041503906
1494036530.0409910679,       -0.7446289062,        0.2460937500,        0.0380859375,       13.3056640625,      -12.6953125000,       48.0041503906
1494036530.0436959267,       -0.7500000000,        0.2460937500,        0.0380859375,       15.1214599609,      -13.1835937500,       48.7976074219
1494036530.0463991165,       -0.7500000000,        0.2460937500,        0.0380859375,       15.1214599609,      -13.1835937500,       48.7976074219
1494036530.0490920544,       -0.7500000000,        0.2460937500,        0.0380859375,       16.4489746094,      -14.0228271484,       50.3997802734
1494036530.0517919064,       -0.7602539062,        0.1914062500,        0.0395507812,       16.4489746094,      -14.0228271484,       50.3997802734
1494036530.0545470715,       -0.7602539062,        0.1914062500,        0.0395507812,       19.4549560547,      -13.5498046875,       51.2542724609
1494036530.0571019650,       -0.7602539062,        0.1914062500,        0.0395507812,       19.4549560547,      -13.5498046875,       51.2542724609
1494036530.0597391129,       -0.7602539062,        0.1914062500,        0.0395507812,       21.5759277344,      -12.1459960938,       51.1474609375
1494036530.0624029636,       -0.8017578125,        0.2128906250,        0.0322265625,       21.5759277344,      -12.1459960938,       51.1474609375
1494036530.0655040741,       -0.8017578125,        0.2128906250,        0.0322265625,       20.5535888672,       -9.9792480469,       51.5136718750
1494036530.0682089329,       -0.8017578125,        0.2128906250,        0.0322265625,       20.5535888672,       -9.9792480469,       51.5136718750
1494036530.0709021091,       -0.8017578125,        0.3378906250,        0.0825195312,       22.5524902344,       -6.9732666016,       51.0406494141
1494036530.0736000538,       -0.8188476562,        0.2954101562,        0.0825195312,       22.5524902344,       -6.9732666016,       51.0406494141
1494036530.0762979984,       -0.8188476562,        0.2954101562,        0.0825195312,       22.0184326172,       -4.9896240234,       49.4232177734
1494036530.0789840221,       -0.8188476562,        0.2954101562,        0.0825195312,       22.0184326172,       -4.9896240234,       49.4232177734
1494036530.0816779137,       -0.7548828125,        0.3759765625,        0.1064453125,       20.6298828125,       -5.6152343750,       47.3327636719
1494036530.0843830109,       -0.7548828125,        0.3759765625,        0.1064453125,       20.6298828125,       -5.6152343750,       47.3327636719
1494036530.0870749950,       -0.7548828125,        0.3759765625,        0.1064453125,       22.9187011719,       -5.4321289062,       43.7316894531
1494036530.0897738934,       -0.7548828125,        0.3759765625,        0.1064453125,       22.9187011719,       -5.4321289062,       43.7316894531
1494036530.0924699306,       -0.7387695312,        0.4511718750,        0.0952148438,       25.0091552734,       -4.1046142578,       40.1153564453
1494036530.0950820446,       -0.7387695312,        0.4511718750,        0.0952148438,       25.0091552734,       -4.1046142578,       40.1153564453
1494036530.0976359844,       -0.7387695312,        0.4511718750,        0.0952148438,       28.0151367188,       -2.0446777344,       35.8886718750
1494036530.1001920700,       -0.7387695312,        0.4511718750,        0.0952148438,       28.0151367188,       -2.0446777344,       35.8886718750
1494036530.1027450562,       -0.7695312500,        0.4687500000,        0.0371093750,       31.2194824219,       -0.4882812500,       32.0281982422
1494036530.1053531170,       -0.7695312500,        0.4687500000,        0.0371093750,       31.2194824219,       -0.4882812500,       32.0281982422
1494036530.1079111099,       -0.7695312500,        0.4687500000,        0.0371093750,       34.2712402344,        2.3803710938,       27.7404785156
1494036530.1104691029,       -0.7695312500,        0.4687500000,        0.0371093750,       34.2712402344,        2.3803710938,       27.7404785156
1494036530.1130230427,       -0.8359375000,        0.3745117188,        0.0805664062,       36.0260009766,        6.5612792969,       22.5677490234
1494036530.1157059669,       -0.8359375000,        0.3745117188,        0.0805664062,       36.0260009766,        6.5612792969,       22.5677490234
1494036530.1182620525,       -0.8359375000,        0.3745117188,        0.0805664062,       36.0260009766,        9.6435546875,       18.2952880859
1494036530.1208178997,       -0.8359375000,        0.3745117188,        0.0805664062,       32.7301025391,        9.6435546875,       18.2952880859
1494036530.1235480309,       -0.8525390625,        0.4423828125,        0.0483398438,       32.7301025391,       11.0626220703,       14.1601562500
1494036530.1262469292,       -0.8525390625,        0.4423828125,        0.0483398438,       28.5797119141,       11.0626220703,       14.1601562500
1494036530.1290829182,       -0.8525390625,        0.4423828125,        0.0483398438,       28.5797119141,       11.6577148438,        9.8876953125
1494036530.1317780018,       -0.9775390625,        0.4799804688,        0.0029296875,       26.0467529297,       11.6577148438,        9.8876953125
1494036530.1344809532,       -0.9331054688,        0.4799804688,        0.0029296875,       26.0467529297,       12.4206542969,        5.4168701172
1494036530.1371738911,       -0.9331054688,        0.4799804688,        0.0029296875,       27.0843505859,       12.4206542969,        5.4168701172
1494036530.1398649216,       -0.9331054688,        0.4799804688,        0.0029296875,       27.0843505859,       12.1765136719,        1.3427734375
1494036530.1425590515,       -0.9907226562,        0.4702148438,       -0.0019531250,       33.8287353516,       12.1765136719,        1.3427734375
1494036530.1452989578,       -0.9907226562,        0.4702148438,       -0.0019531250,       33.8287353516,        8.2702636719,       -1.5258789062
1494036530.1479868889,       -0.9907226562,        0.4702148438,       -0.0019531250,       41.2445068359,        9.6282958984,       -1.5258789062
1494036530.1506719589,       -0.9907226562,        0.4702148438,       -0.0019531250,       41.2445068359,        9.6282958984,       -3.3569335938
1494036530.1533980370,       -1.0766601562,        0.4375000000,        0.0239257812,       47.4243164062,        8.4228515625,       -3.3569335938
1494036530.1559429169,       -1.0766601562,        0.4375000000,        0.0239257812,       47.4243164062,        8.4228515625,       -5.3100585938
1494036530.1584908962,       -1.0766601562,        0.4375000000,        0.0239257812,       53.7719726562,        5.0811767578,       -5.3100585938
1494036530.1610329151,       -1.0766601562,        0.4375000000,        0.0239257812,       53.7719726562,        5.0811767578,       -5.3100585938
1494036530.1636059284,       -1.1962890625,        0.3281250000,        0.1215820312,       60.3332519531,        1.5716552734,       -7.9650878906
1494036530.1662950516,       -1.1962890625,        0.3281250000,        0.1215820312,       60.3332519531,        1.5716552734,       -7.9650878906
1494036530.1689898968,       -1.1962890625,        0.3281250000,        0.1215820312,       65.1397705078,       -0.3814697266,       -9.4146728516
1494036530.1716840267,       -1.1962890625,        0.2031250000,        0.0957031250,       65.1397705078,       -0.3814697266,       -9.4146728516
1494036530.1743841171,       -1.2929687500,        0.2045898438,        0.0957031250,       70.8923339844,       -1.0528564453,      -11.8103027344
1494036530.1770789623,       -1.2929687500,        0.2045898438,        0.0957031250,       70.8923339844,       -1.0528564453,      -11.8103027344
1494036530.1799390316,       -1.2929687500,        0.2045898438,        0.0957031250,       76.6754150391,       -2.1972656250,      -13.5040283203
1494036530.1826300621,       -1.2368164062,        0.2597656250,        0.0654296875,       76.6754150391,       -2.1972656250,      -13.5498046875
1494036530.1856689453,       -1.2368164062,        0.2597656250,        0.0654296875,       83.6639404297,       -4.0588378906,      -13.5498046875
1494036530.1883680820,       -1.2368164062,        0.2597656250,        0.0654296875,       83.6639404297,       -4.0588378906,      -13.2446289062
1494036530.1910669804,       -1.2368164062,        0.2597656250,        0.0654296875,       91.2170410156,       -4.7454833984,      -13.2446289062
1494036530.1937780380,       -1.1811523438,        0.1816406250,       -0.0263671875,       91.2170410156,       -4.7454833984,      -12.7410888672
1494036530.1964750290,       -1.1811523438,        0.1816406250,       -0.0263671875,       98.4954833984,       -4.7912597656,      -12.7410888672
1494036530.1991748810,       -1.1811523438,        0.1816406250,       -0.0263671875,       98.4954833984,       -4.7912597656,      -12.7410888672
1494036530.2018699646,       -1.1811523438,        0.1816406250,       -0.0068359375,      105.2551269531,       -5.1727294922,      -12.1154785156
1494036530.2046298981,       -1.1552734375,        0.0273437500,       -0.0068359375,      105.2551269531,       -5.1727294922,       -8.2092285156
1494036530.2071819305,       -1.1552734375,        0.0273437500,       -0.0068359375,      109.2071533203,       -5.9356689453,      -11.4746093750
1494036530.2097380161,       -1.1552734375,        0.0273437500,       -0.0068359375,      109.2071533203,       -5.9356689453,      -11.4746093750
1494036530.2122910023,       -1.1552734375,       -0.0878906250,       -0.0532226562,      109.9395751953,       -6.4697265625,      -10.1623535156
1494036530.2148599625,       -1.1606445312,       -0.0878906250,       -0.0532226562,      109.9395751953,       -6.4697265625,      -10.1623535156
1494036530.2174179554,       -1.1606445312,       -0.0878906250,       -0.0532226562,      105.9722900391,       -5.8135986328,       -9.4604492188
1494036530.2199699879,       -1.1606445312,       -0.0878906250,       -0.0532226562,      105.9722900391,       -5.8135986328,       -9.4604492188
1494036530.2225220203,       -1.1606445312,       -0.1938476562,       -0.0747070312,       98.8464355469,       -4.3640136719,       -8.2244873047
1494036530.2250790596,       -1.1469726562,       -0.1938476562,       -0.0747070312,       98.8464355469,       -4.3640136719,       -8.2244873047
1494036530.2276320457,       -1.1469726562,       -0.1938476562,       -0.0747070312,       90.9881591797,       -1.7242431641,       -6.4086914062
1494036530.2301890850,       -1.1469726562,       -0.1938476562,       -0.0747070312,       90.9881591797,       -1.7242431641,       -6.4086914062
1494036530.2327370644,       -1.0219726562,       -0.2685546875,        0.0209960938,       79.2694091797,        0.5187988281,       -2.0294189453
1494036530.2353320122,       -1.0620117188,       -0.2685546875,        0.0209960938,       80.3985595703,        0.5187988281,       -2.0294189453
1494036530.2378830910,       -1.0620117188,       -0.2685546875,        0.0209960938,       80.3985595703,        0.5187988281,        3.7384033203
1494036530.2404310703,       -1.0620117188,       -0.2685546875,        0.0209960938,       64.6209716797,        2.9449462891,        3.7384033203
1494036530.2429850101,       -1.0039062500,       -0.2202148438,        0.0571289062,       64.6209716797,       10.7574462891,       11.3220214844
1494036530.2458100319,       -1.0039062500,       -0.2202148438,        0.0571289062,       40.4052734375,        7.9650878906,       11.3220214844
1494036530.2485039234,       -1.0039062500,       -0.2202148438,        0.0571289062,       40.4052734375,        7.9650878906,       22.2930908203
1494036530.2512030602,       -1.0039062500,       -0.2202148438,        0.0571289062,       12.9241943359,       13.7481689453,       22.2930908203
1494036530.2538850307,       -0.9438476562,        0.1088867188,        0.1401367188,       12.9241943359,       13.7481689453,       38.6047363281
1494036530.2564420700,       -0.9438476562,        0.1088867188,        0.1401367188,      -11.3983154297,       16.9525146484,       38.6047363281
1494036530.2589969635,       -0.9438476562,        0.1088867188,        0.1401367188,      -11.3983154297,       16.9525146484,       38.6047363281
1494036530.2615540028,       -0.9438476562,        0.1088867188,        0.1401367188,      -32.2570800781,       15.7775878906,       59.5855712891
1494036530.2641758919,       -0.9541015625,        0.7392578125,        0.2993164062,      -32.2570800781,       15.7775878906,       59.5855712891
1494036530.2668700218,       -0.9541015625,        0.7392578125,        0.2993164062,      -49.8352050781,       12.7258300781,       83.8012695312
1494036530.2695679665,       -0.9541015625,        0.7392578125,        0.2993164062,      -49.8352050781,       12.7258300781,       83.8012695312
1494036530.2722640038,       -0.9541015625,        0.7392578125,        0.3662109375,      -59.3872070312,        7.3852539062,      109.8632812500
1494036530.2750790119,       -1.1147460938,        1.1333007812,        0.3662109375,      -59.3872070312,        7.3852539062,      109.8632812500
1494036530.2777750492,       -1.1147460938,        1.1333007812,        0.3662109375,      -55.0537109375,        3.2196044922,      138.3666992188
1494036530.2804620266,       -1.1147460938,        1.1333007812,        0.3662109375,      -55.0537109375,        3.2196044922,      138.3666992188
1494036530.2832000256,       -1.3647460938,        1.5527343750,        0.2451171875,      -44.5404052734,        2.0446777344,      168.0908203125
1494036530.2858910561,       -1.2744140625,        1.5527343750,        0.2451171875,      -44.5404052734,        2.0446777344,      168.0908203125
1494036530.2885808945,       -1.2744140625,        1.5527343750,        0.2451171875,      -29.1442871094,       -3.3721923828,      192.9931640625
1494036530.2912740707,       -1.2744140625,        1.5527343750,        0.2451171875,      -29.1442871094,       -3.3721923828,      192.9931640625
1494036530.2939751148,       -1.4121093750,        1.5048828125,        0.2944335938,       -4.1046142578,      -12.8936767578,      209.3353271484
1494036530.2966659069,       -1.4121093750,        1.5048828125,        0.2944335938,       -4.1046142578,      -12.8936767578,      209.3353271484
1494036530.2994029522,       -1.4121093750,        1.5048828125,        0.2944335938,       24.3530273438,      -20.8435058594,      219.7265625000
1494036530.3021759987,       -1.4121093750,        1.5048828125,        0.2944335938,       24.3530273438,      -20.8435058594,      219.7265625000
1494036530.3050329685,       -1.6704101562,        1.1611328125,        0.1425781250,       50.6896972656,      -23.0865478516,      229.3090820312
1494036530.3075919151,       -1.6704101562,        1.1611328125,        0.1425781250,       50.6896972656,      -23.0865478516,      229.3090820312
1494036530.3101489544,       -1.6704101562,        1.1611328125,        0.1425781250,       66.5283203125,      -20.7824707031,      242.0654296875
1494036530.3127079010,       -1.6704101562,        1.1611328125,        0.0673828125,       66.5283203125,      -20.7824707031,      242.0654296875
1494036530.3153920174,       -1.6591796875,        0.8769531250,        0.0673828125,       64.1326904297,      -17.0288085938,      254.4860839844
1494036530.3180909157,       -1.6591796875,        0.8769531250,        0.0673828125,       64.1326904297,      -17.0288085938,      254.4860839844
1494036530.3207879066,       -1.6591796875,        0.8769531250,        0.0673828125,       49.1333007812,      -11.9476318359,      260.1623535156
1494036530.3234949112,       -1.6591796875,        0.4619140625,        0.0629882812,       49.1333007812,      -11.9476318359,      260.1623535156
1494036530.3261909485,       -1.6464843750,        0.4619140625,        0.0629882812,       32.9589843750,       -6.0882568359,      258.6822509766
1494036530.3288829327,       -1.6464843750,        0.4619140625,        0.0629882812,       32.9589843750,       -6.0882568359,      258.6822509766
1494036530.3315739632,       -1.6464843750,        0.4619140625,        0.0629882812,       21.6217041016,        0.0762939453,      254.4403076172
1494036530.3342330456,       -1.5883789062,        0.2753906250,       -0.0297851562,       21.6217041016,        0.0762939453,      254.4403076172
1494036530.3367850780,       -1.5883789062,        0.2753906250,       -0.0297851562,       12.5732421875,        4.0893554688,      251.0528564453
1494036530.3393330574,       -1.5883789062,        0.2753906250,       -0.0297851562,       12.5732421875,        4.0893554688,      251.0528564453
1494036530.3418829441,       -1.5883789062,        0.2753906250,       -0.0297851562,        1.2817382812,        7.7362060547,      247.8027343750
1494036530.3444490433,       -1.4521484375,        0.2436523438,       -0.0454101562,        1.2817382812,        7.7362060547,      247.8027343750
1494036530.3469979763,       -1.4521484375,        0.2436523438,       -0.0454101562,       -6.5307617188,       12.3596191406,      243.0114746094
1494036530.3496570587,       -1.4521484375,        0.2436523438,       -0.0454101562,       -7.2174072266,       12.3596191406,      243.0114746094
1494036530.3522140980,       -1.4521484375,        0.2436523438,       -0.0454101562,       -7.2174072266,       17.9595947266,      236.9384765625
1494036530.3549199104,       -1.3520507812,        0.2304687500,       -0.0737304688,      -14.6026611328,       17.9595947266,      236.9384765625
1494036530.3574690819,       -1.3520507812,        0.2304687500,       -0.0737304688,      -14.6026611328,       17.9595947266,      230.5450439453
1494036530.3600280285,       -1.3520507812,        0.2304687500,       -0.0737304688,      -22.0489501953,       24.5361328125,      230.5450439453
1494036530.3625800610,       -1.3520507812,        0.2304687500,       -0.0737304688,      -22.0489501953,       24.5361328125,      224.7772216797
1494036530.3653988838,       -1.2216796875,        0.2192382812,       -0.0947265625,      -33.0200195312,       28.5949707031,      224.7772216797
1494036530.3680949211,       -1.2216796875,        0.2192382812,       -0.0947265625,      -33.0200195312,       28.5949707031,      219.6807861328
1494036530.3707900047,       -1.2216796875,        0.2192382812,       -0.0947265625,      -49.2858886719,       29.3426513672,      219.6807861328
1494036530.3734970093,       -1.2216796875,        0.3442382812,       -0.1069335938,      -49.2858886719,       29.3426513672,      213.8214111328
1494036530.3761880398,       -1.0747070312,        0.2885742188,       -0.1069335938,      -66.6046142578,       28.7933349609,      213.8214111328
1494036530.3788850307,       -1.0747070312,        0.2885742188,       -0.1069335938,      -66.6046142578,       28.7933349609,      207.1838378906
1494036530.3815870285,       -1.0747070312,        0.2885742188,       -0.1069335938,      -80.5206298828,       27.2827148438,      207.1838378906
1494036530.3842959404,       -0.8784179688,        0.3647460938,       -0.0913085938,      -80.5206298828,       27.2827148438,      199.3408203125
1494036530.3869919777,       -0.8784179688,        0.3647460938,       -0.0913085938,      -90.6829833984,       24.7955322266,      199.3408203125
1494036530.3896930218,       -0.8784179688,        0.3647460938,       -0.0913085938,      -90.6829833984,       24.7955322266,      187.6220703125
1494036530.3923931122,       -0.8784179688,        0.3647460938,       -0.0913085938,      -97.5189208984,       20.8587646484,      188.4002685547
1494036530.3950979710,       -0.7016601562,        0.2368164062,       -0.0224609375,      -97.5189208984,       20.8587646484,      172.7752685547
1494036530.3977949619,       -0.7016601562,        0.2368164062,       -0.0224609375,     -101.0742187500,       16.7541503906,      173.8281250000
1494036530.4004900455,       -0.7016601562,        0.2368164062,       -0.0224609375,     -101.0742187500,       16.7541503906,      158.2031250000
1494036530.4032011032,       -0.7016601562,        0.2368164062,       -0.0224609375,      -98.5107421875,       13.2446289062,      157.5317382812
1494036530.4057629108,       -0.6250000000,       -0.0102539062,       -0.0087890625,      -98.5107421875,       13.2446289062,      157.5317382812
1494036530.4083220959,       -0.6250000000,       -0.0102539062,       -0.0087890625,      -91.3391113281,       10.7727050781,      141.7846679688
1494036530.4108800888,       -0.6250000000,       -0.0102539062,       -0.0087890625,      -91.3391113281,       10.7727050781,      141.7846679688
1494036530.4134740829,       -0.6250000000,       -0.0102539062,       -0.0087890625,      -84.1064453125,        8.2855224609,      125.6713867188
1494036530.4160280228,       -0.4985351562,       -0.2124023438,       -0.0146484375,      -84.1064453125,        8.2855224609,      125.6713867188
1494036530.4185819626,       -0.4985351562,       -0.2124023438,       -0.0146484375,      -76.6296386719,        6.3171386719,      109.3597412109
1494036530.4212150574,       -0.4985351562,       -0.2124023438,       -0.0146484375,      -76.6296386719,        6.3171386719,      109.3597412109
1494036530.4242110252,       -0.4985351562,       -0.2753906250,        0.0141601562,      -68.1610107422,        4.6691894531,       94.6655273438
1494036530.4269139767,       -0.3354492188,       -0.2753906250,        0.0141601562,      -68.1610107422,        4.6691894531,       94.6655273438
1494036530.4296131134,       -0.3354492188,       -0.2753906250,        0.0141601562,      -60.6994628906,        2.8228759766,       81.1462402344
1494036530.4323120117,       -0.3354492188,       -0.2753906250,        0.0141601562,      -60.6994628906,        2.8228759766,       81.1462402344
1494036530.4350149632,       -0.1962890625,       -0.2851562500,        0.0571289062,      -55.3436279297,        0.0000000000,       69.2901611328
1494036530.4377129078,       -0.1962890625,       -0.2851562500,        0.0571289062,      -55.3436279297,        0.0000000000,       69.2901611328
1494036530.4404070377,       -0.1962890625,       -0.2851562500,        0.0571289062,      -49.8352050781,       -4.6997070312,       56.9763183594
1494036530.4431059361,       -0.1962890625,       -0.2851562500,        0.0571289062,      -49.8352050781,       -4.6997070312,       56.9763183594
1494036530.4458088875,       -0.1772460938,       -0.2895507812,        0.0776367188,      -44.4488525391,       -8.4991455078,       44.0063476562
1494036530.4485039711,       -0.1772460938,       -0.2895507812,        0.0776367188,      -44.4488525391,       -8.4991455078,       44.0063476562
1494036530.4511940479,       -0.1772460938,       -0.2895507812,        0.0776367188,      -37.6739501953,      -11.0778808594,       31.1737060547
1494036530.4538741112,       -0.1772460938,       -0.2895507812,        0.0776367188,      -37.6739501953,      -11.0778808594,       31.1737060547
1494036530.4564299583,       -0.2041015625,       -0.2934570312,        0.0639648438,      -29.6783447266,      -12.4206542969,       17.6849365234
1494036530.4589800835,       -0.2041015625,       -0.2934570312,        0.0639648438,      -29.6783447266,      -12.4206542969,       17.6849365234
1494036530.4615359306,       -0.2041015625,       -0.2934570312,        0.0639648438,      -21.1334228516,      -13.7786865234,        5.0964355469
1494036530.4640960693,       -0.2041015625,       -0.2934570312,        0.0283203125,      -21.1334228516,      -13.7786865234,        5.0964355469
1494036530.4666509628,       -0.2153320312,       -0.2485351562,        0.0283203125,      -21.1334228516,      -14.7552490234,       -7.4005126953
1494036530.4692010880,       -0.2153320312,       -0.2485351562,        0.0283203125,      -14.2974853516,      -14.7552490234,       -7.4005126953
1494036530.4717590809,       -0.2153320312,       -0.2485351562,        0.0283203125,      -14.2974853516,      -14.7552490234,      -20.1110839844
1494036530.4744229317,       -0.2153320312,       -0.2485351562,       -0.0209960938,       -7.0495605469,      -15.3808593750,      -20.1110839844
1494036530.4769821167,       -0.2006835938,       -0.2407226562,       -0.0209960938,       -7.0495605469,      -15.3808593750,      -33.4167480469
1494036530.4795410633,       -0.2006835938,       -0.2407226562,       -0.0209960938,       -2.0294189453,      -16.0522460938,      -33.4167480469
1494036530.4820981026,       -0.2006835938,       -0.2407226562,       -0.0209960938,       -2.0294189453,      -16.0522460938,      -45.1354980469
1494036530.4848940372,       -0.2006835938,       -0.2583007812,       -0.0756835938,        2.1820068359,      -15.9454345703,      -46.4935302734
1494036530.4875929356,       -0.1796875000,       -0.2583007812,       -0.0756835938,        2.1820068359,      -15.9454345703,      -62.1185302734
1494036530.4902920723,       -0.1796875000,       -0.2583007812,       -0.0756835938,        4.8522949219,      -15.5181884766,      -59.7381591797
1494036530.4929859638,       -0.1796875000,       -0.2583007812,       -0.0756835938,        4.8522949219,      -15.5181884766,      -71.4569091797
1494036530.4958040714,       -0.1572265625,       -0.2871093750,       -0.1215820312,        5.5084228516,      -15.1367187500,      -72.9064941406
1494036530.4985060692,       -0.1572265625,       -0.2871093750,       -0.1215820312,        5.5084228516,      -15.1367187500,      -84.6252441406
1494036530.5012030602,       -0.1572265625,       -0.2871093750,       -0.1215820312,        5.0201416016,      -14.5874023438,      -85.6323242188
1494036530.5039119720,       -0.1572265625,       -0.2871093750,       -0.1215820312,        5.0201416016,      -14.5874023438,     -101.2573242188
1494036530.5066139698,       -0.1704101562,       -0.3041992188,       -0.1357421875,        2.6245117188,      -13.9007568359,      -98.6328125000
1494036530.5093109608,       -0.1704101562,       -0.3041992188,       -0.1357421875,        2.6245117188,      -13.9007568359,     -110.3515625000
1494036530.5120060444,       -0.1704101562,       -0.3041992188,       -0.1357421875,       -1.3275146484,      -11.9934082031,     -111.2976074219
1494036530.5146369934,       -0.1704101562,       -0.3041992188,       -0.1459960938,       -1.3275146484,      -11.9934082031,     -111.2976074219
1494036530.5171930790,       -0.1972656250,       -0.2832031250,       -0.1459960938,       -5.3558349609,      -10.7879638672,     -122.4365234375
1494036530.5197529793,       -0.1972656250,       -0.2832031250,       -0.1459960938,       -5.3558349609,      -10.7879638672,     -122.4365234375
1494036530.5223081112,       -0.1972656250,       -0.2832031250,       -0.1459960938,       -9.8266601562,       -8.9569091797,     -132.5531005859
1494036530.5249760151,       -0.1972656250,       -0.1582031250,       -0.1372070312,       -9.8266601562,       -8.9569091797,     -132.5531005859
1494036530.5275309086,       -0.2153320312,       -0.2192382812,       -0.1372070312,      -14.3890380859,       -7.7362060547,     -142.3034667969
1494036530.5300869942,       -0.2153320312,       -0.2192382812,       -0.1372070312,      -14.3890380859,       -7.7362060547,     -142.3034667969
1494036530.5326399803,       -0.2153320312,       -0.2192382812,       -0.1372070312,      -18.4478759766,       -7.0037841797,     -151.8249511719
1494036530.5353410244,       -0.2153320312,       -0.1416015625,       -0.0927734375,      -18.4478759766,       -7.0037841797,     -151.8249511719
1494036530.5380249023,       -0.2133789062,       -0.1416015625,       -0.0927734375,      -22.2473144531,       -5.9814453125,     -161.1633300781
1494036530.5408389568,       -0.2133789062,       -0.1416015625,       -0.0927734375,      -22.2473144531,       -5.9814453125,     -161.1633300781
1494036530.5439310074,       -0.2133789062,       -0.1416015625,       -0.0927734375,      -24.5819091797,       -5.2795410156,     -170.3796386719
1494036530.5466299057,       -0.2070312500,       -0.0625000000,       -0.0239257812,      -24.5819091797,       -5.2795410156,     -170.3796386719
1494036530.5493290424,       -0.2070312500,       -0.0625000000,       -0.0239257812,      -24.2919921875,       -4.5166015625,     -179.4433593750
1494036530.5520229340,       -0.2070312500,       -0.0625000000,       -0.0239257812,      -24.2919921875,       -4.5166015625,     -179.4433593750
1494036530.5547299385,       -0.2070312500,       -0.0625000000,        0.1010742188,      -21.6674804688,       -3.9520263672,     -187.8051757812
1494036530.5574290752,       -0.2299804688,       -0.0073242188,        0.0297851562,      -21.6674804688,       -3.9520263672,     -187.8051757812
1494036530.5601251125,       -0.2299804688,       -0.0073242188,        0.0297851562,      -16.2048339844,       -2.0599365234,     -194.6105957031
1494036530.5628199577,       -0.2299804688,       -0.0073242188,        0.0297851562,      -16.2048339844,       -2.0599365234,     -194.6105957031
1494036530.5655279160,       -0.2299804688,        0.0405273438,        0.0576171875,      -10.7727050781,       -0.6561279297,     -200.3784179688
1494036530.5682280064,       -0.2509765625,        0.0405273438,        0.0576171875,      -10.7727050781,       -0.6561279297,     -200.3784179688
1494036530.5710420609,       -0.2509765625,        0.0405273438,        0.0576171875,       -5.6457519531,       -0.2288818359,     -205.0170898438
1494036530.5737380981,       -0.2509765625,        0.0405273438,        0.0576171875,       -5.6457519531,       -0.2288818359,     -205.0170898438
1494036530.5762920380,       -0.2460937500,        0.1318359375,        0.0854492188,       -1.0528564453,        0.0915527344,     -209.4573974609
1494036530.5788459778,       -0.2460937500,        0.1318359375,        0.0854492188,       -1.0528564453,        0.0915527344,     -209.4573974609
1494036530.5814049244,       -0.2460937500,        0.1318359375,        0.0854492188,        5.1727294922,       -0.2136230469,     -213.2720947266
1494036530.5839619637,       -0.2460937500,        0.1318359375,        0.0854492188,        5.1727294922,       -0.2136230469,     -213.2720947266
1494036530.5865130424,       -0.2548828125,        0.2211914062,        0.0771484375,       12.9852294922,        0.1678466797,     -217.1630859375
1494036530.5890669823,       -0.2548828125,        0.2211914062,        0.0771484375,       12.8173828125,        0.1678466797,     -217.1630859375
1494036530.5916259289,       -0.2548828125,        0.2211914062,        0.0771484375,       12.8173828125,        0.0000000000,     -220.1995849609
1494036530.5943500996,       -0.2548828125,        0.2211914062,        0.0771484375,       21.7437744141,        0.0000000000,     -220.1995849609
1494036530.5969069004,       -0.2890625000,        0.2817382812,        0.0668945312,       21.7437744141,        0.0000000000,     -222.2900390625
1494036530.5994629860,       -0.2890625000,        0.2817382812,        0.0668945312,       31.4788818359,       -0.0610351562,     -222.2900390625
1494036530.6020219326,       -0.2890625000,        0.2817382812,        0.0668945312,       31.4788818359,       -0.0610351562,     -223.3886718750
1494036530.6047921181,       -0.2890625000,        0.2817382812,        0.0668945312,       39.7033691406,       -0.6256103516,     -223.3886718750
1494036530.6074900627,       -0.3251953125,        0.3354492188,        0.0283203125,       39.7033691406,       -0.6256103516,     -223.9990234375
1494036530.6101830006,       -0.3251953125,        0.3354492188,        0.0283203125,       44.0216064453,       -0.8850097656,     -223.9990234375
1494036530.6128818989,       -0.3251953125,        0.3354492188,        0.0283203125,       44.0216064453,       -0.8850097656,     -223.9990234375
1494036530.6154749393,       -0.3251953125,        0.3354492188,       -0.0034179688,       45.3643798828,       -1.3427734375,     -223.2208251953
1494036530.6180279255,       -0.3393554688,        0.3701171875,       -0.0034179688,       45.3643798828,       -1.3427734375,     -223.2208251953
1494036530.6205840111,       -0.3393554688,        0.3701171875,       -0.0034179688,       43.5638427734,       -1.6784667969,     -222.1374511719
1494036530.6231420040,       -0.3393554688,        0.3701171875,       -0.0034179688,       43.5638427734,       -1.6784667969,     -222.1374511719
1494036530.6258640289,       -0.3393554688,        0.4951171875,       -0.0371093750,       38.3758544922,       -1.2969970703,     -220.5505371094
1494036530.6285400391,       -0.3564453125,        0.4067382812,       -0.0371093750,       38.3758544922,       -1.2969970703,     -220.5505371094
1494036530.6312150955,       -0.3564453125,        0.4067382812,       -0.0371093750,       30.3039550781,       -0.6561279297,     -218.3227539062
1494036530.6339030266,       -0.3564453125,        0.4067382812,       -0.0371093750,       30.3039550781,       -0.6561279297,     -218.3227539062
1494036530.6365549564,       -0.4145507812,        0.4970703125,       -0.0244140625,       18.7377929688,       -0.1525878906,     -214.7216796875
1494036530.6392009258,       -0.4145507812,        0.4970703125,       -0.0244140625,       18.7377929688,       -0.1525878906,     -214.7216796875
1494036530.6418519020,       -0.4145507812,        0.4970703125,       -0.0244140625,        5.4626464844,       -0.0152587891,     -210.2355957031
1494036530.6446440220,       -0.4145507812,        0.4970703125,       -0.0244140625,        5.4626464844,       -0.0152587891,     -210.2355957031
1494036530.6472029686,       -0.4682617188,        0.6430664062,       -0.0205078125,       -7.1716308594,        0.1831054688,     -203.8879394531
1494036530.6497581005,       -0.4682617188,        0.6430664062,       -0.0205078125,       -7.1716308594,        0.1831054688,     -203.8879394531
1494036530.6523089409,       -0.4682617188,        0.6430664062,       -0.0205078125,      -18.8446044922,        0.7934570312,     -196.7315673828
1494036530.6548941135,       -0.4682617188,        0.6430664062,       -0.0205078125,      -18.8446044922,        0.7934570312,     -196.7315673828
1494036530.6574549675,       -0.5170898438,        0.7983398438,       -0.0175781250,      -29.8309326172,        1.6021728516,     -187.6525878906
1494036530.6601409912,       -0.5170898438,        0.7983398438,       -0.0175781250,      -29.8309326172,        1.6021728516,     -187.6525878906
1494036530.6627099514,       -0.5170898438,        0.7983398438,       -0.0175781250,      -40.7104492188,        3.0364990234,     -177.7343750000
1494036530.6657168865,       -0.5170898438,        0.7983398438,        0.1074218750,      -40.7104492188,        3.0364990234,     -177.7343750000
1494036530.6684188843,       -0.5380859375,        0.9443359375,        0.0068359375,      -49.3011474609,        4.9438476562,     -167.0227050781
1494036530.6711111069,       -0.5380859375,        0.9443359375,        0.0068359375,      -49.3011474609,        4.9438476562,     -167.0227050781
1494036530.6738131046,       -0.5380859375,        0.9443359375,        0.0068359375,      -54.5043945312,        7.2021484375,     -156.1126708984
1494036530.6765089035,       -0.5380859375,        1.0791015625,        0.0541992188,      -54.5043945312,        7.2021484375,     -156.1126708984
1494036530.6792030334,       -0.5053710938,        1.0791015625,        0.0541992188,      -57.9528808594,        9.4146728516,     -144.7906494141
1494036530.6818950176,       -0.5053710938,        1.0791015625,        0.0541992188,      -57.9528808594,        9.4146728516,     -144.7906494141
1494036530.6845920086,       -0.5053710938,        1.0791015625,        0.0541992188,      -59.4482421875,       10.9863281250,     -133.6059570312
1494036530.6872889996,       -0.4624023438,        1.1762695312,        0.1293945312,      -59.4482421875,       10.9863281250,     -133.6059570312
1494036530.6899809837,       -0.4624023438,        1.1762695312,        0.1293945312,      -59.2193603516,       12.1917724609,     -123.1384277344
1494036530.6926798820,       -0.4624023438,        1.1762695312,        0.1293945312,      -59.2193603516,       12.1917724609,     -123.1384277344
1494036530.6952800751,       -0.4624023438,        1.1762695312,        0.1293945312,      -59.2193603516,       12.7868652344,     -112.1520996094
1494036530.6978340149,       -0.4135742188,        1.2519531250,        0.1914062500,      -56.9000244141,       12.7868652344,     -112.1520996094
1494036530.7003951073,       -0.4135742188,        1.2519531250,        0.1914062500,      -56.9000244141,       12.7868652344,      -99.8992919922
1494036530.7029540539,       -0.4135742188,        1.2519531250,        0.1914062500,      -54.0161132812,       12.8326416016,      -99.8992919922
1494036530.7055609226,       -0.4135742188,        1.2519531250,        0.1914062500,      -54.0161132812,       12.8326416016,      -88.1805419922
1494036530.7081170082,       -0.3432617188,        1.2524414062,        0.1962890625,      -50.1098632812,       12.2222900391,      -86.6851806641
1494036530.7106769085,       -0.3432617188,        1.2524414062,        0.1962890625,      -50.1098632812,       12.2222900391,      -86.6851806641
1494036530.7133269310,       -0.3432617188,        1.2524414062,        0.1962890625,      -47.0428466797,       11.2304687500,      -73.2269287109
1494036530.7159950733,       -0.3432617188,        1.2524414062,        0.1962890625,      -47.0428466797,       11.2304687500,      -73.2269287109
1494036530.7185530663,       -0.2753906250,        1.2851562500,        0.2045898438,      -44.2352294922,       10.6201171875,      -60.6842041016
1494036530.7211079597,       -0.2753906250,        1.2851562500,        0.2045898438,      -44.2352294922,       10.6201171875,      -60.6842041016
1494036530.7238140106,       -0.2753906250,        1.2851562500,        0.2045898438,      -39.1845703125,       10.1928710938,      -48.9349365234
1494036530.7265079021,       -0.2753906250,        1.2851562500,        0.1826171875,      -39.1845703125,       10.1928710938,      -48.9349365234
1494036530.7292029858,       -0.2128906250,        1.3017578125,        0.1826171875,      -33.4167480469,        9.9029541016,      -37.7502441406
1494036530.7318959236,       -0.2128906250,        1.3017578125,        0.1826171875,      -33.4167480469,        9.9029541016,      -37.7502441406
1494036530.7345919609,       -0.2128906250,        1.3017578125,        0.1826171875,      -29.2205810547,        7.9498291016,      -27.6336669922
1494036530.7372848988,       -0.2128906250,        1.1967773438,        0.3125000000,      -29.2205810547,        7.9498291016,      -27.6336669922
1494036530.7399721146,       -0.2177734375,        1.1967773438,        0.3125000000,      -35.1409912109,        3.3874511719,      -18.5394287109
1494036530.7426669598,       -0.2177734375,        1.1967773438,        0.3125000000,      -35.1409912109,        3.3874511719,      -18.5394287109
1494036530.7452709675,       -0.2177734375,        1.1967773438,        0.3125000000,      -42.6177978516,       -1.6479492188,       -2.3193359375
1494036530.7478220463,       -0.3291015625,        1.7612304688,        0.2124023438,      -42.6177978516,       -1.6479492188,       -2.3193359375
1494036530.7503728867,       -0.3291015625,        1.7612304688,        0.2124023438,      -33.5998535156,       -2.7618408203,       24.0325927734
1494036530.7529289722,       -0.3291015625,        1.7612304688,        0.2124023438,      -33.5998535156,       -2.7618408203,       24.0325927734
1494036530.7556149960,       -0.3291015625,        1.7612304688,        0.2124023438,      -33.3404541016,       -1.1291503906,       46.1273193359
1494036530.7583110332,       -0.4184570312,        2.1083984375,        0.1210937500,      -33.3404541016,       -1.1291503906,       46.1273193359
1494036530.7610070705,       -0.4184570312,        2.1083984375,        0.1210937500,      -24.4445800781,       -0.9155273438,       64.9566650391
1494036530.7637150288,       -0.4184570312,        2.1083984375,        0.1210937500,      -24.4445800781,       -0.9155273438,       64.9566650391
1494036530.7664101124,       -0.4184570312,        2.1083984375,        0.1210937500,       -8.6975097656,       -1.9226074219,       80.5358886719
1494036530.7691020966,       -0.6254882812,        1.7509765625,       -0.0791015625,       -8.6975097656,       -1.9226074219,       80.5358886719
1494036530.7717978954,       -0.6254882812,        1.7509765625,       -0.0791015625,       -3.0517578125,        3.6315917969,       83.6334228516
1494036530.7745010853,       -0.6254882812,        1.7509765625,       -0.0791015625,       -3.0517578125,        3.6315917969,       83.6334228516
1494036530.7771990299,       -0.6254882812,        0.3759765625,       -0.2001953125,       -1.6937255859,        9.9182128906,       78.5369873047
1494036530.7800040245,       -0.9335937500,        0.4624023438,       -0.2001953125,       -1.6937255859,        9.9182128906,       78.5369873047
1494036530.7826910019,       -0.9335937500,        0.4624023438,       -0.2001953125,       -1.0986328125,       12.4053955078,       72.1893310547
1494036530.7857151031,       -0.9335937500,        0.4624023438,       -0.2001953125,       -1.0986328125,       12.4053955078,       72.1893310547
1494036530.7884120941,       -1.0249023438,       -0.4960937500,       -0.2397460938,       -2.6550292969,       15.3656005859,       63.9495849609
1494036530.7912240028,       -1.0249023438,       -0.4960937500,       -0.2397460938,       -2.6550292969,       15.3656005859,       63.9495849609
1494036530.7939109802,       -1.0249023438,       -0.4960937500,       -0.2397460938,       -7.0037841797,       18.3868408203,       56.3049316406
1494036530.7964680195,       -1.0249023438,       -0.4960937500,       -0.2397460938,       -7.0037841797,       18.3868408203,       56.3049316406
1494036530.7990250587,       -0.9096679688,       -0.6982421875,       -0.1098632812,      -13.4887695312,       17.8680419922,       52.7191162109
1494036530.8015840054,       -0.9096679688,       -0.6982421875,       -0.1098632812,      -13.4887695312,       17.8680419922,       52.7191162109
1494036530.8042039871,       -0.9096679688,       -0.6982421875,       -0.1098632812,      -17.3950195312,       15.3656005859,       54.7027587891
1494036530.8069009781,       -0.9096679688,       -0.6982421875,        0.1401367188,      -18.2495117188,       15.3656005859,       54.7027587891
1494036530.8096020222,       -0.8437500000,       -0.0400390625,        0.1420898438,      -22.1557617188,       12.9089355469,       60.8062744141
1494036530.8123068810,       -0.8437500000,       -0.0400390625,        0.1420898438,      -20.8740234375,       12.9089355469,       60.8062744141
1494036530.8149130344,       -0.8437500000,       -0.0400390625,        0.1420898438,      -20.8740234375,        9.0026855469,       65.0482177734
1494036530.8174700737,       -0.8437500000,        0.7099609375,        0.2285156250,      -23.8952636719,       11.1694335938,       65.0482177734
1494036530.8200318813,       -0.7358398438,        0.6630859375,        0.2285156250,      -23.8952636719,       11.1694335938,       61.9354248047
1494036530.8225910664,       -0.7358398438,        0.6630859375,        0.2285156250,      -27.2979736328,       10.1776123047,       61.9354248047
1494036530.8251938820,       -0.7358398438,        0.6630859375,        0.2285156250,      -27.2979736328,       10.1776123047,       54.1229248047
1494036530.8277580738,       -0.7358398438,        0.9160156250,        0.1591796875,      -30.7922363281,        8.8500976562,       54.5349121094
1494036530.8303160667,       -0.4682617188,        0.9160156250,        0.1591796875,      -30.7922363281,        8.8500976562,       54.5349121094
1494036530.8328759670,       -0.4682617188,        0.9160156250,        0.1591796875,      -31.3415527344,        7.9956054688,       47.8820800781
1494036530.8355441093,       -0.4682617188,        0.9160156250,        0.1591796875,      -31.3415527344,        7.9956054688,       47.8820800781
1494036530.8381021023,       -0.4682617188,        0.8500976562,       -0.0957031250,      -25.4058837891,        6.0272216797,       43.5333251953
1494036530.8406620026,       -0.3764648438,        0.8500976562,       -0.0957031250,      -25.4058837891,        6.0272216797,       43.5333251953
1494036530.8433079720,       -0.3764648438,        0.8500976562,       -0.0957031250,      -15.8843994141,        3.5858154297,       39.5202636719
1494036530.8458659649,       -0.3764648438,        0.8500976562,       -0.0957031250,      -15.8843994141,        3.5858154297,       39.5202636719
1494036530.8484239578,       -0.4824218750,        0.6582031250,       -0.1557617188,       -6.7596435547,        1.5563964844,       34.9121093750
1494036530.8509678841,       -0.4824218750,        0.6582031250,       -0.1557617188,       -6.7596435547,        1.5563964844,       34.9121093750
1494036530.8535439968,       -0.4824218750,        0.6582031250,       -0.1557617188,       -0.6713867188,        0.4577636719,       30.6243896484
1494036530.8562359810,       -0.4824218750,        0.6582031250,       -0.1557617188,       -0.6713867188,        0.4577636719,       30.6243896484
1494036530.8589289188,       -0.7612304688,        0.4389648438,       -0.0219726562,        3.9367675781,       -0.6408691406,       26.3214111328
1494036530.8616189957,       -0.7612304688,        0.4389648438,       -0.0219726562,        3.9367675781,       -0.6408691406,       26.3214111328
1494036530.8644330502,       -0.7612304688,        0.4389648438,       -0.0219726562,        5.6304931641,       -2.5939941406,       21.7590332031
1494036530.8671278954,       -0.7612304688,        0.4389648438,       -0.0219726562,        5.6304931641,       -2.5939941406,       21.7590332031
1494036530.8698179722,       -0.8569335938,        0.3779296875,        0.0610351562,        5.7525634766,       -4.9743652344,       18.0053710938
1494036530.8725090027,       -0.8569335938,        0.3779296875,        0.0610351562,        5.7525634766,       -4.9743652344,       18.0053710938
1494036530.8750979900,       -0.8569335938,        0.3779296875,        0.0610351562,        5.7525634766,       -6.2255859375,       15.3503417969
1494036530.8776500225,       -0.8569335938,        0.3779296875,        0.0610351562,        5.5694580078,       -6.2255859375,       15.3503417969
1494036530.8802011013,       -0.7314453125,        0.4555664062,        0.0698242188,        5.5694580078,       -6.2255859375,       11.9934082031
1494036530.8827528954,       -0.7314453125,        0.4555664062,        0.0698242188,        6.0577392578,       -6.1950683594,       11.9934082031
1494036530.8854849339,       -0.7314453125,        0.4555664062,        0.0698242188,        6.0577392578,       -6.1950683594,        7.8582763672
1494036530.8881630898,       -0.7314453125,        0.5805664062,        0.1044921875,        4.7607421875,       -5.9356689453,        7.8582763672
1494036530.8908479214,       -0.6303710938,        0.5283203125,        0.1044921875,        4.7607421875,       -5.9356689453,        2.7618408203
1494036530.8935348988,       -0.6303710938,        0.5283203125,        0.1044921875,        2.2125244141,       -5.0964355469,        2.7618408203
1494036530.8960790634,       -0.6303710938,        0.5283203125,        0.1044921875,        2.2125244141,       -5.0964355469,       -1.1444091797
1494036530.8986220360,       -0.6303710938,        0.3959960938,        0.1176757812,       -0.2288818359,       -4.4250488281,       -1.7089843750
1494036530.9013440609,       -0.5986328125,        0.3959960938,        0.1176757812,       -0.2288818359,       -4.4250488281,       -5.6152343750
1494036530.9041419029,       -0.5986328125,        0.3959960938,        0.1176757812,       -0.3662109375,       -4.1503906250,       -5.2947998047
1494036530.9068379402,       -0.5986328125,        0.3959960938,        0.1176757812,       -0.3662109375,       -4.1503906250,       -9.2010498047
1494036530.9095280170,       -0.6494140625,        0.3051757812,        0.1635742188,       -0.1983642578,       -4.1198730469,       -8.3923339844
1494036530.9122180939,       -0.6494140625,        0.3051757812,        0.1635742188,       -0.1983642578,       -4.1198730469,       -8.3923339844
1494036530.9149169922,       -0.6494140625,        0.3051757812,        0.1635742188,        1.8768310547,       -4.6997070312,      -11.4746093750
1494036530.9176039696,       -0.6494140625,        0.3051757812,        0.1635742188,        1.8768310547,       -4.6997070312,      -15.3808593750
1494036530.9202899933,       -0.7104492188,        0.3764648438,        0.1459960938,        6.3171386719,       -5.1269531250,      -13.7786865234
1494036530.9229800701,       -0.7104492188,        0.3764648438,        0.1459960938,        6.3171386719,       -5.1269531250,      -17.6849365234
1494036530.9256858826,       -0.7104492188,        0.3764648438,        0.1459960938,        9.9029541016,       -6.0424804688,      -16.1590576172
1494036530.9283790588,       -0.7104492188,        0.3764648438,        0.0830078125,        9.9029541016,       -6.0424804688,      -16.1590576172
1494036530.9310729504,       -0.6606445312,        0.4296875000,        0.0830078125,       12.8631591797,       -6.7138671875,      -18.7072753906
1494036530.9337608814,       -0.6606445312,        0.4296875000,        0.0830078125,       12.8631591797,       -6.7138671875,      -18.7072753906
1494036530.9364190102,       -0.6606445312,        0.4296875000,        0.0830078125,       14.9993896484,       -6.7138671875,      -22.6593017578
1494036530.9389770031,       -0.6606445312,        0.4023437500,        0.0888671875,       14.9993896484,       -6.7138671875,      -22.6593017578
1494036530.9415309429,       -0.6430664062,        0.4023437500,        0.0888671875,       18.4478759766,       -8.7127685547,      -26.2603759766
1494036530.9440910816,       -0.6430664062,        0.4023437500,        0.0888671875,       18.4478759766,       -8.7127685547,      -26.2603759766
1494036530.9466381073,       -0.6430664062,        0.4023437500,        0.0888671875,       22.9339599609,       -9.6435546875,      -28.2745361328
1494036530.9491970539,       -0.6430664062,        0.3891601562,        0.0825195312,       22.9339599609,       -9.6435546875,      -28.2745361328
1494036530.9517540932,       -0.6743164062,        0.3891601562,        0.0825195312,       27.8015136719,      -10.2233886719,      -29.9530029297
1494036530.9543979168,       -0.6743164062,        0.3891601562,        0.0825195312,       27.8015136719,      -10.2233886719,      -29.9530029297
1494036530.9569559097,       -0.6743164062,        0.3891601562,        0.0825195312,       31.5399169922,      -11.0015869141,      -30.7769775391
1494036530.9595170021,       -0.6865234375,        0.3852539062,        0.0625000000,       31.5399169922,      -11.0015869141,      -30.7769775391
1494036530.9620780945,       -0.6865234375,        0.3852539062,        0.0625000000,       31.5399169922,      -12.3901367188,      -30.9448242188
1494036530.9648349285,       -0.6865234375,        0.3852539062,        0.0625000000,       34.1949462891,      -12.3901367188,      -30.9448242188
1494036530.9675428867,       -0.6865234375,        0.3852539062,        0.0625000000,       38.1011962891,      -13.2141113281,      -31.5246582031
1494036530.9702448845,       -0.6562500000,        0.3876953125,        0.0307617188,       35.5682373047,      -13.2141113281,      -31.5246582031
1494036530.9729421139,       -0.6562500000,        0.3876953125,        0.0307617188,       31.6619873047,      -13.4735107422,      -31.8756103516
1494036530.9756920338,       -0.6562500000,        0.3876953125,        0.0307617188,       34.8968505859,      -13.4735107422,      -31.8756103516
1494036530.9783899784,       -0.6562500000,        0.3876953125,        0.0307617188,       34.8968505859,      -13.9312744141,      -32.2875976562
1494036530.9810891151,       -0.6518554688,        0.3486328125,        0.0488281250,       31.7382812500,      -13.9312744141,      -32.2875976562
1494036530.9837899208,       -0.6518554688,        0.3486328125,        0.0488281250,       27.8320312500,      -14.4500732422,      -32.1044921875
1494036530.9864890575,       -0.6518554688,        0.3486328125,        0.0488281250,       30.6396484375,      -14.4500732422,      -32.1044921875
1494036530.9891860485,       -0.6518554688,        0.3159179688,        0.0664062500,       30.6396484375,      -13.8397216797,      -32.3486328125
1494036530.9918830395,       -0.6601562500,        0.3159179688,        0.0664062500,       30.3497314453,      -13.8397216797,      -32.3486328125
1494036530.9945259094,       -0.6601562500,        0.3159179688,        0.0664062500,       30.3497314453,      -13.8397216797,      -32.7453613281
1494036530.9970839024,       -0.6601562500,        0.3159179688,        0.0664062500,       27.8930664062,      -13.1835937500,      -32.7453613281
1494036530.9996430874,       -0.6601562500,        0.3364257812,        0.0737304688,       27.8930664062,      -13.1835937500,      -33.0200195312
1494036531.0021998882,       -0.6748046875,        0.3364257812,        0.0737304688,       26.6876220703,      -13.1072998047,      -33.0200195312
1494036531.0049180984,       -0.6748046875,        0.3364257812,        0.0737304688,       26.6876220703,      -13.1072998047,      -32.5622558594
1494036531.0076138973,       -0.6748046875,        0.3364257812,        0.0737304688,       25.3601074219,      -13.8854980469,      -32.5622558594
1494036531.0104269981,       -0.6982421875,        0.2827148438,        0.0913085938,       25.3601074219,      -13.8854980469,      -32.1197509766
1494036531.0131258965,       -0.6982421875,        0.2827148438,        0.0913085938,       26.9470214844,      -12.5427246094,      -32.1197509766
1494036531.0158240795,       -0.6982421875,        0.2827148438,        0.0913085938,       26.9470214844,      -12.5427246094,      -33.4167480469
1494036531.0185170174,       -0.6982421875,        0.2827148438,        0.0913085938,       28.3508300781,      -11.5814208984,      -33.4167480469
1494036531.0213370323,       -0.7045898438,        0.2812500000,        0.0922851562,       28.3508300781,      -15.4876708984,      -34.2102050781
1494036531.0244870186,       -0.7045898438,        0.2812500000,        0.0922851562,       26.0314941406,      -11.9934082031,      -34.2102050781
1494036531.0271830559,       -0.7045898438,        0.2812500000,        0.0922851562,       26.0314941406,      -10.8032226562,      -33.9202880859
1494036531.0298810005,       -0.7045898438,        0.3125000000,        0.0712890625,       25.0854492188,      -10.8032226562,      -33.9202880859
1494036531.0325829983,       -0.7006835938,        0.3125000000,        0.0712890625,       25.0854492188,       -9.9792480469,      -34.2712402344
1494036531.0352931023,       -0.7006835938,        0.3125000000,        0.0712890625,       26.8249511719,       -9.9792480469,      -34.2712402344
1494036531.0379900932,       -0.7006835938,        0.3125000000,        0.0712890625,       26.8249511719,       -9.9792480469,      -35.1409912109
1494036531.0406870842,       -0.6835937500,        0.3364257812,        0.0747070312,       26.7028808594,       -9.3536376953,      -35.1409912109
1494036531.0434269905,       -0.6835937500,        0.3364257812,        0.0747070312,       26.7028808594,       -9.3536376953,      -35.2172851562
1494036531.0459859371,       -0.6835937500,        0.3364257812,        0.0747070312,       25.8026123047,       -8.5449218750,      -35.2172851562
1494036531.0485389233,       -0.6835937500,        0.3364257812,        0.0747070312,       25.8026123047,       -8.5449218750,      -34.6832275391
1494036531.0510990620,       -0.6669921875,        0.2944335938,        0.0878906250,       25.7110595703,       -7.9803466797,      -34.6832275391
1494036531.0536959171,       -0.6669921875,        0.2944335938,        0.0878906250,       25.7110595703,       -7.9803466797,      -34.6832275391
1494036531.0562479496,       -0.6669921875,        0.2944335938,        0.0878906250,       25.5432128906,       -7.4310302734,      -34.3780517578
1494036531.0588068962,       -0.6669921875,        0.2944335938,        0.0878906250,       25.5432128906,       -7.4310302734,      -34.3780517578
1494036531.0613610744,       -0.6894531250,        0.2592773438,        0.0961914062,       25.2227783203,       -6.9580078125,      -35.4766845703
1494036531.0639209747,       -0.6894531250,        0.2592773438,        0.0961914062,       25.2227783203,       -6.9580078125,      -35.4766845703
1494036531.0664789677,       -0.6894531250,        0.2592773438,        0.0961914062,       23.7121582031,       -5.4931640625,      -36.2091064453
1494036531.0690360069,       -0.6894531250,        0.2592773438,        0.0961914062,       23.7121582031,       -5.4931640625,      -36.2091064453
1494036531.0715899467,       -0.6928710938,        0.2714843750,        0.0883789062,       22.7966308594,       -4.2877197266,      -35.5682373047
1494036531.0741920471,       -0.6928710938,        0.2714843750,        0.0883789062,       22.7966308594,       -4.2877197266,      -35.5682373047
1494036531.0767519474,       -0.6928710938,        0.2714843750,        0.0883789062,       21.5606689453,       -3.3111572266,      -35.2478027344
1494036531.0793070793,       -0.6928710938,        0.2714843750,        0.0883789062,       21.5606689453,       -3.3111572266,      -35.2478027344
1494036531.0818650723,       -0.6899414062,        0.2700195312,        0.0766601562,       21.5606689453,       -2.4719238281,      -34.3322753906
1494036531.0847260952,       -0.6899414062,        0.2700195312,        0.0766601562,       19.8822021484,       -2.4719238281,      -34.3322753906
1494036531.0874199867,       -0.6899414062,        0.2700195312,        0.0766601562,       20.1568603516,       -1.4038085938,      -33.8745117188
1494036531.0901169777,       -0.6899414062,        0.2880859375,        0.0605468750,       20.1568603516,       -1.4038085938,      -33.8745117188
1494036531.0928130150,       -0.6909179688,        0.2880859375,        0.0605468750,       20.1568603516,       -1.0375976562,      -33.4014892578
1494036531.0953969955,       -0.6909179688,        0.2880859375,        0.0605468750,       21.4385986328,       -1.0375976562,      -33.4014892578
1494036531.0979518890,       -0.6909179688,        0.2880859375,        0.0605468750,       21.4385986328,       -1.0375976562,      -32.9132080078
1494036531.1005079746,       -0.6909179688,        0.2680664062,        0.0146484375,       22.3693847656,       -1.3427734375,      -32.9132080078
1494036531.1030559540,       -0.6977539062,        0.2680664062,        0.0146484375,       22.3693847656,       -1.3427734375,      -32.8369140625
1494036531.1057679653,       -0.6977539062,        0.2680664062,        0.0146484375,       25.1617431641,       -2.3498535156,      -32.8369140625
1494036531.1084580421,       -0.6977539062,        0.2680664062,        0.0146484375,       25.1617431641,       -2.3498535156,      -31.1126708984
1494036531.1111490726,       -0.6992187500,        0.2426757812,        0.0244140625,       26.4129638672,       -3.2348632812,      -31.1126708984
1494036531.1138780117,       -0.6992187500,        0.2426757812,        0.0244140625,       26.4129638672,       -3.2348632812,      -29.2510986328
1494036531.1165740490,       -0.6992187500,        0.2426757812,        0.0244140625,       29.1595458984,       -3.2348632812,      -29.2510986328
1494036531.1192650795,       -0.6992187500,        0.2426757812,        0.0244140625,       29.1595458984,       -3.2348632812,      -28.3355712891
1494036531.1219539642,       -0.7094726562,        0.2202148438,        0.0488281250,       31.0821533203,       -3.6163330078,      -28.3355712891
1494036531.1246910095,       -0.7094726562,        0.2202148438,        0.0488281250,       31.0821533203,       -3.6163330078,      -27.3742675781
1494036531.1273860931,       -0.7094726562,        0.2202148438,        0.0488281250,       32.4249267578,       -4.2572021484,      -27.3742675781
1494036531.1300799847,       -0.7094726562,        0.2202148438,        0.0268554688,       32.4249267578,       -4.2572021484,      -26.1230468750
1494036531.1327710152,       -0.7104492188,        0.2065429688,        0.0268554688,       33.9050292969,       -4.9743652344,      -26.1230468750
1494036531.1354739666,       -0.7104492188,        0.2065429688,        0.0268554688,       33.9050292969,       -4.9743652344,      -26.1230468750
1494036531.1381690502,       -0.7104492188,        0.2065429688,        0.0268554688,       34.5153808594,       -4.3640136719,      -24.7497558594
1494036531.1410880089,       -0.7153320312,        0.1826171875,        0.0166015625,       34.5153808594,       -4.3640136719,      -23.2543945312
1494036531.1440730095,       -0.7153320312,        0.1826171875,        0.0166015625,       31.9976806641,       -3.1738281250,      -23.2543945312
1494036531.1466290951,       -0.7153320312,        0.1826171875,        0.0166015625,       31.9976806641,       -3.1738281250,      -21.6827392578
1494036531.1491839886,       -0.7153320312,        0.1826171875,        0.0166015625,       28.0914306641,       -1.4190673828,      -21.6827392578
1494036531.1517369747,       -0.7358398438,        0.1342773438,        0.0288085938,       28.0914306641,       -1.4190673828,      -21.6827392578
1494036531.1543610096,       -0.7358398438,        0.1342773438,        0.0288085938,       24.0020751953,       -0.2593994141,      -19.6533203125
1494036531.1571691036,       -0.7358398438,        0.1342773438,        0.0288085938,       24.0020751953,       -0.2593994141,      -15.7470703125
1494036531.1598711014,       -0.7358398438,        0.1342773438,        0.0288085938,       20.5993652344,        1.4953613281,      -17.7612304688
1494036531.1625609398,       -0.7373046875,        0.1718750000,        0.0898437500,       20.5993652344,        1.4953613281,      -17.7612304688
1494036531.1652970314,       -0.7373046875,        0.1718750000,        0.0898437500,       17.2424316406,        3.2806396484,      -16.0675048828
1494036531.1679940224,       -0.7373046875,        0.1718750000,        0.0898437500,       17.2424316406,        3.2806396484,      -12.1612548828
1494036531.1706860065,       -0.7373046875,        0.1718750000,        0.1298828125,       13.1988525391,        4.4250488281,      -14.7705078125
1494036531.1734359264,       -0.6752929688,        0.2319335938,        0.1298828125,       13.1988525391,        4.4250488281,      -14.7705078125
1494036531.1759901047,       -0.6752929688,        0.2319335938,        0.1298828125,       11.1541748047,        5.2032470703,      -13.7634277344
