time_stamp before, Acceleration x, Acceleration y, Acceleration z, Gyro x, Gyro y, Gyro z
1494036439.0135030746,       -0.7353515625,        0.1474609375,       -0.0273437500,        4.2572021484,       -0.2593994141,        0.2441406250
1494036439.0279500484,       -0.7353515625,        0.1474609375,       -0.0273437500,        4.2572021484,       -0.2593994141,        0.1068115234
1494036439.0308709145,       -0.7353515625,        0.1474609375,       -0.0273437500,        5.1727294922,       -0.2441406250,        0.1068115234
1494036439.0335640907,       -0.7329101562,        0.1381835938,       -0.0102539062,        5.1727294922,       -0.2441406250,        0.0457763672
1494036439.0362451077,       -0.7329101562,        0.1381835938,       -0.0102539062,        6.5002441406,       -0.1373291016,        0.0457763672
1494036439.0389239788,       -0.7329101562,        0.1381835938,       -0.0102539062,        6.5002441406,       -0.1373291016,       -0.0152587891
1494036439.0416009426,       -0.7329101562,        0.1381835938,       -0.0292968750,        6.9732666016,       -0.0457763672,       -0.0152587891
1494036439.0442910194,       -0.7231445312,        0.1279296875,       -0.0292968750,        6.9732666016,       -0.0457763672,       -0.2899169922
1494036439.0469729900,       -0.7231445312,        0.1279296875,       -0.0292968750,        7.1563720703,       -0.1373291016,       -0.2899169922
1494036439.0496520996,       -0.7231445312,        0.1279296875,       -0.0292968750,        7.1563720703,       -0.1373291016,       -0.1525878906
1494036439.0523331165,       -0.7231445312,        0.1352539062,       -0.0341796875,        7.1868896484,       -0.1068115234,       -0.1525878906
1494036439.0550720692,       -0.7324218750,        0.1352539062,       -0.0341796875,        7.1868896484,       -0.1068115234,       -0.1525878906
1494036439.0577580929,       -0.7324218750,        0.1352539062,       -0.0341796875,        6.7901611328,        0.1373291016,       -0.3204345703
1494036439.0604341030,       -0.7324218750,        0.1352539062,       -0.0341796875,        6.7901611328,        0.1373291016,       -0.3204345703
1494036439.0631079674,       -0.7348632812,        0.1328125000,       -0.0278320312,        6.5002441406,        0.3204345703,       -0.2441406250
1494036439.0656518936,       -0.7348632812,        0.1328125000,       -0.0278320312,        6.5002441406,        0.3204345703,       -0.2441406250
1494036439.0681889057,       -0.7348632812,        0.1328125000,       -0.0278320312,        5.3405761719,       -0.1983642578,       -0.3051757812
1494036439.0707290173,       -0.7348632812,        0.1328125000,       -0.0278320312,        5.3405761719,       -0.1983642578,       -0.3051757812
1494036439.0733509064,       -0.7265625000,        0.1201171875,       -0.0429687500,        4.6539306641,       -0.3356933594,       -0.3356933594
1494036439.0759010315,       -0.7265625000,        0.1201171875,       -0.0429687500,        4.6539306641,       -0.3356933594,       -0.3356933594
1494036439.0784540176,       -0.7265625000,        0.1201171875,       -0.0429687500,        3.7689208984,       -0.3204345703,       -0.3356933594
1494036439.0810070038,       -0.7265625000,        0.1201171875,       -0.0429687500,        3.7689208984,       -0.3204345703,       -0.3356933594
1494036439.0836610794,       -0.7397460938,        0.1357421875,       -0.0625000000,        3.0975341797,        0.0457763672,       -0.1525878906
1494036439.0863618851,       -0.7397460938,        0.1357421875,       -0.0625000000,        3.0975341797,        0.0457763672,       -0.1525878906
1494036439.0890550613,       -0.7397460938,        0.1357421875,       -0.0625000000,        2.9144287109,        0.2746582031,       -0.1525878906
1494036439.0917470455,       -0.7397460938,        0.1357421875,       -0.0625000000,        2.9144287109,        0.2746582031,       -0.1525878906
1494036439.0944850445,       -0.7446289062,        0.1420898438,       -0.0566406250,        2.4719238281,        0.0610351562,       -0.2746582031
1494036439.0971720219,       -0.7446289062,        0.1420898438,       -0.0566406250,        2.4719238281,        0.0610351562,       -0.2746582031
1494036439.1000199318,       -0.7446289062,        0.1420898438,       -0.0566406250,        1.4343261719,       -0.1220703125,       -0.2441406250
1494036439.1027140617,       -0.7446289062,        0.1250000000,       -0.0214843750,        1.4343261719,       -0.1220703125,       -0.2441406250
1494036439.1052989960,       -0.7348632812,        0.1250000000,       -0.0214843750,        0.9002685547,        0.1831054688,        0.1983642578
1494036439.1078450680,       -0.7348632812,        0.1250000000,       -0.0214843750,        0.9002685547,        0.1831054688,        0.1983642578
1494036439.1103909016,       -0.7348632812,        0.1250000000,       -0.0214843750,        0.9002685547,        0.6713867188,        0.3204345703
1494036439.1129388809,       -0.7348632812,        0.1293945312,       -0.0146484375,        0.4119873047,        0.6713867188,        0.3204345703
1494036439.1156659126,       -0.7348632812,        0.1293945312,       -0.0146484375,       -3.4942626953,        1.1749267578,        0.7476806641
1494036439.1183500290,       -0.7348632812,        0.1293945312,       -0.0146484375,       -0.2746582031,        1.1749267578,        0.7476806641
1494036439.1210389137,       -0.7348632812,        0.1293945312,       -0.0146484375,       -0.2746582031,        1.5106201172,        1.0528564453
1494036439.1237339973,       -0.7348632812,        0.1176757812,        0.0024414062,       -0.2136230469,        1.5106201172,        1.0528564453
1494036439.1264181137,       -0.7348632812,        0.1176757812,        0.0024414062,       -0.2136230469,        1.6174316406,        1.5411376953
1494036439.1291680336,       -0.7348632812,        0.1176757812,        0.0024414062,        0.1373291016,        1.6174316406,        1.5411376953
1494036439.1318540573,       -0.7348632812,        0.1176757812,        0.0024414062,        0.1373291016,        1.9989013672,        2.0904541016
1494036439.1345529556,       -0.7333984375,        0.1127929688,        0.0190429688,        0.3204345703,        1.9989013672,        2.0904541016
1494036439.1372311115,       -0.7333984375,        0.1127929688,        0.0190429688,        0.3204345703,        1.9989013672,        2.8381347656
1494036439.1400539875,       -0.7333984375,        0.1127929688,        0.0190429688,        0.5645751953,        2.1514892578,        2.8381347656
1494036439.1435909271,       -0.7373046875,        0.1005859375,        0.0156250000,        0.6103515625,        2.3040771484,        3.7536621094
1494036439.1462860107,       -0.7373046875,        0.1005859375,        0.0156250000,        0.6103515625,        2.3040771484,        3.7536621094
1494036439.1489810944,       -0.7373046875,        0.1005859375,        0.0156250000,        0.5493164062,        2.7465820312,        4.6386718750
1494036439.1516671181,       -0.7373046875,        0.1005859375,        0.0156250000,        0.5493164062,        2.7465820312,        4.6386718750
1494036439.1543159485,       -0.7426757812,        0.0810546875,       -0.0009765625,       -0.2593994141,        2.7923583984,        5.7373046875
1494036439.1568670273,       -0.7426757812,        0.0810546875,       -0.0009765625,       -0.2593994141,        2.7923583984,        5.7373046875
1494036439.1594099998,       -0.7426757812,        0.0810546875,       -0.0009765625,       -0.2593994141,        3.0822753906,        6.4239501953
1494036439.1619551182,       -0.7426757812,        0.0810546875,       -0.0009765625,       -1.4801025391,        3.0822753906,        6.4239501953
1494036439.1645860672,       -0.7568359375,        0.0566406250,       -0.0078125000,       -1.4801025391,        3.6926269531,        7.4157714844
1494036439.1672699451,       -0.7568359375,        0.0566406250,       -0.0078125000,       -2.1514892578,        3.6926269531,        7.4157714844
1494036439.1699590683,       -0.7568359375,        0.0566406250,       -0.0078125000,       -2.1514892578,        5.1269531250,        8.1787109375
1494036439.1727569103,       -0.7568359375,        0.0566406250,       -0.0092773438,       -2.2430419922,        5.1269531250,        8.1787109375
1494036439.1753718853,       -0.7539062500,        0.1162109375,       -0.0092773438,       -2.2430419922,        5.1269531250,        8.9263916016
1494036439.1779239178,       -0.7539062500,        0.1162109375,       -0.0092773438,       -2.8076171875,        5.0811767578,        8.9263916016
1494036439.1804680824,       -0.7539062500,        0.1162109375,       -0.0092773438,       -2.8076171875,        5.0811767578,        9.4299316406
1494036439.1830170155,       -0.7539062500,        0.2412109375,       -0.0278320312,       -3.4332275391,        4.4403076172,        9.4299316406
1494036439.1855850220,       -0.7509765625,        0.1416015625,       -0.0278320312,       -3.4332275391,        4.4403076172,        9.4299316406
1494036439.1881320477,       -0.7509765625,        0.1416015625,       -0.0278320312,       -3.3569335938,        4.1198730469,        9.7045898438
1494036439.1906790733,       -0.7509765625,        0.1416015625,       -0.0278320312,       -3.3569335938,        4.1198730469,        9.7045898438
1494036439.1933209896,       -0.7509765625,        0.1357421875,       -0.0341796875,       -2.5329589844,        4.8370361328,        9.7045898438
1494036439.1958720684,       -0.7514648438,        0.1357421875,       -0.0341796875,       -2.5329589844,        4.8370361328,        9.7045898438
1494036439.1984241009,       -0.7514648438,        0.1357421875,       -0.0341796875,       -1.5411376953,        4.9285888672,        9.7961425781
1494036439.2009689808,       -0.7514648438,        0.1357421875,       -0.0341796875,       -1.5411376953,        4.9285888672,        9.7961425781
1494036439.2036170959,       -0.6264648438,        0.1342773438,       -0.0288085938,       -0.4577636719,        4.7454833984,        9.8571777344
1494036439.2061789036,       -0.7456054688,        0.1342773438,       -0.0288085938,       -0.4577636719,        4.7454833984,        9.8571777344
1494036439.2087240219,       -0.7456054688,        0.1342773438,       -0.0288085938,        0.6713867188,        4.6539306641,       10.5590820312
1494036439.2112770081,       -0.7456054688,        0.1342773438,       -0.0288085938,        0.6713867188,        4.6539306641,       10.5590820312
1494036439.2139050961,       -0.7402343750,        0.1337890625,       -0.0175781250,        0.7934570312,        4.6997070312,       11.3372802734
1494036439.2165958881,       -0.7402343750,        0.1337890625,       -0.0175781250,        0.7934570312,        4.6997070312,       11.3372802734
1494036439.2192819118,       -0.7402343750,        0.1337890625,       -0.0175781250,        1.0070800781,        4.7912597656,       11.6729736328
1494036439.2219669819,       -0.7402343750,        0.1337890625,       -0.0175781250,        1.0070800781,        4.7912597656,       11.6729736328
1494036439.2246730328,       -0.7368164062,        0.1352539062,       -0.0175781250,        1.0070800781,        4.7760009766,       12.0544433594
1494036439.2273681164,       -0.7368164062,        0.1352539062,       -0.0175781250,        1.0986328125,        4.7760009766,       12.0544433594
1494036439.2300601006,       -0.7368164062,        0.1352539062,       -0.0175781250,        1.0986328125,        5.0354003906,       12.5885009766
1494036439.2327508926,       -0.7368164062,        0.1352539062,       -0.0175781250,        0.9002685547,        5.0354003906,       12.5885009766
1494036439.2354969978,       -0.7402343750,        0.1289062500,       -0.0229492188,        0.9002685547,        5.4016113281,       12.9394531250
1494036439.2381949425,       -0.7402343750,        0.1289062500,       -0.0229492188,        1.0070800781,        5.4016113281,       12.9394531250
1494036439.2408859730,       -0.7402343750,        0.1289062500,       -0.0229492188,        1.0070800781,        5.6610107422,       13.6413574219
1494036439.2435839176,       -0.7402343750,        0.1289062500,       -0.0224609375,        0.9307861328,        5.6610107422,       13.6413574219
1494036439.2463910580,       -0.7338867188,        0.1347656250,       -0.0224609375,        0.9307861328,        5.7830810547,       13.9312744141
1494036439.2490808964,       -0.7338867188,        0.1347656250,       -0.0224609375,        1.1138916016,        5.7830810547,       13.9312744141
1494036439.2517731190,       -0.7338867188,        0.1347656250,       -0.0224609375,        1.1138916016,        5.9204101562,       14.8773193359
1494036439.2544078827,       -0.7314453125,        0.1333007812,       -0.0175781250,        1.6326904297,        5.9204101562,       14.8773193359
1494036439.2569589615,       -0.7314453125,        0.1333007812,       -0.0175781250,        1.6326904297,        5.9204101562,       15.8233642578
1494036439.2596321106,       -0.7314453125,        0.1333007812,       -0.0175781250,        1.2512207031,        6.0272216797,       15.8233642578
1494036439.2621879578,       -0.7314453125,        0.1333007812,       -0.0175781250,        1.2512207031,        6.0272216797,       16.6015625000
1494036439.2648789883,       -0.7285156250,        0.1254882812,       -0.0219726562,        0.8544921875,        6.4544677734,       16.6015625000
1494036439.2675731182,       -0.7285156250,        0.1254882812,       -0.0219726562,        0.8544921875,        6.4544677734,       17.4407958984
1494036439.2702651024,       -0.7285156250,        0.1254882812,       -0.0219726562,        0.4882812500,        6.5307617188,       17.4407958984
1494036439.2729570866,       -0.7285156250,        0.1254882812,       -0.0219726562,        0.4882812500,        6.5307617188,       17.9901123047
1494036439.2756879330,       -0.7416992188,        0.1118164062,       -0.0234375000,        0.8239746094,        6.8511962891,       17.9901123047
1494036439.2783749104,       -0.7416992188,        0.1118164062,       -0.0234375000,        0.8239746094,        6.8511962891,       18.4173583984
1494036439.2810599804,       -0.7416992188,        0.1118164062,       -0.0234375000,        0.4882812500,        7.0037841797,       18.4173583984
1494036439.2837679386,       -0.7416992188,        0.1118164062,       -0.0249023438,        0.4882812500,        7.0037841797,       19.2260742188
1494036439.2864630222,       -0.7539062500,        0.1333007812,       -0.0249023438,       -0.0762939453,        7.2479248047,       19.2260742188
1494036439.2891590595,       -0.7539062500,        0.1333007812,       -0.0249023438,       -0.0762939453,        7.2479248047,       20.4162597656
1494036439.2918469906,       -0.7539062500,        0.1333007812,       -0.0249023438,       -0.3967285156,        7.9803466797,       20.4162597656
1494036439.2944910526,       -0.6289062500,        0.1508789062,       -0.0458984375,       -0.3967285156,        7.9803466797,       20.4162597656
1494036439.2970468998,       -0.7480468750,        0.1508789062,       -0.0458984375,       -0.8239746094,        8.5906982422,       21.3165283203
1494036439.2995998859,       -0.7480468750,        0.1508789062,       -0.0458984375,       -0.8239746094,        8.5906982422,       21.3165283203
1494036439.3021509647,       -0.7480468750,        0.1508789062,       -0.0458984375,       -0.7934570312,        8.2550048828,       21.8048095703
1494036439.3049139977,       -0.7446289062,        0.1430664062,       -0.0336914062,       -0.7934570312,        8.2550048828,       21.8048095703
1494036439.3074729443,       -0.7446289062,        0.1430664062,       -0.0336914062,       -0.9460449219,        8.0108642578,       22.3388671875
1494036439.3100299835,       -0.7446289062,        0.1430664062,       -0.0336914062,       -0.9460449219,        8.0108642578,       22.3388671875
1494036439.3125829697,       -0.7446289062,        0.1430664062,       -0.0336914062,       -0.8087158203,        7.9498291016,       23.0865478516
1494036439.3153951168,       -0.7373046875,        0.1411132812,       -0.0405273438,       -0.8087158203,        7.9498291016,       23.0865478516
1494036439.3180830479,       -0.7373046875,        0.1411132812,       -0.0405273438,       -1.4801025391,        8.7432861328,       23.6358642578
1494036439.3208789825,       -0.7373046875,        0.1411132812,       -0.0405273438,       -1.4801025391,        8.7432861328,       23.6358642578
1494036439.3235740662,       -0.7373046875,        0.1411132812,       -0.0405273438,       -1.3275146484,        8.5449218750,       24.4445800781
1494036439.3262629509,       -0.7436523438,        0.1489257812,       -0.0375976562,       -1.3275146484,        8.5449218750,       24.4445800781
1494036439.3289439678,       -0.7436523438,        0.1489257812,       -0.0375976562,       -1.5106201172,        8.8348388672,       25.1922607422
1494036439.3316280842,       -0.7436523438,        0.1489257812,       -0.0375976562,       -1.5106201172,        8.8348388672,       25.1922607422
1494036439.3343229294,       -0.7436523438,        0.1489257812,       -0.0278320312,       -1.4648437500,        9.2315673828,       26.1383056641
1494036439.3370070457,       -0.7407226562,        0.1586914062,       -0.0278320312,       -1.4648437500,        9.2315673828,       26.1383056641
1494036439.3398070335,       -0.7407226562,        0.1586914062,       -0.0278320312,       -1.6021728516,        9.7351074219,       26.9165039062
1494036439.3423590660,       -0.7407226562,        0.1586914062,       -0.0278320312,       -1.6021728516,        9.7351074219,       26.9165039062
1494036439.3450379372,       -0.7407226562,        0.1606445312,       -0.0263671875,       -1.7395019531,        9.7808837891,       27.7862548828
1494036439.3476870060,       -0.7500000000,        0.1606445312,       -0.0263671875,       -1.7395019531,        9.7808837891,       27.7862548828
1494036439.3504381180,       -0.7500000000,        0.1606445312,       -0.0263671875,       -1.8463134766,        9.7656250000,       28.4729003906
1494036439.3532040119,       -0.7500000000,        0.1606445312,       -0.0263671875,       -1.8463134766,        9.7656250000,       28.4729003906
1494036439.3560080528,       -0.7460937500,        0.1621093750,       -0.0322265625,       -1.4343261719,        9.9029541016,       28.9916992188
1494036439.3587009907,       -0.7460937500,        0.1621093750,       -0.0322265625,       -1.4343261719,        9.9029541016,       28.9916992188
1494036439.3613960743,       -0.7460937500,        0.1621093750,       -0.0322265625,       -0.9460449219,       10.2386474609,       29.8614501953
1494036439.3641059399,       -0.7460937500,        0.1621093750,       -0.0322265625,       -0.9460449219,       10.2386474609,       29.8614501953
1494036439.3668100834,       -0.7402343750,        0.1704101562,       -0.0532226562,       -0.9460449219,       10.3302001953,       30.8074951172
1494036439.3695089817,       -0.7402343750,        0.1704101562,       -0.0532226562,       -0.9460449219,       10.3302001953,       30.8074951172
1494036439.3722059727,       -0.7402343750,        0.1704101562,       -0.0532226562,       -0.5340576172,        9.2926025391,       32.1044921875
1494036439.3749089241,       -0.7402343750,        0.1684570312,       -0.0615234375,       -0.5340576172,        9.2926025391,       32.1044921875
1494036439.3775999546,       -0.7343750000,        0.1684570312,       -0.0615234375,        0.3204345703,        9.2468261719,       33.4472656250
1494036439.3802990913,       -0.7343750000,        0.1684570312,       -0.0615234375,        0.3204345703,        9.2468261719,       33.4472656250
1494036439.3829960823,       -0.7343750000,        0.1684570312,       -0.0615234375,        1.4801025391,        9.1400146484,       35.0952148438
1494036439.3855700493,       -0.7475585938,        0.1718750000,       -0.0551757812,        1.4801025391,        9.1400146484,       35.0952148438
1494036439.3881199360,       -0.7475585938,        0.1718750000,       -0.0551757812,        1.7242431641,        9.0026855469,       36.4990234375
1494036439.3906669617,       -0.7475585938,        0.1718750000,       -0.0551757812,        1.7242431641,        9.0026855469,       36.4990234375
1494036439.3933289051,       -0.7475585938,        0.1718750000,       -0.0551757812,        1.7242431641,        8.5144042969,       38.6657714844
1494036439.3958849907,       -0.7519531250,        0.1694335938,       -0.0532226562,        1.7700195312,        8.5144042969,       38.6657714844
1494036439.3984370232,       -0.7519531250,        0.1694335938,       -0.0532226562,        1.7700195312,        4.6081542969,       40.8935546875
1494036439.4009859562,       -0.7519531250,        0.1694335938,       -0.0532226562,        0.6103515625,        7.6446533203,       40.8935546875
1494036439.4036459923,       -0.7519531250,        0.1694335938,       -0.0532226562,        0.6103515625,        7.6446533203,       42.3278808594
1494036439.4062139988,       -0.7690429688,        0.0791015625,       -0.0454101562,        0.1525878906,        7.1105957031,       42.3278808594
1494036439.4087738991,       -0.7690429688,        0.0791015625,       -0.0454101562,        0.1525878906,        7.1105957031,       42.3278808594
1494036439.4113280773,       -0.7690429688,        0.0791015625,       -0.0454101562,        0.5340576172,        6.3476562500,       43.9453125000
1494036439.4140360355,       -0.7690429688,        0.0791015625,       -0.0454101562,        0.5340576172,        6.3476562500,       43.9453125000
1494036439.4167349339,       -0.7783203125,        0.1044921875,       -0.0312500000,       -1.0833740234,        7.0800781250,       45.2575683594
1494036439.4194300175,       -0.7783203125,        0.1044921875,       -0.0312500000,       -1.0833740234,        7.0800781250,       45.2575683594
1494036439.4221251011,       -0.7783203125,        0.1044921875,       -0.0312500000,       -2.4108886719,        7.2784423828,       47.3175048828
1494036439.4248669147,       -0.7783203125,        0.1044921875,       -0.0424804688,       -2.4108886719,        7.2784423828,       47.3175048828
1494036439.4275629520,       -0.7871093750,        0.1499023438,       -0.0424804688,       -3.2043457031,        6.9885253906,       49.3621826172
1494036439.4302580357,       -0.7871093750,        0.1499023438,       -0.0424804688,       -3.2043457031,        6.9885253906,       49.3621826172
1494036439.4329500198,       -0.7871093750,        0.1499023438,       -0.0424804688,       -4.2572021484,        6.1492919922,       50.5523681641
1494036439.4357039928,       -0.7871093750,        0.1347656250,       -0.0297851562,       -4.2572021484,        6.1492919922,       50.5523681641
1494036439.4383959770,       -0.7993164062,        0.1347656250,       -0.0297851562,       -3.9367675781,        5.5236816406,       50.8728027344
1494036439.4410910606,       -0.7993164062,        0.1347656250,       -0.0297851562,       -3.9367675781,        5.5236816406,       50.8728027344
1494036439.4437611103,       -0.7993164062,        0.1347656250,       -0.0297851562,       -4.2724609375,        4.8675537109,       50.7812500000
1494036439.4463090897,       -0.8115234375,        0.1831054688,       -0.0400390625,       -4.2724609375,        4.8675537109,       50.7812500000
1494036439.4488561153,       -0.8115234375,        0.1831054688,       -0.0400390625,       -4.6997070312,        3.9520263672,       50.1861572266
1494036439.4514091015,       -0.8115234375,        0.1831054688,       -0.0400390625,       -4.6997070312,        3.9520263672,       50.1861572266
1494036439.4540081024,       -0.8115234375,        0.1831054688,       -0.0400390625,       -3.3569335938,        3.1433105469,       49.5605468750
1494036439.4566929340,       -0.8090820312,        0.2158203125,       -0.0161132812,       -3.3569335938,        3.1433105469,       49.5605468750
1494036439.4593849182,       -0.8090820312,        0.2158203125,       -0.0161132812,        0.4272460938,        1.8768310547,       49.0112304688
1494036439.4620680809,       -0.8090820312,        0.2158203125,       -0.0161132812,        0.4272460938,        1.8768310547,       49.0112304688
1494036439.4647660255,       -0.8090820312,        0.2158203125,       -0.0161132812,        5.2795410156,       -0.1831054688,       49.8809814453
1494036439.4675760269,       -0.7846679688,        0.2978515625,        0.0541992188,        5.2795410156,       -0.1831054688,       49.8809814453
1494036439.4703590870,       -0.7846679688,        0.2978515625,        0.0541992188,        9.7656250000,       -2.3498535156,       50.0030517578
1494036439.4734768867,       -0.7846679688,        0.2978515625,        0.0541992188,        9.7656250000,       -2.3498535156,       50.0030517578
1494036439.4760251045,       -0.7846679688,        0.2924804688,        0.0478515625,       13.7481689453,       -4.4860839844,       48.4008789062
1494036439.4785830975,       -0.8354492188,        0.2924804688,        0.0478515625,       13.7481689453,       -4.4860839844,       48.4008789062
1494036439.4811360836,       -0.8354492188,        0.2924804688,        0.0478515625,       17.9443359375,       -5.3558349609,       46.9512939453
1494036439.4837141037,       -0.8354492188,        0.2924804688,        0.0478515625,       17.9443359375,       -5.3558349609,       46.9512939453
1494036439.4864110947,       -0.8916015625,        0.2568359375,       -0.0429687500,       20.7977294922,       -6.0577392578,       46.7987060547
1494036439.4891068935,       -0.8916015625,        0.2568359375,       -0.0429687500,       20.7977294922,       -6.0577392578,       46.7987060547
1494036439.4917969704,       -0.8916015625,        0.2568359375,       -0.0429687500,       22.0184326172,       -7.1411132812,       47.0428466797
1494036439.4945049286,       -0.8916015625,        0.2568359375,       -0.0429687500,       22.0184326172,       -7.1411132812,       47.0428466797
1494036439.4971990585,       -0.8925781250,        0.2260742188,       -0.0224609375,       22.2778320312,       -7.1716308594,       46.0052490234
1494036439.4998979568,       -0.8925781250,        0.2260742188,       -0.0224609375,       22.2778320312,       -7.1716308594,       46.0052490234
1494036439.5025899410,       -0.8925781250,        0.2260742188,       -0.0224609375,       20.9808349609,       -5.6610107422,       44.2504882812
1494036439.5051960945,       -0.8925781250,        0.2260742188,       -0.0224609375,       20.9808349609,       -5.6610107422,       44.2504882812
1494036439.5077509880,       -0.8896484375,        0.1909179688,       -0.0625000000,       17.0745849609,       -3.4484863281,       44.1131591797
1494036439.5103020668,       -0.8896484375,        0.1909179688,       -0.0625000000,       19.1650390625,       -3.4484863281,       44.1131591797
1494036439.5128509998,       -0.8896484375,        0.1909179688,       -0.0625000000,       19.1650390625,       -3.4484863281,       46.7071533203
1494036439.5154109001,       -0.8896484375,        0.1909179688,       -0.0625000000,       17.9290771484,       -1.5563964844,       46.7071533203
1494036439.5179619789,       -0.8564453125,        0.2294921875,       -0.1040039062,       17.9290771484,       -1.5563964844,       50.5371093750
1494036439.5205149651,       -0.8564453125,        0.2294921875,       -0.1040039062,       16.0827636719,        0.1678466797,       50.5371093750
1494036439.5230710506,       -0.8564453125,        0.2294921875,       -0.1040039062,       16.0827636719,        0.1678466797,       54.4433593750
1494036439.5257720947,       -0.8564453125,        0.2294921875,       -0.1040039062,       14.4653320312,        1.3732910156,       52.9327392578
1494036439.5283219814,       -0.8027343750,        0.2680664062,       -0.0834960938,       14.4653320312,        1.3732910156,       52.9327392578
1494036439.5308790207,       -0.8027343750,        0.2680664062,       -0.0834960938,       14.1906738281,        0.9460449219,       54.5196533203
1494036439.5335819721,       -0.8027343750,        0.2680664062,       -0.0834960938,       14.1906738281,        0.9460449219,       54.5196533203
1494036439.5362849236,       -0.8027343750,        0.2680664062,       -0.0053710938,       16.7236328125,       -0.4730224609,       55.0842285156
1494036439.5389819145,       -0.7597656250,        0.2583007812,       -0.0053710938,       16.7236328125,       -0.4730224609,       55.0842285156
1494036439.5417869091,       -0.7597656250,        0.2583007812,       -0.0053710938,       21.7742919922,       -1.5411376953,       53.9093017578
1494036439.5445010662,       -0.7597656250,        0.2583007812,       -0.0053710938,       21.7742919922,       -1.5411376953,       53.9093017578
1494036439.5471920967,       -0.7045898438,        0.2436523438,        0.0263671875,       26.9470214844,       -3.1890869141,       52.7801513672
1494036439.5498869419,       -0.7045898438,        0.2436523438,        0.0263671875,       26.9470214844,       -3.1890869141,       52.7801513672
1494036439.5525770187,       -0.7045898438,        0.2436523438,        0.0263671875,       29.8004150391,       -4.2266845703,       50.9185791016
1494036439.5552790165,       -0.7045898438,        0.2436523438,        0.0263671875,       29.8004150391,       -4.2266845703,       50.9185791016
1494036439.5579719543,       -0.6411132812,        0.2402343750,        0.0390625000,       33.4930419922,       -5.7373046875,       48.9349365234
1494036439.5606648922,       -0.6411132812,        0.2402343750,        0.0390625000,       33.4930419922,       -5.7373046875,       48.9349365234
1494036439.5633959770,       -0.6411132812,        0.2402343750,        0.0390625000,       38.1774902344,       -7.7056884766,       46.3256835938
1494036439.5659480095,       -0.6411132812,        0.2402343750,        0.0390625000,       38.1774902344,       -7.7056884766,       46.3256835938
1494036439.5684978962,       -0.5947265625,        0.1870117188,        0.0820312500,       43.7927246094,       -9.4451904297,       41.3665771484
1494036439.5710499287,       -0.5947265625,        0.1870117188,        0.0820312500,       43.7927246094,       -9.4451904297,       41.3665771484
1494036439.5736670494,       -0.5947265625,        0.1870117188,        0.0820312500,       49.0570068359,      -11.5356445312,       36.1175537109
1494036439.5762250423,       -0.5947265625,        0.1870117188,        0.2070312500,       49.0570068359,      -11.5356445312,       36.1175537109
1494036439.5787799358,       -0.5507812500,        0.1899414062,        0.1318359375,       55.0842285156,      -13.5345458984,       31.4941406250
1494036439.5813379288,       -0.5507812500,        0.1899414062,        0.1318359375,       55.0842285156,      -13.5345458984,       31.4941406250
1494036439.5839469433,       -0.5507812500,        0.1899414062,        0.1318359375,       62.8967285156,      -15.2587890625,       26.3519287109
1494036439.5866088867,       -0.5507812500,        0.0649414062,        0.1191406250,       63.1103515625,      -15.2587890625,       26.3519287109
1494036439.5893549919,       -0.5131835938,        0.1123046875,        0.1191406250,       69.5800781250,      -17.8985595703,       19.6838378906
1494036439.5921690464,       -0.5131835938,        0.1123046875,        0.1191406250,       69.5800781250,      -17.8985595703,       19.6838378906
1494036439.5950028896,       -0.5131835938,        0.1123046875,        0.1191406250,       75.6072998047,      -20.4010009766,       11.7950439453
1494036439.5977089405,       -0.5205078125,        0.0283203125,        0.0791015625,       75.6072998047,      -20.4010009766,       11.7950439453
1494036439.6004090309,       -0.5205078125,        0.0283203125,        0.0791015625,       77.3773193359,      -23.4222412109,        4.8828125000
1494036439.6031050682,       -0.5205078125,        0.0283203125,        0.0791015625,       77.3773193359,      -23.4222412109,        4.8828125000
1494036439.6058020592,       -0.5205078125,        0.0283203125,        0.0791015625,       75.2105712891,      -24.7192382812,       -0.8544921875
1494036439.6084940434,       -0.5620117188,        0.0078125000,        0.0585937500,       75.2105712891,      -24.7192382812,       -0.8544921875
1494036439.6111869812,       -0.5620117188,        0.0078125000,        0.0585937500,       73.2269287109,      -25.5889892578,       -6.8206787109
1494036439.6140050888,       -0.5620117188,        0.0078125000,        0.0585937500,       73.2269287109,      -25.5889892578,       -6.8206787109
1494036439.6167089939,       -0.5620117188,        0.0078125000,        0.0405273438,       71.8231201172,      -26.7791748047,      -13.3514404297
1494036439.6194100380,       -0.5512695312,       -0.0195312500,        0.0405273438,       71.8231201172,      -26.7791748047,      -13.3514404297
1494036439.6221110821,       -0.5512695312,       -0.0195312500,        0.0405273438,       70.0073242188,      -28.4729003906,      -19.4091796875
1494036439.6247360706,       -0.5512695312,       -0.0195312500,        0.0405273438,       70.0073242188,      -28.4729003906,      -19.4091796875
1494036439.6272990704,       -0.5512695312,       -0.0327148438,        0.0317382812,       70.0073242188,      -30.3192138672,      -25.3601074219
1494036439.6298630238,       -0.5449218750,       -0.0327148438,        0.0317382812,       67.4743652344,      -30.3192138672,      -25.3601074219
1494036439.6324229240,       -0.5449218750,       -0.0327148438,        0.0317382812,       67.4743652344,      -34.2254638672,      -31.4331054688
1494036439.6350860596,       -0.5449218750,       -0.0327148438,        0.0317382812,       65.3686523438,      -31.6467285156,      -31.4331054688
1494036439.6376450062,       -0.5449218750,       -0.0581054688,        0.0024414062,       65.3686523438,      -31.6467285156,      -36.7126464844
1494036439.6402020454,       -0.5400390625,       -0.0581054688,        0.0024414062,       64.2547607422,      -33.1268310547,      -36.7126464844
1494036439.6427650452,       -0.5400390625,       -0.0581054688,        0.0024414062,       64.2547607422,      -33.1268310547,      -40.6188964844
1494036439.6455049515,       -0.5400390625,       -0.0581054688,        0.0024414062,       62.6220703125,      -33.8897705078,      -41.2292480469
1494036439.6480689049,       -0.5751953125,       -0.0312500000,       -0.0234375000,       62.6220703125,      -33.8897705078,      -41.2292480469
1494036439.6506290436,       -0.5751953125,       -0.0312500000,       -0.0234375000,       59.9517822266,      -34.2102050781,      -45.2117919922
1494036439.6533110142,       -0.5751953125,       -0.0312500000,       -0.0234375000,       59.9517822266,      -34.2102050781,      -45.2117919922
1494036439.6560161114,       -0.5751953125,       -0.0312500000,       -0.0234375000,       55.2368164062,      -34.4085693359,      -49.1027832031
1494036439.6587209702,       -0.6088867188,        0.0161132812,       -0.0571289062,       55.2368164062,      -34.4085693359,      -49.1027832031
1494036439.6614179611,       -0.6088867188,        0.0161132812,       -0.0571289062,       48.9501953125,      -34.5001220703,      -53.3752441406
1494036439.6641280651,       -0.6088867188,        0.0161132812,       -0.0571289062,       48.9501953125,      -34.5001220703,      -53.3752441406
1494036439.6668260098,       -0.6088867188,        0.0161132812,       -0.0571289062,       41.8243408203,      -34.8815917969,      -56.5795898438
1494036439.6695230007,       -0.6367187500,        0.0502929688,       -0.0463867188,       41.8243408203,      -34.8815917969,      -56.5795898438
1494036439.6722190380,       -0.6367187500,        0.0502929688,       -0.0463867188,       35.2325439453,      -35.1562500000,      -59.7229003906
1494036439.6748399734,       -0.6367187500,        0.0502929688,       -0.0463867188,       35.2325439453,      -35.1562500000,      -59.7229003906
1494036439.6773929596,       -0.6367187500,        0.0502929688,       -0.0507812500,       28.9916992188,      -35.7513427734,      -63.7359619141
1494036439.6799480915,       -0.6621093750,        0.0498046875,       -0.0507812500,       28.9916992188,      -35.7513427734,      -63.7359619141
1494036439.6825029850,       -0.6621093750,        0.0498046875,       -0.0507812500,       22.6745605469,      -35.9954833984,      -67.4743652344
1494036439.6851770878,       -0.6621093750,        0.0498046875,       -0.0507812500,       22.6745605469,      -35.9954833984,      -67.4743652344
1494036439.6879899502,       -0.6621093750,        0.0424804688,       -0.0576171875,       15.4418945312,      -35.6903076172,      -71.1822509766
1494036439.6906950474,       -0.6850585938,        0.0424804688,       -0.0576171875,       15.4418945312,      -35.6903076172,      -71.1822509766
1494036439.6934471130,       -0.6850585938,        0.0424804688,       -0.0576171875,        8.4686279297,      -34.9731445312,      -74.2492675781
1494036439.6960229874,       -0.6850585938,        0.0424804688,       -0.0576171875,        8.4686279297,      -34.9731445312,      -74.2492675781
1494036439.6985790730,       -0.6992187500,        0.0703125000,       -0.0698242188,        2.1362304688,      -33.7219238281,      -77.3620605469
1494036439.7011320591,       -0.6992187500,        0.0703125000,       -0.0698242188,        2.1362304688,      -33.7219238281,      -77.3620605469
1494036439.7037301064,       -0.6992187500,        0.0703125000,       -0.0698242188,       -2.5482177734,      -32.3181152344,      -79.8187255859
1494036439.7064249516,       -0.6992187500,        0.0703125000,       -0.0698242188,       -2.5482177734,      -32.3181152344,      -79.8187255859
1494036439.7091209888,       -0.7006835938,        0.1191406250,       -0.0751953125,       -6.5917968750,      -31.7535400391,      -82.2143554688
1494036439.7119479179,       -0.7006835938,        0.1191406250,       -0.0751953125,       -6.5917968750,      -31.7535400391,      -82.2143554688
1494036439.7150700092,       -0.7006835938,        0.1191406250,       -0.0751953125,       -9.3841552734,      -30.8685302734,      -84.5489501953
1494036439.7177779675,       -0.7006835938,        0.2441406250,       -0.0849609375,       -9.3841552734,      -30.8685302734,      -84.5489501953
1494036439.7204749584,       -0.7041015625,        0.1528320312,       -0.0849609375,      -11.0626220703,      -29.4189453125,      -86.1206054688
1494036439.7231879234,       -0.7041015625,        0.1528320312,       -0.0849609375,      -11.0626220703,      -29.4189453125,      -86.1206054688
1494036439.7257490158,       -0.7041015625,        0.1528320312,       -0.0849609375,      -12.0544433594,      -27.9388427734,      -87.6617431641
1494036439.7283039093,       -0.7041015625,        0.1733398438,       -0.0820312500,      -12.0544433594,      -27.9388427734,      -87.6617431641
1494036439.7308659554,       -0.7211914062,        0.1733398438,       -0.0820312500,      -12.0544433594,      -26.5350341797,      -88.8366699219
1494036439.7334771156,       -0.7211914062,        0.1733398438,       -0.0820312500,      -11.9628906250,      -26.5350341797,      -88.8366699219
1494036439.7361769676,       -0.7211914062,        0.1733398438,       -0.0820312500,      -11.9628906250,      -25.4058837891,      -89.6453857422
1494036439.7388811111,       -0.7187500000,        0.1835937500,       -0.0776367188,      -11.9934082031,      -25.4058837891,      -89.6453857422
1494036439.7415850163,       -0.7187500000,        0.1835937500,       -0.0776367188,      -11.9934082031,      -24.2462158203,      -90.4083251953
1494036439.7442479134,       -0.7187500000,        0.1835937500,       -0.0776367188,      -11.0321044922,      -24.2462158203,      -90.4083251953
1494036439.7468109131,       -0.7187500000,        0.1835937500,       -0.0776367188,      -11.0321044922,      -20.3399658203,      -91.0186767578
1494036439.7493689060,       -0.7260742188,        0.2036132812,       -0.0815429688,       -9.5825195312,      -22.5830078125,      -91.0186767578
1494036439.7519290447,       -0.7260742188,        0.2036132812,       -0.0815429688,       -9.5825195312,      -22.5830078125,      -91.0186767578
1494036439.7544898987,       -0.7260742188,        0.2036132812,       -0.0815429688,       -6.9274902344,      -21.0723876953,      -91.0491943359
1494036439.7570409775,       -0.7260742188,        0.2036132812,       -0.0815429688,       -6.9274902344,      -21.0723876953,      -91.0491943359
1494036439.7595939636,       -0.7353515625,        0.2211914062,       -0.0888671875,       -4.3640136719,      -19.3939208984,      -90.7135009766
1494036439.7622530460,       -0.7353515625,        0.2211914062,       -0.0888671875,       -4.3640136719,      -19.3939208984,      -90.7135009766
1494036439.7649428844,       -0.7353515625,        0.2211914062,       -0.0888671875,       -2.3040771484,      -17.0898437500,      -90.0268554688
1494036439.7674961090,       -0.7353515625,        0.2211914062,       -0.0888671875,       -2.3040771484,      -17.0898437500,      -90.0268554688
1494036439.7700490952,       -0.7436523438,        0.2236328125,       -0.0839843750,       -0.3814697266,      -15.9149169922,      -89.4622802734
1494036439.7726080418,       -0.7436523438,        0.2236328125,       -0.0839843750,       -0.3814697266,      -15.9149169922,      -89.4622802734
1494036439.7754199505,       -0.7436523438,        0.2236328125,       -0.0839843750,        1.0070800781,      -15.7928466797,      -89.0045166016
1494036439.7781169415,       -0.7436523438,        0.2236328125,       -0.0878906250,        1.0070800781,      -15.7928466797,      -89.0045166016
1494036439.7808101177,       -0.7363281250,        0.2275390625,       -0.0878906250,        2.3803710938,      -14.9993896484,      -88.7451171875
1494036439.7835121155,       -0.7363281250,        0.2275390625,       -0.0878906250,        2.3803710938,      -14.9993896484,      -88.7451171875
1494036439.7862060070,       -0.7363281250,        0.2275390625,       -0.0878906250,        3.1127929688,      -13.7329101562,      -87.9058837891
1494036439.7889010906,       -0.7363281250,        0.2353515625,       -0.0864257812,        3.1127929688,      -13.7329101562,      -87.9058837891
1494036439.7915909290,       -0.7260742188,        0.2353515625,       -0.0864257812,        2.9144287109,      -13.0615234375,      -87.1734619141
1494036439.7942988873,       -0.7260742188,        0.2353515625,       -0.0864257812,        2.9144287109,      -13.0615234375,      -87.1734619141
1494036439.7969920635,       -0.7260742188,        0.2353515625,       -0.0864257812,        2.7770996094,      -12.9547119141,      -86.3494873047
1494036439.7996819019,       -0.7387695312,        0.2475585938,       -0.0737304688,        2.7770996094,      -12.9547119141,      -86.3494873047
1494036439.8023738861,       -0.7387695312,        0.2475585938,       -0.0737304688,        2.2430419922,      -12.7105712891,      -85.1287841797
1494036439.8050699234,       -0.7387695312,        0.2475585938,       -0.0737304688,        2.2430419922,      -12.7105712891,      -85.1287841797
1494036439.8077659607,       -0.7387695312,        0.2475585938,       -0.0737304688,        1.6021728516,      -12.8479003906,      -84.1522216797
1494036439.8104579449,       -0.7294921875,        0.2500000000,       -0.0727539062,        1.6021728516,      -12.8479003906,      -84.1522216797
1494036439.8131909370,       -0.7294921875,        0.2500000000,       -0.0727539062,        0.7934570312,      -12.4816894531,      -83.0535888672
1494036439.8157498837,       -0.7294921875,        0.2500000000,       -0.0727539062,        0.7934570312,      -12.4816894531,      -83.0535888672
1494036439.8183090687,       -0.7294921875,        0.2500000000,       -0.0727539062,       -0.6561279297,      -10.9252929688,      -81.6955566406
1494036439.8208670616,       -0.7353515625,        0.2397460938,       -0.0795898438,       -0.6561279297,      -10.9252929688,      -81.6955566406
1494036439.8234810829,       -0.7353515625,        0.2397460938,       -0.0795898438,       -3.0670166016,      -10.1165771484,      -79.6051025391
1494036439.8261780739,       -0.7353515625,        0.2397460938,       -0.0795898438,       -3.0670166016,      -10.1165771484,      -79.6051025391
1494036439.8288710117,       -0.7353515625,        0.2397460938,       -0.0590820312,       -6.0424804688,       -9.3688964844,      -77.3315429688
1494036439.8317379951,       -0.7275390625,        0.2324218750,       -0.0590820312,       -6.0424804688,       -9.3688964844,      -77.3315429688
1494036439.8349881172,       -0.7275390625,        0.2324218750,       -0.0590820312,       -8.1939697266,       -9.0179443359,      -75.0427246094
1494036439.8376879692,       -0.7275390625,        0.2324218750,       -0.0590820312,       -8.1939697266,       -9.0179443359,      -75.0427246094
1494036439.8403820992,       -0.7294921875,        0.2377929688,       -0.0585937500,      -10.4827880859,       -8.4381103516,      -72.6165771484
1494036439.8430778980,       -0.7294921875,        0.2377929688,       -0.0585937500,      -10.4827880859,       -8.4381103516,      -72.6165771484
1494036439.8457899094,       -0.7294921875,        0.2377929688,       -0.0585937500,      -12.4664306641,       -7.5073242188,      -69.9310302734
1494036439.8484909534,       -0.7294921875,        0.2377929688,       -0.0585937500,      -12.4664306641,       -7.5073242188,      -69.9310302734
1494036439.8511888981,       -0.7211914062,        0.2465820312,       -0.0473632812,      -13.8854980469,       -6.7291259766,      -67.6422119141
1494036439.8539049625,       -0.7211914062,        0.2465820312,       -0.0473632812,      -13.8854980469,       -6.7291259766,      -67.6422119141
1494036439.8566000462,       -0.7211914062,        0.2465820312,       -0.0473632812,      -15.9301757812,       -6.3629150391,      -65.2770996094
1494036439.8592979908,       -0.7211914062,        0.2407226562,       -0.0478515625,      -15.9301757812,       -6.3629150391,      -65.2770996094
1494036439.8619918823,       -0.7172851562,        0.2407226562,       -0.0478515625,      -17.7764892578,       -5.5389404297,      -62.2253417969
1494036439.8646240234,       -0.7172851562,        0.2407226562,       -0.0478515625,      -17.7764892578,       -5.5389404297,      -62.2253417969
1494036439.8671739101,       -0.7172851562,        0.2407226562,       -0.0478515625,      -18.9819335938,       -5.1574707031,      -59.1735839844
1494036439.8697309494,       -0.7172851562,        0.2246093750,       -0.0439453125,      -18.9819335938,       -5.1574707031,      -59.1735839844
1494036439.8722860813,       -0.7231445312,        0.2246093750,       -0.0439453125,      -18.9819335938,       -4.7149658203,      -56.4575195312
1494036439.8748490810,       -0.7231445312,        0.2246093750,       -0.0439453125,      -20.4467773438,       -4.7149658203,      -56.4575195312
1494036439.8774030209,       -0.7231445312,        0.2246093750,       -0.0439453125,      -20.4467773438,       -4.7149658203,      -53.9703369141
1494036439.8799579144,       -0.7221679688,        0.1962890625,       -0.0493164062,      -22.7813720703,       -4.2266845703,      -53.9703369141
1494036439.8825139999,       -0.7221679688,        0.1962890625,       -0.0493164062,      -22.7813720703,       -4.2266845703,      -51.2542724609
1494036439.8851780891,       -0.7221679688,        0.1962890625,       -0.0493164062,      -25.6042480469,       -3.6010742188,      -51.2542724609
1494036439.8877329826,       -0.7221679688,        0.1962890625,       -0.0493164062,      -25.6042480469,       -3.6010742188,      -51.2542724609
1494036439.8902881145,       -0.7124023438,        0.1733398438,       -0.0410156250,      -28.6712646484,       -2.6245117188,      -47.9278564453
1494036439.8928480148,       -0.7124023438,        0.1733398438,       -0.0410156250,      -28.6712646484,       -2.6245117188,      -47.9278564453
1494036439.8956389427,       -0.7124023438,        0.1733398438,       -0.0410156250,      -31.6925048828,       -1.5563964844,      -44.4488525391
1494036439.8983380795,       -0.7124023438,        0.1733398438,       -0.0410156250,      -31.6925048828,       -1.5563964844,      -44.4488525391
1494036439.9010369778,       -0.7148437500,        0.1528320312,       -0.0541992188,      -34.6527099609,       -0.7781982422,      -41.0308837891
1494036439.9037420750,       -0.7148437500,        0.1528320312,       -0.0541992188,      -34.6527099609,       -0.7781982422,      -41.0308837891
1494036439.9064419270,       -0.7148437500,        0.1528320312,       -0.0541992188,      -36.9415283203,       -0.0152587891,      -37.6892089844
1494036439.9092490673,       -0.7148437500,        0.1528320312,       -0.0561523438,      -36.9415283203,       -0.0152587891,      -37.6892089844
1494036439.9119501114,       -0.7045898438,        0.1396484375,       -0.0561523438,      -38.9404296875,        0.3967285156,      -34.6832275391
1494036439.9146211147,       -0.7045898438,        0.1396484375,       -0.0561523438,      -38.9404296875,        0.3967285156,      -34.6832275391
1494036439.9171829224,       -0.7045898438,        0.1396484375,       -0.0561523438,      -41.7785644531,        0.9155273438,      -31.9519042969
1494036439.9197380543,       -0.7045898438,        0.1396484375,       -0.0605468750,      -41.7785644531,        0.9155273438,      -31.9519042969
1494036439.9222869873,       -0.6962890625,        0.1269531250,       -0.0605468750,      -44.0979003906,        1.7395019531,      -29.2053222656
1494036439.9248559475,       -0.6962890625,        0.1269531250,       -0.0605468750,      -44.0979003906,        1.7395019531,      -29.2053222656
1494036439.9274170399,       -0.6962890625,        0.1269531250,       -0.0605468750,      -45.8374023438,        2.4871826172,      -26.2756347656
1494036439.9299709797,       -0.6962890625,        0.1098632812,       -0.0600585938,      -45.8374023438,        2.4871826172,      -26.2756347656
1494036439.9325230122,       -0.7036132812,        0.1098632812,       -0.0600585938,      -47.7752685547,        3.2653808594,      -23.7884521484
1494036439.9351999760,       -0.7036132812,        0.1098632812,       -0.0600585938,      -47.7752685547,        3.2653808594,      -23.7884521484
1494036439.9377579689,       -0.7036132812,        0.1098632812,       -0.0600585938,      -47.7752685547,        4.2266845703,      -21.5759277344
1494036439.9403159618,       -0.7036132812,        0.0996093750,       -0.0668945312,      -50.1556396484,        4.2266845703,      -21.5759277344
1494036439.9428789616,       -0.7045898438,        0.0996093750,       -0.0668945312,      -50.1556396484,        5.2490234375,      -19.1802978516
1494036439.9456160069,       -0.7045898438,        0.0996093750,       -0.0668945312,      -53.7567138672,        5.2490234375,      -19.1802978516
1494036439.9482679367,       -0.7045898438,        0.0996093750,       -0.0668945312,      -57.6629638672,        6.0119628906,      -17.1508789062
1494036439.9511930943,       -0.6894531250,        0.0986328125,       -0.0688476562,      -57.9223632812,        6.0119628906,      -17.1508789062
1494036439.9539630413,       -0.6894531250,        0.0986328125,       -0.0688476562,      -61.8286132812,        6.8054199219,      -15.1062011719
1494036439.9566740990,       -0.6894531250,        0.0986328125,       -0.0688476562,      -61.7065429688,        6.8054199219,      -15.1062011719
1494036439.9593729973,       -0.6894531250,        0.0986328125,       -0.0688476562,      -65.6127929688,        7.3852539062,      -13.2598876953
1494036439.9620668888,       -0.6870117188,        0.0942382812,       -0.0673828125,      -65.0177001953,        7.3852539062,      -13.2598876953
1494036439.9647018909,       -0.6870117188,        0.0942382812,       -0.0673828125,      -65.0177001953,       11.2915039062,      -11.9476318359
1494036439.9672679901,       -0.6870117188,        0.0942382812,       -0.0673828125,      -67.8710937500,        8.1634521484,      -11.9476318359
1494036439.9698250294,       -0.6870117188,        0.0942382812,       -0.0502929688,      -67.8710937500,        8.1634521484,      -10.8947753906
1494036439.9723789692,       -0.6787109375,        0.0966796875,       -0.0502929688,      -71.2127685547,        9.0026855469,      -10.8947753906
1494036439.9750819206,       -0.6787109375,        0.0966796875,       -0.0502929688,      -71.2127685547,        9.0026855469,       -9.8876953125
1494036439.9777810574,       -0.6787109375,        0.0966796875,       -0.0502929688,      -74.0356445312,        9.4604492188,       -9.8876953125
1494036439.9804739952,       -0.6787109375,        0.1000976562,       -0.0371093750,      -74.0356445312,        9.4604492188,       -9.0179443359
1494036439.9832890034,       -0.6596679688,        0.1000976562,       -0.0371093750,      -76.3092041016,        9.9334716797,       -9.0179443359
1494036439.9858500957,       -0.6596679688,        0.1000976562,       -0.0371093750,      -76.3092041016,        9.9334716797,       -9.0179443359
1494036439.9884068966,       -0.6596679688,        0.1000976562,       -0.0371093750,      -76.9805908203,        9.9945068359,       -8.3923339844
1494036439.9909589291,       -0.6479492188,        0.1259765625,       -0.0449218750,      -76.9805908203,        9.9945068359,       -8.3923339844
1494036439.9935109615,       -0.6479492188,        0.1259765625,       -0.0449218750,      -76.3854980469,        9.7198486328,       -7.3852539062
1494036439.9960699081,       -0.6479492188,        0.1259765625,       -0.0449218750,      -76.3854980469,        9.7198486328,       -7.3852539062
1494036439.9986209869,       -0.6479492188,        0.1259765625,       -0.0449218750,      -75.1800537109,        9.4604492188,       -6.4086914062
1494036440.0011761189,       -0.6455078125,        0.1264648438,       -0.0439453125,      -75.1800537109,        9.4604492188,       -6.4086914062
1494036440.0038359165,       -0.6455078125,        0.1264648438,       -0.0439453125,      -73.9898681641,        9.2315673828,       -5.9509277344
1494036440.0063929558,       -0.6455078125,        0.1264648438,       -0.0439453125,      -73.9898681641,        9.2315673828,       -5.9509277344
1494036440.0089519024,       -0.6455078125,        0.1264648438,       -0.0439453125,      -72.3571777344,        8.3465576172,       -5.2185058594
1494036440.0115070343,       -0.6494140625,        0.1352539062,       -0.0546875000,      -72.3571777344,        8.3465576172,       -5.2185058594
1494036440.0142099857,       -0.6494140625,        0.1352539062,       -0.0546875000,      -69.8089599609,        7.7819824219,       -4.3640136719
1494036440.0169029236,       -0.6494140625,        0.1352539062,       -0.0546875000,      -69.8089599609,        7.7819824219,       -4.3640136719
1494036440.0195939541,       -0.6494140625,        0.1352539062,       -0.0546875000,      -66.6656494141,        7.2174072266,       -3.8452148438
1494036440.0222909451,       -0.6479492188,        0.1367187500,       -0.0556640625,      -66.6656494141,        7.2174072266,       -3.8452148438
1494036440.0249860287,       -0.6479492188,        0.1367187500,       -0.0556640625,      -62.9119873047,        6.4849853516,       -3.4179687500
1494036440.0276830196,       -0.6479492188,        0.1367187500,       -0.0556640625,      -62.9119873047,        6.4849853516,       -3.4179687500
1494036440.0303750038,       -0.6479492188,        0.1367187500,       -0.0556640625,      -60.0433349609,        5.7525634766,       -2.8381347656
1494036440.0330679417,       -0.6518554688,        0.1176757812,       -0.0556640625,      -60.0433349609,        5.7525634766,       -2.8381347656
1494036440.0357720852,       -0.6518554688,        0.1176757812,       -0.0556640625,      -57.5408935547,        5.4168701172,       -2.7160644531
1494036440.0384569168,       -0.6518554688,        0.1176757812,       -0.0556640625,      -57.5408935547,        5.4168701172,       -2.7160644531
1494036440.0411489010,       -0.6518554688,        0.1044921875,       -0.0449218750,      -53.6346435547,        5.1574707031,       -2.3498535156
1494036440.0438539982,       -0.6503906250,        0.1044921875,       -0.0449218750,      -54.6417236328,        5.1574707031,       -2.3498535156
1494036440.0464088917,       -0.6503906250,        0.1044921875,       -0.0449218750,      -54.6417236328,        4.7454833984,       -2.0294189453
1494036440.0489659309,       -0.6503906250,        0.1044921875,       -0.0449218750,      -51.0864257812,        4.7454833984,       -2.0294189453
1494036440.0515170097,       -0.6567382812,        0.1079101562,       -0.0463867188,      -51.0864257812,        4.7454833984,       -1.4495849609
1494036440.0543169975,       -0.6567382812,        0.1079101562,       -0.0463867188,      -47.3632812500,        4.5471191406,       -1.4495849609
1494036440.0568780899,       -0.6567382812,        0.1079101562,       -0.0463867188,      -47.3632812500,        4.5471191406,       -1.0070800781
1494036440.0594320297,       -0.6567382812,        0.1079101562,       -0.0463867188,      -43.4112548828,        4.2419433594,       -1.0070800781
1494036440.0619869232,       -0.6640625000,        0.0986328125,       -0.0449218750,      -43.4112548828,        4.2419433594,       -1.0070800781
1494036440.0646879673,       -0.6640625000,        0.0986328125,       -0.0449218750,      -39.9169921875,        3.2348632812,       -1.0375976562
1494036440.0673799515,       -0.6640625000,        0.0986328125,       -0.0449218750,      -39.9169921875,        3.2348632812,       -1.1596679688
1494036440.0703089237,       -0.6640625000,        0.0986328125,       -0.0449218750,      -36.2091064453,        2.7618408203,       -1.1596679688
1494036440.0734169483,       -0.6630859375,        0.1132812500,       -0.0566406250,      -36.2091064453,        2.7618408203,       -1.1138916016
1494036440.0761179924,       -0.6630859375,        0.1132812500,       -0.0566406250,      -33.2031250000,        2.7313232422,       -1.1138916016
1494036440.0788149834,       -0.6630859375,        0.1132812500,       -0.0566406250,      -33.2031250000,        2.7313232422,       -1.3122558594
1494036440.0815079212,       -0.6630859375,        0.1337890625,       -0.0522460938,      -29.1595458984,        2.0751953125,       -1.3122558594
1494036440.0842089653,       -0.6704101562,        0.1337890625,       -0.0522460938,      -29.1595458984,        2.0751953125,       -1.2817382812
1494036440.0869059563,       -0.6704101562,        0.1337890625,       -0.0522460938,      -24.8260498047,        0.7781982422,       -1.2817382812
1494036440.0895988941,       -0.6704101562,        0.1337890625,       -0.0522460938,      -24.8260498047,        0.7781982422,       -0.7324218750
1494036440.0922899246,       -0.6669921875,        0.1406250000,       -0.0595703125,      -19.4549560547,       -0.1831054688,       -0.7324218750
1494036440.0949890614,       -0.6669921875,        0.1406250000,       -0.0595703125,      -19.4549560547,       -0.1831054688,       -0.3204345703
1494036440.0976829529,       -0.6669921875,        0.1406250000,       -0.0595703125,      -14.7094726562,       -1.0528564453,       -0.3204345703
1494036440.1003799438,       -0.6669921875,        0.1406250000,       -0.0595703125,      -14.7094726562,       -1.0528564453,        0.0457763672
1494036440.1030700207,       -0.6464843750,        0.1552734375,       -0.0649414062,      -10.4522705078,       -2.0599365234,        0.0457763672
1494036440.1056489944,       -0.6464843750,        0.1552734375,       -0.0649414062,      -10.4522705078,       -2.0599365234,        0.0457763672
1494036440.1081988811,       -0.6464843750,        0.1552734375,       -0.0649414062,       -7.0037841797,       -3.5247802734,        0.6408691406
1494036440.1107459068,       -0.6464843750,        0.1552734375,       -0.0649414062,       -7.0037841797,       -3.5247802734,        0.6408691406
1494036440.1132960320,       -0.6381835938,        0.1435546875,       -0.0463867188,       -3.2348632812,       -4.3640136719,        1.4343261719
1494036440.1158440113,       -0.6381835938,        0.1435546875,       -0.0463867188,       -3.2348632812,       -4.3640136719,        1.4343261719
1494036440.1183910370,       -0.6381835938,        0.1435546875,       -0.0463867188,       -0.2593994141,       -4.7912597656,        1.7395019531
1494036440.1209349632,       -0.6381835938,        0.1435546875,       -0.0463867188,       -0.2593994141,       -4.7912597656,        1.7395019531
1494036440.1236019135,       -0.6308593750,        0.1245117188,       -0.0708007812,        0.8544921875,       -6.0119628906,        2.3956298828
1494036440.1261498928,       -0.6308593750,        0.1245117188,       -0.0708007812,        0.8544921875,       -6.0119628906,        2.3956298828
1494036440.1288130283,       -0.6308593750,        0.1245117188,       -0.0708007812,        0.9613037109,       -6.1492919922,        2.4414062500
1494036440.1313641071,       -0.6308593750,        0.1245117188,       -0.0751953125,        0.9613037109,       -6.1492919922,        2.4414062500
1494036440.1341080666,       -0.6298828125,        0.0966796875,       -0.0751953125,        1.0528564453,       -6.5307617188,        2.6397705078
1494036440.1367950439,       -0.6298828125,        0.0966796875,       -0.0751953125,        1.0528564453,       -6.5307617188,        2.6397705078
1494036440.1394848824,       -0.6298828125,        0.0966796875,       -0.0751953125,        1.2054443359,       -6.9427490234,        3.0517578125
1494036440.1421759129,       -0.6298828125,        0.0795898438,       -0.0854492188,        1.2054443359,       -6.9427490234,        3.0517578125
1494036440.1447908878,       -0.6259765625,        0.0795898438,       -0.0854492188,        0.9918212891,       -6.8969726562,        3.6163330078
1494036440.1473400593,       -0.6259765625,        0.0795898438,       -0.0854492188,        0.9918212891,       -6.8969726562,        3.6163330078
1494036440.1498820782,       -0.6259765625,        0.0795898438,       -0.0854492188,        0.9918212891,       -7.1258544922,        3.8146972656
1494036440.1524269581,       -0.6108398438,        0.0537109375,       -0.0937500000,        0.4882812500,       -7.1258544922,        3.8146972656
1494036440.1551198959,       -0.6108398438,        0.0537109375,       -0.0937500000,        0.4882812500,       -7.1258544922,        4.0435791016
1494036440.1578059196,       -0.6108398438,        0.0537109375,       -0.0937500000,       -0.6713867188,       -6.5002441406,        4.0435791016
1494036440.1604900360,       -0.6108398438,        0.0537109375,       -0.0937500000,       -0.6713867188,       -6.5002441406,        3.5858154297
1494036440.1631848812,       -0.5786132812,        0.0507812500,       -0.0834960938,       -1.7242431641,       -6.0119628906,        3.5858154297
1494036440.1658649445,       -0.5786132812,        0.0507812500,       -0.0834960938,       -1.7242431641,       -6.0119628906,        3.2196044922
1494036440.1685509682,       -0.5786132812,        0.0507812500,       -0.0834960938,       -2.0446777344,       -6.2561035156,        3.2196044922
1494036440.1712279320,       -0.5786132812,        0.0507812500,       -0.0834960938,       -2.0446777344,       -6.2561035156,        3.0364990234
1494036440.1739239693,       -0.5625000000,        0.0776367188,       -0.0971679688,       -0.7934570312,       -6.5307617188,        3.0364990234
1494036440.1766080856,       -0.5625000000,        0.0776367188,       -0.0971679688,       -0.7934570312,       -6.5307617188,        3.1585693359
1494036440.1792969704,       -0.5625000000,        0.0776367188,       -0.0971679688,        1.2359619141,       -7.0495605469,        3.1585693359
1494036440.1819829941,       -0.5625000000,        0.0776367188,       -0.1123046875,        1.2359619141,       -7.0495605469,        3.1738281250
1494036440.1846809387,       -0.5649414062,        0.1088867188,       -0.1123046875,        3.5552978516,       -6.9732666016,        3.1738281250
1494036440.1873650551,       -0.5649414062,        0.1088867188,       -0.1123046875,        3.5552978516,       -6.9732666016,        3.3416748047
1494036440.1901350021,       -0.5649414062,        0.1088867188,       -0.1123046875,        6.1492919922,       -6.1950683594,        3.3416748047
1494036440.1932590008,       -0.5917968750,        0.1313476562,       -0.1245117188,        6.1492919922,       -6.1950683594,        4.7302246094
1494036440.1958138943,       -0.5917968750,        0.1313476562,       -0.1245117188,        8.8500976562,       -6.2408447266,        4.7302246094
1494036440.1983609200,       -0.5917968750,        0.1313476562,       -0.1245117188,        8.8500976562,       -6.2408447266,        6.2408447266
1494036440.2008979321,       -0.5917968750,        0.1313476562,       -0.1245117188,       11.8408203125,       -6.1340332031,        6.2408447266
1494036440.2036108971,       -0.6181640625,        0.1416015625,       -0.1269531250,       11.8408203125,       -6.1340332031,       10.1470947266
1494036440.2063100338,       -0.6181640625,        0.1416015625,       -0.1269531250,       13.3361816406,       -5.2032470703,        7.9650878906
1494036440.2090010643,       -0.6181640625,        0.1416015625,       -0.1269531250,       13.3361816406,       -5.2032470703,        7.9650878906
1494036440.2116899490,       -0.6181640625,        0.1416015625,       -0.1269531250,       13.3972167969,       -4.9285888672,        9.4604492188
1494036440.2143909931,       -0.6113281250,        0.1352539062,       -0.1259765625,       13.3972167969,       -4.9285888672,        9.4604492188
1494036440.2170810699,       -0.6113281250,        0.1352539062,       -0.1259765625,       13.9007568359,       -5.4931640625,       11.4135742188
1494036440.2197790146,       -0.6113281250,        0.1352539062,       -0.1259765625,       13.9007568359,       -5.4931640625,       15.3198242188
1494036440.2224729061,       -0.6113281250,        0.1352539062,       -0.0864257812,       13.7939453125,       -6.6680908203,       14.0228271484
1494036440.2250869274,       -0.5859375000,        0.1269531250,       -0.0864257812,       13.7939453125,       -6.6680908203,       14.0228271484
1494036440.2276389599,       -0.5859375000,        0.1269531250,       -0.0864257812,       12.1612548828,       -6.8359375000,       16.3269042969
1494036440.2301909924,       -0.5859375000,        0.1269531250,       -0.0864257812,       12.1612548828,       -6.8359375000,       16.3269042969
1494036440.2327449322,       -0.5859375000,        0.1489257812,       -0.0883789062,       11.9628906250,       -7.1716308594,       18.2647705078
1494036440.2353539467,       -0.5576171875,        0.1489257812,       -0.0883789062,       11.9628906250,       -7.1716308594,       18.2647705078
1494036440.2379119396,       -0.5576171875,        0.1489257812,       -0.0883789062,       12.2833251953,       -7.7667236328,       20.0805664062
1494036440.2404611111,       -0.5576171875,        0.1489257812,       -0.0883789062,       12.2833251953,       -7.7667236328,       20.0805664062
1494036440.2430160046,       -0.5576171875,        0.2368164062,       -0.1352539062,       13.8244628906,       -8.1787109375,       22.8729248047
1494036440.2457039356,       -0.5590820312,        0.2368164062,       -0.1352539062,       13.8244628906,       -8.1787109375,       22.8729248047
1494036440.2482590675,       -0.5590820312,        0.2368164062,       -0.1352539062,       15.6860351562,       -7.0800781250,       25.8483886719
1494036440.2508161068,       -0.5590820312,        0.2368164062,       -0.1352539062,       15.6860351562,       -7.0800781250,       25.8483886719
1494036440.2535638809,       -0.7172851562,        0.6313476562,       -0.2280273438,       21.8658447266,       -8.0413818359,       31.3568115234
1494036440.2562620640,       -0.7172851562,        0.6313476562,       -0.2280273438,       21.8658447266,       -8.0413818359,       31.3568115234
1494036440.2589631081,       -0.7172851562,        0.6313476562,       -0.2280273438,       15.9301757812,      -14.4653320312,       52.9632568359
1494036440.2616579533,       -0.7172851562,        0.6313476562,       -0.2280273438,       15.9301757812,      -14.4653320312,       52.9632568359
1494036440.2643620968,       -0.6889648438,        1.6250000000,        0.4716796875,      -19.2260742188,      -12.1917724609,       73.6541748047
1494036440.2670569420,       -0.6889648438,        1.6250000000,        0.4716796875,      -18.8446044922,      -12.1917724609,       73.6541748047
1494036440.2697560787,       -0.6889648438,        1.6250000000,        0.4716796875,      -38.3758544922,       -4.0283203125,       79.3914794922
1494036440.2724499702,       -0.6889648438,        1.6250000000,        0.0966796875,      -38.9099121094,       -4.0283203125,       79.3914794922
1494036440.2752559185,       -0.4677734375,        1.2436523438,        0.0649414062,      -24.8413085938,        2.0446777344,       87.8601074219
1494036440.2779550552,       -0.4677734375,        1.2436523438,        0.0649414062,      -24.8413085938,        2.0446777344,       87.8601074219
1494036440.2806529999,       -0.4677734375,        1.2436523438,        0.0649414062,      -24.8413085938,        2.9296875000,      112.5335693359
1494036440.2833371162,       -0.4677734375,        1.3120117188,        0.3481445312,      -26.8402099609,        2.9296875000,      112.5335693359
1494036440.2858920097,       -0.6943359375,        1.3120117188,        0.3481445312,      -26.8402099609,       -2.5329589844,      128.0822753906
1494036440.2884418964,       -0.6943359375,        1.3120117188,        0.3481445312,      -38.2232666016,       -2.5329589844,      128.0822753906
1494036440.2909970284,       -0.6943359375,        1.3120117188,        0.3481445312,      -38.2232666016,       -2.5329589844,      113.8458251953
1494036440.2935719490,       -1.1943359375,       -0.6640625000,        0.1865234375,      -24.2767333984,       -7.5836181641,      113.8458251953
1494036440.2962689400,       -1.2280273438,       -0.6640625000,        0.1865234375,      -24.2767333984,       -7.5836181641,       93.7805175781
1494036440.2989640236,       -1.2280273438,       -0.6640625000,        0.1865234375,       -5.1879882812,      -13.1072998047,       93.7805175781
1494036440.3016579151,       -1.2280273438,       -0.6640625000,        0.1865234375,       -5.1879882812,      -13.1072998047,       80.0323486328
1494036440.3043711185,       -1.5283203125,       -1.4711914062,       -0.0522460938,      -14.8925781250,      -10.4217529297,       80.0323486328
1494036440.3070690632,       -1.5283203125,       -1.4711914062,       -0.0522460938,      -14.8925781250,      -10.4217529297,       69.7631835938
1494036440.3099179268,       -1.5283203125,       -1.4711914062,       -0.0522460938,      -29.9224853516,       -3.9062500000,       69.7631835938
1494036440.3126130104,       -1.5283203125,       -1.4711914062,        0.1977539062,      -29.9224853516,       -0.1983642578,       65.6127929688
1494036440.3157200813,       -1.2534179688,       -0.4819335938,        0.1499023438,      -28.9459228516,       -0.1983642578,       65.6127929688
1494036440.3184199333,       -1.2534179688,       -0.4819335938,        0.1499023438,      -28.9459228516,       -0.1983642578,       66.3452148438
1494036440.3211159706,       -1.2534179688,       -0.4819335938,        0.1499023438,      -37.8723144531,       -0.9613037109,       66.3452148438
1494036440.3238570690,       -1.1284179688,        0.3242187500,        0.2099609375,      -37.8723144531,       -4.8675537109,       70.5718994141
1494036440.3265500069,       -1.1557617188,        0.3242187500,        0.2099609375,      -41.9464111328,       -4.8370361328,       70.5718994141
1494036440.3292510509,       -1.1557617188,        0.3242187500,        0.2099609375,      -41.9464111328,       -4.8370361328,       75.0427246094
1494036440.3319489956,       -1.1557617188,        0.3242187500,        0.2099609375,      -38.7878417969,       -5.0964355469,       75.0427246094
1494036440.3346168995,       -1.1860351562,       -0.0073242188,       -0.1171875000,      -38.7878417969,       -5.0964355469,       74.3408203125
1494036440.3371760845,       -1.1860351562,       -0.0073242188,       -0.1171875000,      -32.9589843750,       -5.0659179688,       74.3408203125
1494036440.3397350311,       -1.1860351562,       -0.0073242188,       -0.1171875000,      -32.9589843750,       -5.0659179688,       66.5283203125
1494036440.3422970772,       -1.1860351562,       -0.0073242188,       -0.1171875000,      -33.5693359375,       -7.5073242188,       69.1223144531
1494036440.3448688984,       -1.1396484375,       -0.2861328125,       -0.2275390625,      -33.5693359375,       -7.5073242188,       69.1223144531
1494036440.3474268913,       -1.1396484375,       -0.2861328125,       -0.2275390625,      -43.3502197266,       -9.7045898438,       65.8569335938
1494036440.3500919342,       -1.1396484375,       -0.2861328125,       -0.2275390625,      -43.3502197266,       -9.7045898438,       65.8569335938
1494036440.3526539803,       -1.1396484375,       -0.2861328125,       -0.2275390625,      -50.2166748047,      -15.6250000000,       63.7359619141
1494036440.3552179337,       -1.0410156250,       -0.0258789062,        0.3354492188,      -50.2166748047,      -15.6250000000,       63.7359619141
1494036440.3577749729,       -1.0410156250,       -0.0258789062,        0.3354492188,      -45.1049804688,      -25.0701904297,       59.9365234375
1494036440.3603351116,       -1.0410156250,       -0.0258789062,        0.3354492188,      -45.1049804688,      -25.0701904297,       59.9365234375
1494036440.3628900051,       -1.0410156250,       -0.0258789062,        0.3354492188,      -32.0434570312,      -27.0385742188,       56.7626953125
1494036440.3655550480,       -1.4682617188,        0.1250000000,        0.0209960938,      -32.0434570312,      -27.0385742188,       56.7626953125
1494036440.3681159019,       -1.4682617188,        0.1250000000,        0.0209960938,      -17.5323486328,      -28.6407470703,       57.5714111328
1494036440.3706810474,       -1.4682617188,        0.1250000000,        0.0209960938,      -17.5323486328,      -28.6407470703,       57.5714111328
1494036440.3733079433,       -1.4682617188,        0.1250000000,       -0.2290039062,       -2.4261474609,      -28.3813476562,       57.7392578125
1494036440.3760099411,       -1.7304687500,        0.2724609375,       -0.2475585938,       -2.4261474609,      -28.3813476562,       57.7392578125
1494036440.3787050247,       -1.7304687500,        0.2724609375,       -0.2475585938,       10.1013183594,      -27.7557373047,       55.2368164062
1494036440.3814051151,       -1.7304687500,        0.2724609375,       -0.2475585938,       10.1013183594,      -27.7557373047,       55.2368164062
1494036440.3840739727,       -1.7304687500,        0.2255859375,       -0.4086914062,       14.0075683594,      -28.4729003906,       52.7038574219
1494036440.3866319656,       -1.2143554688,        0.2255859375,       -0.4086914062,       15.0909423828,      -28.4729003906,       52.7038574219
1494036440.3891899586,       -1.2143554688,        0.2255859375,       -0.4086914062,       15.0909423828,      -28.4729003906,       50.9948730469
1494036440.3917510509,       -1.2143554688,        0.2255859375,       -0.4086914062,        8.1176757812,      -29.9224853516,       50.9948730469
1494036440.3943810463,       -0.8393554688,        0.2436523438,       -0.3222656250,        8.1176757812,      -29.9224853516,       48.3551025391
1494036440.3970808983,       -0.7763671875,        0.2436523438,       -0.3222656250,       -2.6092529297,      -30.4870605469,       48.3551025391
1494036440.3997778893,       -0.7763671875,        0.2436523438,       -0.3222656250,       -2.6092529297,      -30.4870605469,       45.0134277344
1494036440.4024729729,       -0.7763671875,        0.2436523438,       -0.3222656250,      -11.1846923828,      -31.9061279297,       45.0134277344
1494036440.4050869942,       -0.5292968750,        0.3867187500,       -0.0502929688,      -11.1846923828,      -31.9061279297,       41.1071777344
1494036440.4076430798,       -0.5292968750,        0.3867187500,       -0.0502929688,      -15.1519775391,      -32.2418212891,       39.6728515625
1494036440.4102048874,       -0.5292968750,        0.3867187500,       -0.0502929688,      -15.1519775391,      -32.2418212891,       39.6728515625
1494036440.4127700329,       -0.5292968750,        0.3867187500,       -0.0502929688,      -13.7786865234,      -32.0892333984,       32.3944091797
1494036440.4155120850,       -0.4536132812,        0.4619140625,        0.1093750000,      -13.7786865234,      -32.0892333984,       32.3944091797
1494036440.4182078838,       -0.4536132812,        0.4619140625,        0.1093750000,       -7.6293945312,      -31.9671630859,       24.0020751953
1494036440.4209029675,       -0.4536132812,        0.4619140625,        0.1093750000,       -7.6293945312,      -31.9671630859,       24.0020751953
1494036440.4237129688,       -0.4536132812,        0.4619140625,        0.2343750000,       -1.2207031250,      -29.9530029297,       16.5405273438
1494036440.4264149666,       -0.5336914062,        0.4624023438,        0.1860351562,       -1.2207031250,      -29.9530029297,       16.5405273438
1494036440.4291129112,       -0.5336914062,        0.4624023438,        0.1860351562,        3.3569335938,      -27.2674560547,        9.5214843750
1494036440.4318990707,       -0.5336914062,        0.4624023438,        0.1860351562,        3.3569335938,      -27.2674560547,        5.6152343750
1494036440.4348430634,       -0.5336914062,        0.3803710938,        0.2387695312,        5.8898925781,      -23.4527587891,        4.3334960938
1494036440.4373950958,       -0.5957031250,        0.3803710938,        0.2387695312,        5.8898925781,      -23.4527587891,        4.3334960938
1494036440.4399468899,       -0.5957031250,        0.3803710938,        0.2387695312,        4.7607421875,      -19.1192626953,       -0.8850097656
1494036440.4424989223,       -0.5957031250,        0.3803710938,        0.2387695312,        4.7607421875,      -19.1192626953,       -0.8850097656
1494036440.4451699257,       -0.6640625000,        0.2626953125,        0.2680664062,        2.3193359375,      -15.1214599609,       -5.9204101562
1494036440.4478640556,       -0.6640625000,        0.2626953125,        0.2680664062,        2.3193359375,      -15.1214599609,       -5.9204101562
1494036440.4505600929,       -0.6640625000,        0.2626953125,        0.2680664062,        0.0915527344,      -10.7269287109,       -9.3688964844
1494036440.4532620907,       -0.6640625000,        0.2626953125,        0.2680664062,        0.0915527344,      -10.7269287109,       -9.3688964844
1494036440.4559550285,       -0.7504882812,        0.2480468750,        0.1591796875,       -0.3509521484,       -5.4016113281,      -10.8947753906
1494036440.4586489201,       -0.7504882812,        0.2480468750,        0.1591796875,       -0.3509521484,       -5.4016113281,      -10.8947753906
1494036440.4613409042,       -0.7504882812,        0.2480468750,        0.1591796875,       -1.6326904297,       -0.9918212891,      -11.7950439453
1494036440.4640529156,       -0.7504882812,        0.2480468750,        0.1591796875,       -1.6326904297,       -0.9918212891,      -11.7950439453
1494036440.4666070938,       -0.7778320312,        0.2138671875,        0.0996093750,       -3.3264160156,        1.5411376953,      -12.6953125000
1494036440.4691550732,       -0.7778320312,        0.2138671875,        0.0996093750,       -3.3264160156,        1.5411376953,      -12.6953125000
1494036440.4717030525,       -0.7778320312,        0.2138671875,        0.0996093750,       -6.8664550781,        2.8533935547,      -13.3972167969
1494036440.4742610455,       -0.7778320312,        0.2138671875,        0.0996093750,       -6.8664550781,        2.8533935547,      -13.3972167969
1494036440.4768140316,       -0.7895507812,        0.1699218750,        0.0756835938,      -11.2457275391,        4.6386718750,      -13.4124755859
1494036440.4793710709,       -0.7895507812,        0.1699218750,        0.0756835938,      -11.2457275391,        4.6386718750,      -13.4124755859
1494036440.4819250107,       -0.7895507812,        0.1699218750,        0.0756835938,      -15.1519775391,        6.8664550781,      -12.8173828125
1494036440.4846160412,       -0.7895507812,        0.1699218750,        0.0834960938,      -14.5568847656,        6.8664550781,      -12.8173828125
1494036440.4871749878,       -0.7724609375,        0.1245117188,        0.0834960938,      -14.5568847656,       10.7727050781,      -11.6271972656
1494036440.4897389412,       -0.7724609375,        0.1245117188,        0.0834960938,      -16.9219970703,        8.2702636719,      -11.6271972656
1494036440.4922969341,       -0.7724609375,        0.1245117188,        0.0834960938,      -16.9219970703,        8.2702636719,      -10.4522705078
1494036440.4951500893,       -0.7724609375,        0.1381835938,        0.0532226562,      -19.1650390625,        7.1105957031,      -10.4522705078
1494036440.4978530407,       -0.7260742188,        0.1381835938,        0.0532226562,      -19.1650390625,        7.1105957031,       -9.4757080078
1494036440.5005469322,       -0.7260742188,        0.1381835938,        0.0532226562,      -18.5699462891,        4.6997070312,       -9.4757080078
1494036440.5032489300,       -0.7260742188,        0.1381835938,        0.0532226562,      -18.5699462891,        4.6997070312,       -8.2702636719
1494036440.5059421062,       -0.7221679688,        0.1918945312,       -0.0136718750,      -14.4195556641,        2.6550292969,       -8.2702636719
1494036440.5086269379,       -0.7221679688,        0.1918945312,       -0.0136718750,      -14.4195556641,        2.6550292969,       -6.8054199219
1494036440.5113201141,       -0.7221679688,        0.1918945312,       -0.0136718750,       -9.0789794922,        0.9918212891,       -6.8054199219
1494036440.5140559673,       -0.7221679688,        0.1918945312,       -0.0136718750,       -9.0789794922,        0.9918212891,       -6.0424804688
1494036440.5167438984,       -0.7167968750,        0.1743164062,       -0.0429687500,       -4.3945312500,       -1.1901855469,       -6.0424804688
1494036440.5194311142,       -0.7167968750,        0.1743164062,       -0.0429687500,       -4.3945312500,       -1.1901855469,       -5.3710937500
1494036440.5221140385,       -0.7167968750,        0.1743164062,       -0.0429687500,       -2.1514892578,       -3.5552978516,       -5.3710937500
1494036440.5247199535,       -0.7167968750,        0.1743164062,       -0.0429687500,       -2.1514892578,       -3.5552978516,       -5.3710937500
1494036440.5272660255,       -0.7412109375,        0.0854492188,       -0.0512695312,       -0.3662109375,       -5.5999755859,       -4.6691894531
1494036440.5298099518,       -0.7412109375,        0.0854492188,       -0.0512695312,       -0.3662109375,       -5.5999755859,       -4.6691894531
1494036440.5323569775,       -0.7412109375,        0.0854492188,       -0.0512695312,        1.1596679688,       -6.7749023438,       -3.6621093750
1494036440.5350060463,       -0.7412109375,        0.0854492188,       -0.0424804688,        1.1596679688,       -6.7749023438,       -3.6621093750
1494036440.5376770496,       -0.7539062500,        0.0771484375,       -0.0424804688,       -0.1983642578,       -7.1868896484,       -1.9226074219
1494036440.5403559208,       -0.7539062500,        0.0771484375,       -0.0424804688,       -0.1983642578,       -7.1868896484,       -1.9226074219
1494036440.5430300236,       -0.7539062500,        0.0771484375,       -0.0424804688,       -2.9907226562,       -7.2021484375,       -0.4577636719
1494036440.5457339287,       -0.7539062500,        0.0878906250,        0.0122070312,       -2.9907226562,       -7.2021484375,       -0.4577636719
1494036440.5484199524,       -0.7568359375,        0.0878906250,        0.0122070312,       -6.2561035156,       -7.6599121094,        1.0681152344
1494036440.5511200428,       -0.7568359375,        0.0878906250,        0.0122070312,       -6.2561035156,       -7.6599121094,        1.0681152344
1494036440.5538558960,       -0.7568359375,        0.0878906250,        0.0122070312,       -8.6364746094,       -7.5378417969,        2.6245117188
1494036440.5565440655,       -0.7290039062,        0.1293945312,        0.0688476562,       -8.6364746094,       -7.5378417969,        2.6245117188
1494036440.5592260361,       -0.7290039062,        0.1293945312,        0.0688476562,      -10.4064941406,       -7.3242187500,        4.1046142578
1494036440.5620520115,       -0.7290039062,        0.1293945312,        0.0688476562,      -10.4064941406,       -7.3242187500,        4.1046142578
1494036440.5649240017,       -0.7290039062,        0.1293945312,        0.0688476562,      -10.5133056641,       -7.6751708984,        5.4168701172
1494036440.5676200390,       -0.7041015625,        0.1577148438,        0.1025390625,      -10.5133056641,       -7.6751708984,        5.4168701172
1494036440.5704228878,       -0.7041015625,        0.1577148438,        0.1025390625,       -9.4451904297,       -7.9040527344,        6.2255859375
1494036440.5731139183,       -0.7041015625,        0.1577148438,        0.1025390625,       -9.4451904297,       -7.9040527344,        6.2255859375
1494036440.5758039951,       -0.7041015625,        0.1699218750,        0.1054687500,       -7.0953369141,       -7.9193115234,        7.2021484375
1494036440.5784900188,       -0.6914062500,        0.1699218750,        0.1054687500,       -7.0953369141,       -7.9193115234,        7.2021484375
1494036440.5811729431,       -0.6914062500,        0.1699218750,        0.1054687500,       -5.5389404297,       -7.7056884766,        7.7209472656
1494036440.5838379860,       -0.6914062500,        0.1699218750,        0.1054687500,       -5.5389404297,       -7.7056884766,        7.7209472656
1494036440.5863869190,       -0.6870117188,        0.1538085938,        0.1337890625,       -4.6844482422,       -6.8511962891,        8.0718994141
1494036440.5889360905,       -0.6870117188,        0.1538085938,        0.1337890625,       -4.6844482422,       -6.8511962891,        8.0718994141
1494036440.5914800167,       -0.6870117188,        0.1538085938,        0.1337890625,       -4.0893554688,       -6.2713623047,        8.7585449219
1494036440.5941100121,       -0.6870117188,        0.1538085938,        0.1337890625,       -4.0893554688,       -6.2713623047,        8.7585449219
1494036440.5968000889,       -0.6538085938,        0.1489257812,        0.1499023438,       -3.2501220703,       -6.6833496094,        9.7961425781
1494036440.5994861126,       -0.6538085938,        0.1489257812,        0.1499023438,       -3.2501220703,       -6.6833496094,        9.7961425781
1494036440.6021749973,       -0.6538085938,        0.1489257812,        0.1499023438,       -3.2806396484,       -8.1634521484,       11.0626220703
1494036440.6047940254,       -0.6538085938,        0.1489257812,        0.1499023438,       -3.2806396484,       -8.1634521484,       11.0626220703
1494036440.6073420048,       -0.6625976562,        0.2124023438,        0.1088867188,       -3.2806396484,       -8.0261230469,       12.0391845703
1494036440.6098890305,       -0.6625976562,        0.2124023438,        0.1088867188,       -1.9683837891,       -8.0261230469,       12.0391845703
1494036440.6124360561,       -0.6625976562,        0.2124023438,        0.1088867188,       -1.9683837891,       -6.9427490234,       12.3443603516
1494036440.6151349545,       -0.6625976562,        0.2124023438,        0.1088867188,        1.5869140625,       -6.9427490234,       12.3443603516
1494036440.6176850796,       -0.7236328125,        0.2631835938,        0.0170898438,        1.5869140625,       -6.9427490234,       12.8479003906
1494036440.6202330589,       -0.7236328125,        0.2631835938,        0.0170898438,        6.5612792969,       -6.1645507812,       12.8479003906
1494036440.6227800846,       -0.7236328125,        0.2631835938,        0.0170898438,        6.5612792969,       -6.1645507812,       13.3361816406
1494036440.6255729198,       -0.7236328125,        0.2631835938,       -0.1079101562,       10.5285644531,       -5.8898925781,       13.3361816406
1494036440.6282470226,       -0.7866210938,        0.2319335938,       -0.0688476562,       10.5285644531,       -5.8898925781,       14.0838623047
1494036440.6309130192,       -0.7866210938,        0.2319335938,       -0.0688476562,       14.0380859375,       -5.9051513672,       14.0838623047
1494036440.6335749626,       -0.7866210938,        0.2319335938,       -0.0688476562,       14.0380859375,       -5.9051513672,       14.0838623047
1494036440.6361260414,       -0.7866210938,        0.2319335938,       -0.0991210938,       15.2893066406,       -6.8206787109,       14.7399902344
1494036440.6386749744,       -0.7832031250,        0.1982421875,       -0.0991210938,       15.2893066406,       -6.8206787109,       14.7399902344
1494036440.6412279606,       -0.7832031250,        0.1982421875,       -0.0991210938,       12.4206542969,       -7.5531005859,       15.8233642578
1494036440.6439230442,       -0.7832031250,        0.1982421875,       -0.0991210938,       12.4206542969,       -7.5531005859,       15.8233642578
1494036440.6466219425,       -0.7832031250,        0.1533203125,       -0.0751953125,        8.6059570312,       -9.0637207031,       17.7154541016
1494036440.6493129730,       -0.7709960938,        0.1533203125,       -0.0751953125,        8.6059570312,       -9.0637207031,       17.7154541016
1494036440.6520090103,       -0.7709960938,        0.1533203125,       -0.0751953125,        6.3934326172,       -8.3465576172,       18.9361572266
1494036440.6547119617,       -0.7709960938,        0.1533203125,       -0.0751953125,        6.3934326172,       -8.3465576172,       18.9361572266
1494036440.6573970318,       -0.7470703125,        0.1284179688,       -0.0029296875,        2.1209716797,       -6.2408447266,       19.3023681641
1494036440.6600921154,       -0.7470703125,        0.1284179688,       -0.0029296875,        2.1209716797,       -6.2408447266,       19.3023681641
1494036440.6627850533,       -0.7470703125,        0.1284179688,       -0.0029296875,       -2.9754638672,       -3.0822753906,       20.0805664062
1494036440.6654860973,       -0.7470703125,        0.1284179688,       -0.0029296875,       -2.9754638672,       -3.0822753906,       20.0805664062
1494036440.6681768894,       -0.7182617188,        0.1411132812,        0.0541992188,       -7.8582763672,       -1.3580322266,       21.4691162109
1494036440.6708641052,       -0.7182617188,        0.1411132812,        0.0541992188,       -7.8582763672,       -1.3580322266,       21.4691162109
1494036440.6735649109,       -0.7182617188,        0.1411132812,        0.0541992188,      -12.6953125000,       -0.2899169922,       22.4151611328
1494036440.6762549877,       -0.7182617188,        0.1411132812,        0.1176757812,      -12.6953125000,       -0.2899169922,       22.4151611328
1494036440.6789460182,       -0.7065429688,        0.1879882812,        0.1176757812,      -16.4489746094,        1.4495849609,       22.3999023438
1494036440.6817820072,       -0.7065429688,        0.1879882812,        0.1176757812,      -16.4489746094,        1.4495849609,       22.3999023438
1494036440.6846349239,       -0.7065429688,        0.1879882812,        0.1176757812,      -18.1884765625,        3.4332275391,       22.1099853516
1494036440.6871991158,       -0.6914062500,        0.2187500000,        0.1582031250,      -18.1884765625,        3.4332275391,       22.1099853516
1494036440.6897549629,       -0.6914062500,        0.2187500000,        0.1582031250,      -18.2037353516,        5.8288574219,       21.1486816406
1494036440.6923151016,       -0.6914062500,        0.2187500000,        0.1582031250,      -18.2037353516,        5.8288574219,       21.1486816406
1494036440.6949799061,       -0.6914062500,        0.2187500000,        0.1582031250,      -17.8070068359,        7.4615478516,       20.8129882812
1494036440.6976790428,       -0.6704101562,        0.2333984375,        0.1723632812,      -17.8070068359,        7.4615478516,       20.8129882812
1494036440.7003829479,       -0.6704101562,        0.2333984375,        0.1723632812,      -17.1508789062,        7.3394775391,       20.8129882812
1494036440.7030780315,       -0.6704101562,        0.2333984375,        0.1723632812,      -17.1508789062,        7.3394775391,       20.8129882812
1494036440.7057778835,       -0.6704101562,        0.2333984375,        0.1723632812,      -16.2353515625,        6.7443847656,       20.3399658203
1494036440.7084760666,       -0.6596679688,        0.2768554688,        0.1767578125,      -16.2353515625,        6.7443847656,       20.3399658203
1494036440.7111721039,       -0.6596679688,        0.2768554688,        0.1767578125,      -14.0991210938,        6.4544677734,       19.9737548828
1494036440.7138578892,       -0.6596679688,        0.2768554688,        0.1767578125,      -14.0991210938,        6.4544677734,       19.9737548828
1494036440.7165191174,       -0.6596679688,        0.2768554688,        0.0517578125,      -12.4206542969,        6.0577392578,       19.2413330078
1494036440.7190809250,       -0.6713867188,        0.2724609375,        0.1147460938,      -12.4206542969,        6.0577392578,       19.2413330078
1494036440.7216401100,       -0.6713867188,        0.2724609375,        0.1147460938,      -12.4206542969,        5.1727294922,       18.7530517578
1494036440.7242469788,       -0.6713867188,        0.2724609375,        0.1147460938,      -12.2375488281,        5.1727294922,       18.7530517578
1494036440.7268021107,       -0.6713867188,        0.2724609375,        0.0615234375,      -12.2375488281,        4.4555664062,       18.7988281250
1494036440.7293589115,       -0.6933593750,        0.2441406250,        0.0615234375,      -13.1683349609,        4.4555664062,       18.7988281250
1494036440.7319169044,       -0.6933593750,        0.2441406250,        0.0615234375,      -13.1683349609,        4.4555664062,       18.8446044922
1494036440.7345869541,       -0.6933593750,        0.2441406250,        0.0615234375,      -14.8620605469,        3.5552978516,       18.8446044922
1494036440.7371459007,       -0.6933593750,        0.2441406250,       -0.0029296875,      -14.8620605469,        3.5552978516,       18.8446044922
1494036440.7397029400,       -0.7070312500,        0.2309570312,       -0.0029296875,      -17.0745849609,        3.9825439453,       18.6462402344
1494036440.7422599792,       -0.7070312500,        0.2309570312,       -0.0029296875,      -17.0745849609,        3.9825439453,       18.6462402344
1494036440.7450840473,       -0.7070312500,        0.2309570312,       -0.0029296875,      -19.6228027344,        4.3029785156,       18.5241699219
1494036440.7477800846,       -0.7221679688,        0.2270507812,       -0.0166015625,      -19.6228027344,        4.3029785156,       18.5241699219
1494036440.7504749298,       -0.7221679688,        0.2270507812,       -0.0166015625,      -22.1710205078,        5.3100585938,       18.2495117188
1494036440.7531819344,       -0.7221679688,        0.2270507812,       -0.0166015625,      -22.1710205078,        5.3100585938,       18.2495117188
1494036440.7558760643,       -0.7221679688,        0.2270507812,       -0.0166015625,      -24.5971679688,        5.7983398438,       18.2800292969
1494036440.7585740089,       -0.7133789062,        0.2329101562,        0.0029296875,      -24.5971679688,        5.7983398438,       18.2800292969
1494036440.7612700462,       -0.7133789062,        0.2329101562,        0.0029296875,      -26.5960693359,        6.4697265625,       18.3563232422
1494036440.7639830112,       -0.7133789062,        0.2329101562,        0.0029296875,      -26.5960693359,        6.4697265625,       18.3563232422
1494036440.7666809559,       -0.7133789062,        0.2329101562,        0.0029296875,      -27.9998779297,        6.1645507812,       18.2495117188
1494036440.7693738937,       -0.7226562500,        0.2602539062,        0.0087890625,      -27.9998779297,        6.1645507812,       18.2495117188
1494036440.7720689774,       -0.7226562500,        0.2602539062,        0.0087890625,      -27.7557373047,        6.3018798828,       18.4783935547
1494036440.7746999264,       -0.7226562500,        0.2602539062,        0.0087890625,      -27.7557373047,        6.3018798828,       18.4783935547
1494036440.7772510052,       -0.7226562500,        0.2602539062,        0.0253906250,      -25.8026123047,        6.0577392578,       18.2952880859
1494036440.7798049450,       -0.7202148438,        0.2792968750,        0.0253906250,      -25.8026123047,        6.0577392578,       18.2952880859
1494036440.7823579311,       -0.7202148438,        0.2792968750,        0.0253906250,      -23.7426757812,        5.5389404297,       18.4478759766
1494036440.7850201130,       -0.7202148438,        0.2792968750,        0.0253906250,      -23.7426757812,        5.5389404297,       18.4478759766
1494036440.7877190113,       -0.7202148438,        0.2519531250,        0.0332031250,      -21.8811035156,        4.0893554688,       18.5089111328
1494036440.7905280590,       -0.7177734375,        0.2519531250,        0.0332031250,      -21.8811035156,        4.0893554688,       18.5089111328
1494036440.7932360172,       -0.7177734375,        0.2519531250,        0.0332031250,      -18.6157226562,        3.5095214844,       18.7835693359
1494036440.7959339619,       -0.7177734375,        0.2519531250,        0.0332031250,      -18.6157226562,        3.5095214844,       18.7835693359
1494036440.7986249924,       -0.7138671875,        0.2426757812,        0.0205078125,      -16.2506103516,        3.8146972656,       18.9819335938
1494036440.8015229702,       -0.7138671875,        0.2426757812,        0.0205078125,      -16.2506103516,        3.8146972656,       18.9819335938
1494036440.8046650887,       -0.7138671875,        0.2426757812,        0.0205078125,      -14.7705078125,        4.0435791016,       19.3786621094
1494036440.8073630333,       -0.7138671875,        0.2426757812,        0.0151367188,      -14.7705078125,        4.0435791016,       19.3786621094
1494036440.8100590706,       -0.7143554688,        0.2573242188,        0.0151367188,      -13.4735107422,        3.4790039062,       19.3786621094
1494036440.8127551079,       -0.7143554688,        0.2573242188,        0.0151367188,      -13.4735107422,        3.4790039062,       19.3786621094
1494036440.8154959679,       -0.7143554688,        0.2573242188,        0.0151367188,      -13.3361816406,        3.4790039062,       19.7143554688
1494036440.8181900978,       -0.7143554688,        0.2641601562,        0.0249023438,      -13.3361816406,        3.4790039062,       19.7143554688
1494036440.8208880424,       -0.6977539062,        0.2641601562,        0.0249023438,      -13.1835937500,        3.6315917969,       19.7143554688
1494036440.8235859871,       -0.6977539062,        0.2641601562,        0.0249023438,      -13.1835937500,        3.6315917969,       19.7143554688
1494036440.8262810707,       -0.6977539062,        0.2641601562,        0.0249023438,      -12.6495361328,        3.1890869141,       19.6228027344
1494036440.8289749622,       -0.6928710938,        0.2646484375,        0.0268554688,      -12.6495361328,        3.1890869141,       19.6228027344
1494036440.8316709995,       -0.6928710938,        0.2646484375,        0.0268554688,      -11.6729736328,        2.8533935547,       19.8822021484
1494036440.8343310356,       -0.6928710938,        0.2646484375,        0.0268554688,      -11.6729736328,        2.8533935547,       19.8822021484
1494036440.8368849754,       -0.6928710938,        0.2646484375,        0.0268554688,      -11.9781494141,        2.6855468750,       20.4162597656
1494036440.8394379616,       -0.7045898438,        0.2568359375,        0.0253906250,      -11.9781494141,        2.6855468750,       20.4162597656
1494036440.8419890404,       -0.7045898438,        0.2568359375,        0.0253906250,      -11.6882324219,        2.3193359375,       20.7672119141
1494036440.8445990086,       -0.7045898438,        0.2568359375,        0.0253906250,      -11.6882324219,        2.3193359375,       20.7672119141
1494036440.8471550941,       -0.7045898438,        0.2568359375,        0.0253906250,      -11.6424560547,        2.3193359375,       21.1029052734
1494036440.8497118950,       -0.7026367188,        0.2490234375,        0.0200195312,      -11.6424560547,        2.3193359375,       21.1029052734
1494036440.8522670269,       -0.7026367188,        0.2490234375,        0.0200195312,      -11.2152099609,        2.5177001953,       21.1181640625
1494036440.8549480438,       -0.7026367188,        0.2490234375,        0.0200195312,      -11.2152099609,        2.5177001953,       21.1181640625
1494036440.8575060368,       -0.7026367188,        0.2490234375,        0.0200195312,      -11.2152099609,        2.5939941406,       21.0571289062
1494036440.8600618839,       -0.7070312500,        0.2563476562,        0.0361328125,      -11.0321044922,        2.5939941406,       21.0571289062
1494036440.8626151085,       -0.7070312500,        0.2563476562,        0.0361328125,      -11.0321044922,        2.5939941406,       20.9655761719
1494036440.8655209541,       -0.7070312500,        0.2563476562,        0.0361328125,      -11.3525390625,        2.9449462891,       20.9655761719
1494036440.8682200909,       -0.7070312500,        0.2563476562,        0.0488281250,      -11.3525390625,        2.9449462891,       21.0266113281
1494036440.8709180355,       -0.6801757812,        0.2768554688,        0.0488281250,      -12.0239257812,        2.6702880859,       21.0266113281
1494036440.8736488819,       -0.6801757812,        0.2768554688,        0.0488281250,      -12.0239257812,        2.6702880859,       20.5230712891
1494036440.8763439655,       -0.6801757812,        0.2768554688,        0.0488281250,      -11.8255615234,        3.0212402344,       20.5230712891
1494036440.8790409565,       -0.6801757812,        0.3066406250,        0.0722656250,      -11.8255615234,        3.0212402344,       19.8822021484
1494036440.8817389011,       -0.6801757812,        0.3066406250,        0.0722656250,      -11.5509033203,        3.4027099609,       19.8822021484
1494036440.8844110966,       -0.6801757812,        0.3066406250,        0.0722656250,      -11.5509033203,        3.4027099609,       18.7072753906
1494036440.8869659901,       -0.6801757812,        0.3066406250,        0.0722656250,      -11.2762451172,        3.5705566406,       18.7072753906
1494036440.8895199299,       -0.6728515625,        0.3105468750,        0.0644531250,      -11.2762451172,        3.5705566406,       18.7072753906
1494036440.8920769691,       -0.6728515625,        0.3105468750,        0.0644531250,       -9.9182128906,        3.7689208984,       18.4173583984
1494036440.8947279453,       -0.6728515625,        0.3105468750,        0.0644531250,       -9.9182128906,        3.7689208984,       18.4173583984
1494036440.8974180222,       -0.6728515625,        0.3105468750,        0.0644531250,       -8.7127685547,        3.0975341797,       18.5699462891
1494036440.9001100063,       -0.6660156250,        0.2968750000,        0.0522460938,       -8.7127685547,        3.0975341797,       18.5699462891
1494036440.9028029442,       -0.6660156250,        0.2968750000,        0.0522460938,       -8.1329345703,        2.9449462891,       19.0887451172
1494036440.9055008888,       -0.6660156250,        0.2968750000,        0.0522460938,       -8.1329345703,        2.9449462891,       19.0887451172
1494036440.9081900120,       -0.6660156250,        0.2968750000,        0.0522460938,       -6.9732666016,        2.7618408203,       19.2871093750
1494036440.9108819962,       -0.6752929688,        0.2841796875,        0.0253906250,       -6.9732666016,        2.7618408203,       19.2871093750
1494036440.9135859013,       -0.6752929688,        0.2841796875,        0.0253906250,       -6.4697265625,        2.5329589844,       19.7448730469
1494036440.9162800312,       -0.6752929688,        0.2841796875,        0.0253906250,       -6.4697265625,        2.5329589844,       19.7448730469
1494036440.9189739227,       -0.6752929688,        0.2402343750,        0.0302734375,       -6.0729980469,        2.4566650391,       19.7906494141
1494036440.9217739105,       -0.7094726562,        0.2402343750,        0.0302734375,       -6.0729980469,        2.4566650391,       19.7906494141
1494036440.9246239662,       -0.7094726562,        0.2402343750,        0.0302734375,       -6.1340332031,        2.6245117188,       20.1416015625
1494036440.9273219109,       -0.7094726562,        0.2402343750,        0.0302734375,       -6.1340332031,        2.6245117188,       20.1416015625
1494036440.9300100803,       -0.7172851562,        0.2563476562,        0.0239257812,       -6.3781738281,        2.7923583984,       20.8129882812
1494036440.9326989651,       -0.7172851562,        0.2563476562,        0.0239257812,       -6.3781738281,        2.7923583984,       20.8129882812
1494036440.9352788925,       -0.7172851562,        0.2563476562,        0.0239257812,       -7.0800781250,        2.6092529297,       21.2554931641
1494036440.9379301071,       -0.7172851562,        0.2563476562,        0.0239257812,       -7.0800781250,        2.6092529297,       21.2554931641
1494036440.9404819012,       -0.7041015625,        0.2822265625,        0.0351562500,       -7.7819824219,        2.5787353516,       22.0184326172
1494036440.9430339336,       -0.7041015625,        0.2822265625,        0.0351562500,       -7.7819824219,        2.5787353516,       22.0184326172
1494036440.9457399845,       -0.7041015625,        0.2822265625,        0.0351562500,       -8.2550048828,        2.8381347656,       22.1710205078
1494036440.9484310150,       -0.7041015625,        0.2822265625,        0.0351562500,       -8.2550048828,        2.8381347656,       22.1710205078
1494036440.9511198997,       -0.6733398438,        0.3090820312,        0.0429687500,       -8.1939697266,        2.6397705078,       22.5982666016
1494036440.9538331032,       -0.6733398438,        0.3090820312,        0.0429687500,       -8.1939697266,        2.6397705078,       22.5982666016
1494036440.9563829899,       -0.6733398438,        0.3090820312,        0.0429687500,       -7.0648193359,        2.2430419922,       22.7966308594
1494036440.9589331150,       -0.6733398438,        0.3090820312,        0.0312500000,       -7.0648193359,        2.2430419922,       22.7966308594
1494036440.9614830017,       -0.6645507812,        0.3266601562,        0.0312500000,       -5.5541992188,        1.7242431641,       23.1781005859
1494036440.9640688896,       -0.6645507812,        0.3266601562,        0.0312500000,       -5.5541992188,        1.7242431641,       23.1781005859
1494036440.9666190147,       -0.6645507812,        0.3266601562,        0.0312500000,       -5.5541992188,        1.0681152344,       23.8342285156
1494036440.9691679478,       -0.6645507812,        0.3266601562,        0.0234375000,       -4.3945312500,        1.0681152344,       23.8342285156
1494036440.9717149734,       -0.6904296875,        0.2841796875,        0.0234375000,       -4.3945312500,        0.6408691406,       24.1699218750
1494036440.9743700027,       -0.6904296875,        0.2841796875,        0.0234375000,       -2.7923583984,        0.6408691406,       24.1699218750
1494036440.9769229889,       -0.6904296875,        0.2841796875,        0.0234375000,       -2.7923583984,        0.6408691406,       24.9481201172
1494036440.9794840813,       -0.6904296875,        0.2343750000,        0.0161132812,       -2.2888183594,        0.4577636719,       24.9481201172
1494036440.9820361137,       -0.7133789062,        0.2343750000,        0.0161132812,       -2.2888183594,        0.4577636719,       26.1383056641
1494036440.9847319126,       -0.7133789062,        0.2343750000,        0.0161132812,       -2.9144287109,        0.2899169922,       26.1383056641
1494036440.9872839451,       -0.7133789062,        0.2343750000,        0.0161132812,       -2.9144287109,        0.2899169922,       26.1383056641
1494036440.9898390770,       -0.7133789062,        0.2094726562,        0.0224609375,       -3.1585693359,       -0.2136230469,       27.1453857422
1494036440.9923939705,       -0.7167968750,        0.2094726562,        0.0224609375,       -3.1585693359,       -0.2136230469,       27.1453857422
1494036440.9949920177,       -0.7167968750,        0.2094726562,        0.0224609375,       -4.6539306641,       -0.0762939453,       27.6641845703
1494036440.9975500107,       -0.7167968750,        0.2094726562,        0.0224609375,       -4.6539306641,       -0.0762939453,       27.6641845703
1494036441.0001029968,       -0.6850585938,        0.3027343750,        0.0292968750,       -6.7443847656,        0.0152587891,       27.7099609375
1494036441.0026590824,       -0.6850585938,        0.3027343750,        0.0292968750,       -6.7443847656,        0.0152587891,       27.7099609375
1494036441.0057580471,       -0.6850585938,        0.3027343750,        0.0292968750,       -7.8582763672,        0.1983642578,       28.0609130859
1494036441.0084528923,       -0.6850585938,        0.3027343750,        0.0292968750,       -7.8582763672,        0.1983642578,       28.0609130859
1494036441.0112609863,       -0.6611328125,        0.3403320312,        0.0493164062,       -7.0037841797,       -0.3509521484,       27.9083251953
1494036441.0139389038,       -0.6611328125,        0.3403320312,        0.0493164062,       -7.0037841797,       -0.3509521484,       27.9083251953
1494036441.0164940357,       -0.6611328125,        0.3403320312,        0.0493164062,       -5.7373046875,       -0.7781982422,       27.5878906250
1494036441.0190520287,       -0.6611328125,        0.3403320312,        0.0493164062,       -5.7373046875,       -0.7781982422,       27.5878906250
1494036441.0216341019,       -0.6533203125,        0.3266601562,        0.0537109375,       -4.7607421875,       -1.2512207031,       27.3132324219
1494036441.0242979527,       -0.6533203125,        0.3266601562,        0.0537109375,       -4.7607421875,       -1.2512207031,       27.3132324219
1494036441.0269908905,       -0.6533203125,        0.3266601562,        0.0537109375,       -2.8381347656,       -1.9989013672,       26.9470214844
1494036441.0296809673,       -0.6533203125,        0.3266601562,        0.0429687500,       -2.8381347656,       -1.9989013672,       26.9470214844
1494036441.0323760509,       -0.6762695312,        0.3344726562,        0.0429687500,       -1.0986328125,       -2.6702880859,       27.1148681641
1494036441.0349900723,       -0.6762695312,        0.3344726562,        0.0429687500,       -1.0986328125,       -2.6702880859,       27.1148681641
1494036441.0375490189,       -0.6762695312,        0.3344726562,        0.0429687500,       -0.0152587891,       -3.2348632812,       27.9846191406
1494036441.0401930809,       -0.6762695312,        0.3144531250,        0.0297851562,       -0.0152587891,       -3.2348632812,       27.9846191406
1494036441.0427479744,       -0.7031250000,        0.3144531250,        0.0297851562,        1.2664794922,       -3.6315917969,       29.0832519531
1494036441.0458528996,       -0.7031250000,        0.3144531250,        0.0297851562,        1.2664794922,       -3.6315917969,       29.0832519531
1494036441.0485470295,       -0.7031250000,        0.3144531250,        0.0297851562,        1.0833740234,       -4.1503906250,       30.7769775391
1494036441.0512349606,       -0.7192382812,        0.2441406250,        0.0244140625,        1.0833740234,       -4.1503906250,       30.7769775391
1494036441.0539350510,       -0.7192382812,        0.2441406250,        0.0244140625,        0.2899169922,       -3.8146972656,       32.2723388672
1494036441.0566699505,       -0.7192382812,        0.2441406250,        0.0244140625,        0.2899169922,       -3.8146972656,       32.2723388672
1494036441.0593640804,       -0.7192382812,        0.2441406250,        0.0244140625,       -1.4495849609,       -2.6245117188,       33.6761474609
1494036441.0620648861,       -0.6904296875,        0.2529296875,        0.0395507812,       -1.4495849609,       -2.6245117188,       33.6761474609
1494036441.0647690296,       -0.6904296875,        0.2529296875,        0.0395507812,       -4.3182373047,       -2.2430419922,       34.4085693359
1494036441.0674641132,       -0.6904296875,        0.2529296875,        0.0395507812,       -4.3182373047,       -2.2430419922,       34.4085693359
1494036441.0701479912,       -0.6904296875,        0.2529296875,        0.0620117188,       -5.8135986328,       -1.9226074219,       35.6445312500
1494036441.0728530884,       -0.6562500000,        0.3334960938,        0.0620117188,       -5.8135986328,       -1.9226074219,       35.6445312500
1494036441.0754439831,       -0.6562500000,        0.3334960938,        0.0620117188,       -5.8135986328,       -1.7852783203,       36.6668701172
1494036441.0779950619,       -0.6562500000,        0.3334960938,        0.0620117188,       -5.2032470703,       -1.7852783203,       36.6668701172
1494036441.0805521011,       -0.6562500000,        0.3403320312,        0.0585937500,       -5.2032470703,       -1.7852783203,       37.3077392578
1494036441.0831079483,       -0.6533203125,        0.3403320312,        0.0585937500,       -4.1961669922,       -1.6784667969,       37.3077392578
1494036441.0857789516,       -0.6533203125,        0.3403320312,        0.0585937500,       -4.1961669922,       -1.6784667969,       38.3148193359
1494036441.0883440971,       -0.6533203125,        0.3403320312,        0.0585937500,       -3.1585693359,       -1.3122558594,       38.3148193359
1494036441.0908908844,       -0.6469726562,        0.3408203125,        0.0639648438,       -3.1585693359,       -1.3122558594,       38.3148193359
1494036441.0936360359,       -0.6469726562,        0.3408203125,        0.0639648438,       -3.1280517578,       -0.9613037109,       38.8336181641
1494036441.0961880684,       -0.6469726562,        0.3408203125,        0.0639648438,       -3.1280517578,       -0.9613037109,       38.8336181641
1494036441.0987439156,       -0.6469726562,        0.3408203125,        0.0639648438,       -2.8533935547,       -1.0223388672,       39.3218994141
1494036441.1013059616,       -0.6362304688,        0.3422851562,        0.0566406250,       -2.8533935547,       -1.0223388672,       39.3218994141
1494036441.1039769650,       -0.6362304688,        0.3422851562,        0.0566406250,       -2.5787353516,       -1.2817382812,       40.5273437500
1494036441.1065409184,       -0.6362304688,        0.3422851562,        0.0566406250,       -2.5787353516,       -1.2817382812,       40.5273437500
1494036441.1090979576,       -0.6362304688,        0.3422851562,        0.0566406250,       -2.4719238281,       -1.3580322266,       41.5191650391
1494036441.1116480827,       -0.6630859375,        0.3217773438,        0.0659179688,       -2.4719238281,       -1.3580322266,       41.5191650391
1494036441.1144299507,       -0.6630859375,        0.3217773438,        0.0659179688,       -0.9918212891,       -0.9155273438,       41.8090820312
1494036441.1171309948,       -0.6630859375,        0.3217773438,        0.0659179688,       -0.9918212891,       -0.9155273438,       41.8090820312
1494036441.1198229790,       -0.6630859375,        0.3217773438,        0.0659179688,       -0.3356933594,       -0.5645751953,       42.5109863281
1494036441.1225130558,       -0.6977539062,        0.3183593750,        0.0478515625,       -0.3356933594,       -0.5645751953,       42.5109863281
1494036441.1252129078,       -0.6977539062,        0.3183593750,        0.0478515625,       -0.1525878906,       -0.8850097656,       43.2891845703
1494036441.1279089451,       -0.6977539062,        0.3183593750,        0.0478515625,       -0.1525878906,       -0.8850097656,       43.2891845703
1494036441.1306068897,       -0.6977539062,        0.3183593750,        0.0361328125,       -0.7476806641,       -0.9002685547,       44.0368652344
1494036441.1333088875,       -0.6757812500,        0.3149414062,        0.0361328125,       -0.7476806641,       -0.9002685547,       44.0368652344
1494036441.1358630657,       -0.6757812500,        0.3149414062,        0.0361328125,       -1.8157958984,       -0.7781982422,       45.1202392578
1494036441.1384150982,       -0.6757812500,        0.3149414062,        0.0361328125,       -1.8157958984,       -0.7781982422,       45.1202392578
1494036441.1409699917,       -0.6757812500,        0.3730468750,        0.0341796875,       -2.6245117188,       -1.1596679688,       45.2880859375
1494036441.1435499191,       -0.6401367188,        0.3730468750,        0.0341796875,       -2.6245117188,       -1.1596679688,       45.2880859375
1494036441.1462459564,       -0.6401367188,        0.3730468750,        0.0341796875,       -2.5177001953,       -0.6256103516,       45.2728271484
1494036441.1489388943,       -0.6401367188,        0.3730468750,        0.0341796875,       -2.5177001953,       -0.6256103516,       45.2728271484
1494036441.1516299248,       -0.6274414062,        0.3774414062,        0.0429687500,       -2.5177001953,       -0.4730224609,       45.9136962891
1494036441.1542789936,       -0.6274414062,        0.3774414062,        0.0429687500,       -2.3193359375,       -0.4730224609,       45.9136962891
1494036441.1569259167,       -0.6274414062,        0.3774414062,        0.0429687500,       -2.3193359375,       -0.9155273438,       46.1273193359
1494036441.1595180035,       -0.6274414062,        0.3774414062,        0.0429687500,       -2.2888183594,       -0.9155273438,       46.1273193359
1494036441.1620919704,       -0.6235351562,        0.3642578125,        0.0439453125,       -2.2888183594,       -1.1444091797,       45.9899902344
1494036441.1649589539,       -0.6235351562,        0.3642578125,        0.0439453125,       -2.3345947266,       -1.1444091797,       45.9899902344
1494036441.1675078869,       -0.6235351562,        0.3642578125,        0.0439453125,       -2.3345947266,       -1.1444091797,       45.8221435547
1494036441.1700661182,       -0.6235351562,        0.3642578125,        0.0439453125,       -1.4953613281,       -1.4343261719,       45.8221435547
1494036441.1726179123,       -0.6210937500,        0.3769531250,        0.0322265625,       -1.4953613281,       -1.4343261719,       46.0052490234
1494036441.1754310131,       -0.6210937500,        0.3769531250,        0.0322265625,       -1.3275146484,       -1.8157958984,       46.0052490234
