time_stamp before, Acceleration x, Acceleration y, Acceleration z, Gyro x, Gyro y, Gyro z
1494293602.6479039192,       -0.7827148438,        0.3715820312,       -0.0253906250,      -19.8974609375,      -10.2081298828,     -174.2248535156
1494293602.6548988819,       -0.7827148438,        0.3349609375,       -0.0107421875,      -19.8974609375,      -10.2081298828,     -174.2248535156
1494293602.6580231190,       -0.7866210938,        0.3349609375,       -0.0107421875,      -25.6500244141,      -10.1928710938,     -174.2553710938
1494293602.6605799198,       -0.7866210938,        0.3349609375,       -0.0107421875,      -25.6500244141,      -10.1928710938,     -174.2553710938
1494293602.6633639336,       -0.7866210938,        0.3349609375,       -0.0107421875,      -32.4859619141,      -10.3607177734,     -174.1027832031
1494293602.6662540436,       -0.8046875000,        0.3564453125,       -0.0141601562,      -32.4859619141,      -10.3607177734,     -174.1027832031
1494293602.6689538956,       -0.8046875000,        0.3564453125,       -0.0141601562,      -39.4744873047,      -11.1236572266,     -174.7894287109
1494293602.6716589928,       -0.8046875000,        0.3564453125,       -0.0141601562,      -39.4744873047,      -11.1236572266,     -174.7894287109
1494293602.6743528843,       -0.8046875000,        0.3564453125,       -0.0141601562,      -45.0592041016,      -11.2915039062,     -175.2319335938
1494293602.6770479679,       -0.8247070312,        0.4067382812,       -0.0131835938,      -45.0592041016,      -11.2915039062,     -175.2319335938
1494293602.6797389984,       -0.8247070312,        0.4067382812,       -0.0131835938,      -48.6297607422,      -10.9100341797,     -175.8880615234
1494293602.6824440956,       -0.8247070312,        0.4067382812,       -0.0131835938,      -48.6297607422,      -10.9100341797,     -175.8880615234
1494293602.6851348877,       -0.8247070312,        0.4301757812,       -0.0068359375,      -51.8493652344,      -11.0015869141,     -175.9490966797
1494293602.6878271103,       -0.8320312500,        0.4301757812,       -0.0068359375,      -51.8493652344,      -11.0015869141,     -175.9490966797
1494293602.6905210018,       -0.8320312500,        0.4301757812,       -0.0068359375,      -55.1452636719,      -11.1541748047,     -175.7965087891
1494293602.6932339668,       -0.8320312500,        0.4301757812,       -0.0068359375,      -55.1452636719,      -11.1541748047,     -175.7965087891
1494293602.6959309578,       -0.8652343750,        0.4233398438,        0.0092773438,      -60.1654052734,      -10.7879638672,     -175.3540039062
1494293602.6986238956,       -0.8652343750,        0.4233398438,        0.0092773438,      -60.1654052734,      -10.7879638672,     -175.3540039062
1494293602.7013471127,       -0.8652343750,        0.4233398438,        0.0092773438,      -64.0106201172,       -9.5520019531,     -175.2929687500
1494293602.7039089203,       -0.8652343750,        0.4233398438,        0.0092773438,      -64.0106201172,       -9.5520019531,     -175.2929687500
1494293602.7064690590,       -0.8847656250,        0.4062500000,        0.0322265625,      -68.3746337891,       -8.9416503906,     -175.0183105469
1494293602.7090280056,       -0.8847656250,        0.4062500000,        0.0322265625,      -68.3746337891,       -8.9416503906,     -175.0183105469
1494293602.7116780281,       -0.8847656250,        0.4062500000,        0.0322265625,      -72.2045898438,       -8.1787109375,     -174.6215820312
1494293602.7142341137,       -0.8847656250,        0.4062500000,        0.0322265625,      -72.2045898438,       -8.1787109375,     -174.6215820312
1494293602.7167880535,       -0.8959960938,        0.3979492188,        0.0253906250,      -76.4770507812,       -7.0190429688,     -173.7518310547
1494293602.7193450928,       -0.8959960938,        0.3979492188,        0.0253906250,      -76.4770507812,       -7.0190429688,     -173.7518310547
1494293602.7221019268,       -0.8959960938,        0.3979492188,        0.0253906250,      -80.6884765625,       -5.4168701172,     -172.6074218750
1494293602.7247989178,       -0.8959960938,        0.3979492188,        0.0253906250,      -80.6884765625,       -5.4168701172,     -172.6074218750
1494293602.7276570797,       -0.9150390625,        0.3828125000,        0.0385742188,      -85.1440429688,       -4.1809082031,     -171.6918945312
1494293602.7303578854,       -0.9150390625,        0.3828125000,        0.0385742188,      -85.1440429688,       -4.1809082031,     -171.6918945312
1494293602.7330639362,       -0.9150390625,        0.3828125000,        0.0385742188,      -87.7227783203,       -2.8839111328,     -170.3948974609
1494293602.7357559204,       -0.9150390625,        0.3906250000,        0.0512695312,      -87.7227783203,       -2.8839111328,     -170.3948974609
1494293602.7384479046,       -0.9145507812,        0.3906250000,        0.0512695312,      -88.4704589844,       -1.1138916016,     -168.8537597656
1494293602.7411289215,       -0.9145507812,        0.3906250000,        0.0512695312,      -88.4704589844,       -1.1138916016,     -168.8537597656
1494293602.7436850071,       -0.9145507812,        0.3906250000,        0.0512695312,      -88.4704589844,        0.9765625000,     -167.2363281250
1494293602.7462420464,       -0.9160156250,        0.3906250000,        0.0537109375,      -89.2333984375,        0.9765625000,     -167.2363281250
1494293602.7487969398,       -0.9160156250,        0.3906250000,        0.0537109375,      -89.2333984375,        0.9765625000,     -166.2902832031
1494293602.7514019012,       -0.9160156250,        0.3906250000,        0.0537109375,      -89.2944335938,        2.9907226562,     -166.2902832031
1494293602.7541029453,       -0.9160156250,        0.3906250000,        0.0537109375,      -89.2944335938,        6.8969726562,     -165.0085449219
1494293602.7568039894,       -0.9174804688,        0.3559570312,        0.0703125000,      -90.0421142578,        4.7454833984,     -165.0085449219
1494293602.7595059872,       -0.9174804688,        0.3559570312,        0.0703125000,      -90.0421142578,        4.7454833984,     -163.3300781250
1494293602.7622098923,       -0.9174804688,        0.3559570312,        0.0703125000,      -91.6595458984,        6.8054199219,     -163.3300781250
1494293602.7648990154,       -0.9174804688,        0.3559570312,        0.0703125000,      -91.6595458984,       10.7116699219,     -161.5905761719
1494293602.7675929070,       -0.9189453125,        0.3554687500,        0.0913085938,      -92.2546386719,        9.0637207031,     -161.5905761719
1494293602.7702889442,       -0.9189453125,        0.3554687500,        0.0913085938,      -92.2546386719,        9.0637207031,     -159.6832275391
1494293602.7729949951,       -0.9189453125,        0.3554687500,        0.0913085938,      -92.7581787109,       10.7269287109,     -159.6832275391
1494293602.7756950855,       -0.9189453125,        0.3554687500,        0.0903320312,      -92.7581787109,       14.6331787109,     -157.3028564453
1494293602.7784500122,       -0.9243164062,        0.3647460938,        0.0903320312,      -93.7042236328,       13.7939453125,     -157.3028564453
1494293602.7811629772,       -0.9243164062,        0.3647460938,        0.0903320312,      -93.7042236328,       13.7939453125,     -155.1513671875
1494293602.7838649750,       -0.9243164062,        0.3647460938,        0.0903320312,      -94.8028564453,       16.1895751953,     -155.1513671875
1494293602.7865691185,       -0.9262695312,        0.3623046875,        0.0888671875,      -94.8028564453,       16.1895751953,     -152.9235839844
1494293602.7892739773,       -0.9262695312,        0.3623046875,        0.0888671875,      -94.9554443359,       18.3715820312,     -152.9235839844
1494293602.7919290066,       -0.9262695312,        0.3623046875,        0.0888671875,      -94.9554443359,       18.3715820312,     -150.4821777344
1494293602.7944889069,       -0.9262695312,        0.3623046875,        0.0888671875,      -94.5129394531,       20.8740234375,     -150.4821777344
1494293602.7970550060,       -0.9409179688,        0.3461914062,        0.0893554688,      -94.5129394531,       20.8740234375,     -150.4821777344
1494293602.7997250557,       -0.9409179688,        0.3461914062,        0.0893554688,      -94.8638916016,       23.3612060547,     -147.6440429688
1494293602.8024110794,       -0.9409179688,        0.3461914062,        0.0893554688,      -94.8638916016,       23.3612060547,     -147.6440429688
1494293602.8051190376,       -0.9409179688,        0.3461914062,        0.0893554688,      -95.2606201172,       25.0396728516,     -144.6685791016
1494293602.8078210354,       -0.9355468750,        0.3232421875,        0.0825195312,      -95.2606201172,       25.0396728516,     -144.6685791016
1494293602.8105270863,       -0.9355468750,        0.3232421875,        0.0825195312,      -94.9554443359,       27.0233154297,     -141.5100097656
1494293602.8131079674,       -0.9355468750,        0.3232421875,        0.0825195312,      -94.9554443359,       27.0233154297,     -141.5100097656
1494293602.8156650066,       -0.9355468750,        0.3232421875,        0.0825195312,      -93.5516357422,       28.2592773438,     -138.6413574219
1494293602.8182289600,       -0.9228515625,        0.3300781250,        0.0844726562,      -93.5516357422,       28.2592773438,     -138.6413574219
1494293602.8208730221,       -0.9228515625,        0.3300781250,        0.0844726562,      -90.5761718750,       28.7933349609,     -135.6353759766
1494293602.8234488964,       -0.9228515625,        0.3300781250,        0.0844726562,      -90.5761718750,       28.7933349609,     -135.6353759766
1494293602.8260130882,       -0.9228515625,        0.3300781250,        0.1040039062,      -88.5772705078,       29.4036865234,     -132.1716308594
1494293602.8285720348,       -0.8950195312,        0.3286132812,        0.1040039062,      -88.5772705078,       29.4036865234,     -132.1716308594
1494293602.8312981129,       -0.8950195312,        0.3286132812,        0.1040039062,      -87.1887207031,       29.6630859375,     -128.2043457031
1494293602.8340001106,       -0.8950195312,        0.3286132812,        0.1040039062,      -87.1887207031,       29.6630859375,     -128.2043457031
1494293602.8366959095,       -0.7700195312,        0.3481445312,        0.1503906250,      -84.1827392578,       28.8696289062,     -124.5269775391
1494293602.8393950462,       -0.8452148438,        0.3481445312,        0.1503906250,      -84.1827392578,       28.8696289062,     -124.5269775391
1494293602.8420269489,       -0.8452148438,        0.3481445312,        0.1503906250,      -80.3985595703,       27.5573730469,     -120.5139160156
1494293602.8445849419,       -0.8452148438,        0.3481445312,        0.1503906250,      -80.3985595703,       27.5573730469,     -120.5139160156
1494293602.8471469879,       -0.7592773438,        0.3999023438,        0.1938476562,      -75.1037597656,       24.1394042969,     -115.8599853516
1494293602.8496980667,       -0.7592773438,        0.3999023438,        0.1938476562,      -75.1037597656,       24.1394042969,     -115.8599853516
1494293602.8523969650,       -0.7592773438,        0.3999023438,        0.1938476562,      -67.2912597656,       18.9971923828,     -110.7635498047
1494293602.8550920486,       -0.7592773438,        0.3999023438,        0.1938476562,      -69.8852539062,       18.9971923828,     -110.7635498047
1494293602.8577930927,       -0.6625976562,        0.4223632812,        0.2412109375,      -65.9790039062,       12.4053955078,     -105.3161621094
1494293602.8604879379,       -0.6625976562,        0.4223632812,        0.2412109375,      -63.8580322266,       12.4053955078,     -105.3161621094
1494293602.8631930351,       -0.6625976562,        0.4223632812,        0.2412109375,      -56.0455322266,        4.4097900391,     -100.5249023438
1494293602.8658859730,       -0.6625976562,        0.4223632812,        0.3662109375,      -56.8542480469,        4.4097900391,     -100.5249023438
1494293602.8685810566,       -0.5854492188,        0.4760742188,        0.2543945312,      -56.8542480469,       -3.0059814453,      -96.2066650391
1494293602.8712799549,       -0.5854492188,        0.4760742188,        0.2543945312,      -46.6461181641,       -3.0059814453,      -96.2066650391
1494293602.8741390705,       -0.5854492188,        0.4760742188,        0.2543945312,      -34.9273681641,      -10.0250244141,      -91.5527343750
1494293602.8766980171,       -0.5854492188,        0.5449218750,        0.2387695312,      -33.9965820312,      -10.0250244141,      -91.5527343750
1494293602.8792569637,       -0.5883789062,        0.5449218750,        0.2387695312,      -33.9965820312,      -17.8375244141,      -86.1358642578
1494293602.8820059299,       -0.5883789062,        0.5449218750,        0.2387695312,      -20.4772949219,      -15.9454345703,      -86.1358642578
1494293602.8846619129,       -0.5883789062,        0.5449218750,        0.2387695312,      -20.4772949219,      -19.8516845703,      -80.2307128906
1494293602.8874130249,       -0.6298828125,        0.5449218750,        0.1870117188,       -7.2784423828,      -20.5993652344,      -80.2307128906
1494293602.8904650211,       -0.6298828125,        0.5449218750,        0.1870117188,        4.4403076172,      -24.3835449219,      -73.8830566406
1494293602.8930499554,       -0.6298828125,        0.5449218750,        0.1870117188,        3.9672851562,      -24.3835449219,      -73.8830566406
1494293602.8956029415,       -0.6298828125,        0.5449218750,        0.1870117188,        3.9672851562,      -24.3835449219,      -67.2149658203
1494293602.8981618881,       -0.6616210938,        0.4838867188,        0.1606445312,       12.7563476562,      -26.9470214844,      -67.2149658203
1494293602.9007060528,       -0.6616210938,        0.4838867188,        0.1606445312,       12.7563476562,      -26.9470214844,      -59.9975585938
1494293602.9034020901,       -0.6616210938,        0.4838867188,        0.1606445312,       19.6990966797,      -28.3813476562,      -59.9975585938
1494293602.9061059952,       -0.6616210938,        0.4838867188,        0.1606445312,       19.6990966797,      -28.3813476562,      -52.7191162109
1494293602.9088110924,       -0.6762695312,        0.4101562500,        0.1303710938,       24.7344970703,      -28.4271240234,      -52.7191162109
1494293602.9115540981,       -0.6762695312,        0.4101562500,        0.1303710938,       24.7344970703,      -28.4271240234,      -45.2117919922
1494293602.9142498970,       -0.6762695312,        0.4101562500,        0.1303710938,       27.6336669922,      -26.6571044922,      -45.2117919922
1494293602.9169499874,       -0.6762695312,        0.2851562500,        0.1098632812,       27.6336669922,      -26.6571044922,      -37.2619628906
1494293602.9196500778,       -0.7094726562,        0.3505859375,        0.1098632812,       29.5410156250,      -24.4903564453,      -37.2619628906
1494293602.9222769737,       -0.7094726562,        0.3505859375,        0.1098632812,       29.5410156250,      -24.4903564453,      -37.2619628906
1494293602.9248390198,       -0.7094726562,        0.3505859375,        0.1098632812,       29.7546386719,      -21.8658447266,      -28.9916992188
1494293602.9274020195,       -0.7094726562,        0.3344726562,        0.0839843750,       29.7546386719,      -21.8658447266,      -28.9916992188
1494293602.9299609661,       -0.7070312500,        0.3344726562,        0.0839843750,       29.5562744141,      -18.9056396484,      -21.0266113281
1494293602.9326639175,       -0.7070312500,        0.3344726562,        0.0839843750,       29.5562744141,      -18.9056396484,      -21.0266113281
1494293602.9352269173,       -0.7070312500,        0.3344726562,        0.0839843750,       29.6478271484,      -16.1285400391,      -12.7868652344
1494293602.9377861023,       -0.7070312500,        0.3320312500,        0.0791015625,       29.6478271484,      -16.1285400391,      -12.7868652344
1494293602.9403440952,       -0.7070312500,        0.3320312500,        0.0791015625,       28.5644531250,      -14.1754150391,       -4.7302246094
1494293602.9431478977,       -0.7070312500,        0.3320312500,        0.0791015625,       28.5644531250,      -14.1754150391,       -4.7302246094
1494293602.9458479881,       -0.7070312500,        0.3320312500,        0.0791015625,       27.5878906250,      -13.4887695312,        2.8686523438
1494293602.9486570358,       -0.6855468750,        0.3208007812,        0.0844726562,       27.5878906250,      -13.4887695312,        2.8686523438
1494293602.9513690472,       -0.6855468750,        0.3208007812,        0.0844726562,       26.4739990234,      -13.3666992188,       10.9710693359
1494293602.9540760517,       -0.6855468750,        0.3208007812,        0.0844726562,       26.4739990234,      -13.3666992188,       10.9710693359
1494293602.9567770958,       -0.6855468750,        0.3208007812,        0.0844726562,       25.0549316406,      -13.4124755859,       19.0124511719
1494293602.9594759941,       -0.6459960938,        0.3105468750,        0.0859375000,       25.0549316406,      -13.4124755859,       19.0124511719
1494293602.9621870518,       -0.6459960938,        0.3105468750,        0.0859375000,       22.9339599609,      -13.5498046875,       27.2521972656
1494293602.9648919106,       -0.6459960938,        0.3105468750,        0.0859375000,       22.9339599609,      -13.5498046875,       27.2521972656
1494293602.9675900936,       -0.6459960938,        0.3027343750,        0.0800781250,       20.1110839844,      -14.0533447266,       35.3698730469
1494293602.9702889919,       -0.6406250000,        0.3027343750,        0.0800781250,       20.1110839844,      -14.0533447266,       35.3698730469
1494293602.9728829861,       -0.6406250000,        0.3027343750,        0.0800781250,       15.9301757812,      -14.5111083984,       43.6859130859
1494293602.9754440784,       -0.6406250000,        0.3027343750,        0.0800781250,       15.9301757812,      -14.5111083984,       43.6859130859
1494293602.9780070782,       -0.6967773438,        0.2573242188,        0.0932617188,       10.9710693359,      -15.1062011719,       49.9114990234
1494293602.9805679321,       -0.6967773438,        0.2573242188,        0.0932617188,       10.9710693359,      -15.1062011719,       49.9114990234
1494293602.9832379818,       -0.6967773438,        0.2573242188,        0.0932617188,        6.0729980469,      -14.8620605469,       50.9338378906
1494293602.9857969284,       -0.6967773438,        0.2573242188,        0.0932617188,        6.0729980469,      -14.8620605469,       50.9338378906
1494293602.9883539677,       -0.7519531250,        0.1679687500,        0.0405273438,        6.0729980469,      -10.9710693359,       55.7403564453
1494293602.9909698963,       -0.7519531250,        0.1679687500,        0.0405273438,        0.0762939453,      -10.9710693359,       55.7403564453
1494293602.9936590195,       -0.7519531250,        0.1679687500,        0.0405273438,        0.0762939453,       -7.9040527344,       68.1762695312
1494293602.9963350296,       -0.7519531250,        0.1679687500,        0.0405273438,       -4.4860839844,       -7.9040527344,       68.1762695312
1494293602.9991610050,       -0.8066406250,        0.2075195312,       -0.0776367188,       -4.4860839844,       -5.9051513672,       77.3925781250
1494293603.0022270679,       -0.8066406250,        0.2075195312,       -0.0776367188,      -14.6636962891,       -5.9051513672,       77.3925781250
1494293603.0049180984,       -0.8066406250,        0.2075195312,       -0.0776367188,      -31.0058593750,       -2.1209716797,       78.1707763672
1494293603.0076069832,       -0.8066406250,       -0.1674804688,       -0.1298828125,      -31.0058593750,       -2.1209716797,       78.1707763672
1494293603.0102870464,       -0.8349609375,       -0.2294921875,       -0.1298828125,      -42.7246093750,        3.2806396484,       74.3408203125
1494293603.0129859447,       -0.8349609375,       -0.2294921875,       -0.1298828125,      -40.2526855469,        3.2806396484,       74.3408203125
1494293603.0156779289,       -0.8349609375,       -0.2294921875,       -0.1298828125,      -44.1589355469,       10.5133056641,       66.8945312500
1494293603.0183670521,       -1.0253906250,       -0.6972656250,       -0.2397460938,      -43.3807373047,       10.5133056641,       66.8945312500
1494293603.0211749077,       -1.0253906250,       -0.6972656250,       -0.2397460938,      -51.1932373047,       15.1824951172,       60.8062744141
1494293603.0238659382,       -1.0253906250,       -0.6972656250,       -0.2397460938,      -53.9703369141,       15.1824951172,       60.8062744141
1494293603.0265541077,       -1.0253906250,       -0.6972656250,       -0.2397460938,      -77.4078369141,       13.9617919922,       61.2487792969
1494293603.0292489529,       -0.9399414062,       -0.7368164062,       -0.1445312500,      -75.4394531250,       13.9617919922,       61.2487792969
1494293603.0319290161,       -0.9399414062,       -0.7368164062,       -0.1445312500,      -75.4394531250,        8.9569091797,       66.6961669922
1494293603.0344851017,       -0.9399414062,       -0.7368164062,       -0.1445312500,      -97.1527099609,        8.9569091797,       66.6961669922
1494293603.0370390415,       -0.9399414062,       -0.7368164062,       -0.1445312500,      -97.1527099609,        8.9569091797,       74.1882324219
1494293603.0395929813,       -0.8535156250,       -0.3408203125,       -0.0864257812,     -107.4523925781,        4.8217773438,       74.1882324219
1494293603.0421528816,       -0.8535156250,       -0.3408203125,       -0.0864257812,     -107.4523925781,        4.8217773438,       82.0007324219
1494293603.0447130203,       -0.8535156250,       -0.3408203125,       -0.0864257812,     -106.2622070312,        4.2419433594,       81.4361572266
1494293603.0472669601,       -0.8535156250,       -0.3408203125,       -0.0864257812,     -106.2622070312,        4.2419433594,       81.4361572266
1494293603.0498249531,       -0.8120117188,        0.1079101562,       -0.0507812500,     -101.4862060547,        5.8898925781,       88.0889892578
1494293603.0524740219,       -0.8120117188,        0.1079101562,       -0.0507812500,     -101.4862060547,        5.8898925781,       88.0889892578
1494293603.0550289154,       -0.8120117188,        0.1079101562,       -0.0507812500,      -98.3276367188,        5.9967041016,       92.4377441406
1494293603.0575840473,       -0.8120117188,        0.1079101562,        0.0742187500,      -98.3276367188,        5.9967041016,       92.4377441406
1494293603.0601398945,       -0.7763671875,        0.3549804688,        0.0073242188,      -92.1173095703,        2.9907226562,       93.7957763672
1494293603.0629160404,       -0.7763671875,        0.3549804688,        0.0073242188,      -92.1173095703,        2.9907226562,       93.7957763672
1494293603.0656070709,       -0.7763671875,        0.3549804688,        0.0073242188,      -80.7647705078,       -2.2888183594,       93.2159423828
1494293603.0683059692,       -0.7763671875,        0.3857421875,        0.0141601562,      -80.7647705078,       -2.2888183594,       93.2159423828
1494293603.0710020065,       -0.8393554688,        0.3857421875,        0.0141601562,      -63.0950927734,       -8.2397460938,       91.8121337891
1494293603.0735580921,       -0.8393554688,        0.3857421875,        0.0141601562,      -63.0950927734,       -8.2397460938,       91.8121337891
1494293603.0761139393,       -0.8393554688,        0.3857421875,        0.0141601562,      -45.0897216797,      -12.8784179688,       89.9200439453
1494293603.0786778927,       -0.9643554688,        0.3032226562,       -0.0170898438,      -45.0897216797,      -12.8784179688,       89.9200439453
1494293603.0812718868,       -0.8764648438,        0.3032226562,       -0.0170898438,      -32.4249267578,      -15.6097412109,       87.6770019531
1494293603.0839750767,       -0.8764648438,        0.3032226562,       -0.0170898438,      -32.4249267578,      -15.6097412109,       87.6770019531
1494293603.0866749287,       -0.8764648438,        0.3032226562,       -0.0170898438,      -27.4810791016,      -17.3339843750,       86.0137939453
1494293603.0893750191,       -0.8476562500,        0.1645507812,       -0.0205078125,      -27.4810791016,      -17.3339843750,       86.0137939453
1494293603.0920081139,       -0.8476562500,        0.1645507812,       -0.0205078125,      -23.5748291016,      -19.6380615234,       84.8846435547
1494293603.0946810246,       -0.8476562500,        0.1645507812,       -0.0205078125,      -26.3671875000,      -19.6380615234,       84.8846435547
1494293603.0972430706,       -0.8476562500,        0.1645507812,       -0.0205078125,      -26.3671875000,      -22.1099853516,       84.2742919922
1494293603.0998010635,       -0.7866210938,        0.0991210938,        0.0307617188,      -27.1301269531,      -22.1099853516,       84.2742919922
1494293603.1024570465,       -0.7866210938,        0.0991210938,        0.0307617188,      -27.1301269531,      -26.0162353516,       83.3435058594
1494293603.1051120758,       -0.7866210938,        0.0991210938,        0.0307617188,      -27.5268554688,      -23.8800048828,       83.3435058594
1494293603.1077659130,       -0.7866210938,        0.0991210938,        0.0307617188,      -27.5268554688,      -23.8800048828,       81.7565917969
1494293603.1104209423,       -0.7500000000,        0.0942382812,        0.0522460938,      -25.1464843750,      -24.1394042969,       81.7565917969
1494293603.1132578850,       -0.7500000000,        0.0942382812,        0.0522460938,      -25.1464843750,      -20.2331542969,       80.1849365234
1494293603.1159210205,       -0.7500000000,        0.0942382812,        0.0522460938,      -23.4832763672,      -23.2391357422,       80.1849365234
1494293603.1187839508,       -0.7500000000,        0.1088867188,        0.0434570312,      -23.4832763672,      -23.2391357422,       78.2318115234
1494293603.1216049194,       -0.7153320312,        0.1088867188,        0.0434570312,      -23.5290527344,      -22.3846435547,       78.2318115234
1494293603.1241669655,       -0.7153320312,        0.1088867188,        0.0434570312,      -23.5290527344,      -22.3846435547,       76.3854980469
1494293603.1267259121,       -0.7153320312,        0.1088867188,        0.0434570312,      -25.4211425781,      -22.0336914062,       76.3854980469
1494293603.1292920113,       -0.6860351562,        0.1293945312,        0.1069335938,      -25.4211425781,      -22.0336914062,       75.1495361328
1494293603.1319649220,       -0.6860351562,        0.1293945312,        0.1069335938,      -26.9775390625,      -22.2625732422,       75.1495361328
1494293603.1346669197,       -0.6860351562,        0.1293945312,        0.1069335938,      -26.9775390625,      -22.2625732422,       73.6846923828
1494293603.1373679638,       -0.6860351562,        0.1293945312,        0.1069335938,      -26.0620117188,      -22.9339599609,       73.6846923828
1494293603.1400659084,       -0.6865234375,        0.1542968750,        0.1533203125,      -26.0620117188,      -22.9339599609,       73.6846923828
1494293603.1426689625,       -0.6865234375,        0.1542968750,        0.1533203125,      -23.9410400391,      -22.6745605469,       72.4487304688
1494293603.1452269554,       -0.6865234375,        0.1542968750,        0.1533203125,      -23.9410400391,      -22.6745605469,       72.4487304688
1494293603.1477880478,       -0.6865234375,        0.1542968750,        0.1533203125,      -21.2249755859,      -22.3236083984,       70.3582763672
1494293603.1503460407,       -0.7260742188,        0.2006835938,        0.1713867188,      -21.2249755859,      -22.3236083984,       70.3582763672
1494293603.1532049179,       -0.7260742188,        0.2006835938,        0.1713867188,      -20.3857421875,      -21.8811035156,       70.0378417969
1494293603.1562058926,       -0.7260742188,        0.2006835938,        0.1713867188,      -20.3857421875,      -21.8811035156,       70.0378417969
1494293603.1587889194,       -0.7260742188,        0.2006835938,        0.1635742188,      -19.7143554688,      -20.0653076172,       70.8923339844
1494293603.1613729000,       -0.7612304688,        0.2260742188,        0.1635742188,      -19.7143554688,      -20.0653076172,       70.8923339844
1494293603.1639308929,       -0.7612304688,        0.2260742188,        0.1635742188,      -17.3797607422,      -16.5405273438,       70.2972412109
1494293603.1664979458,       -0.7612304688,        0.2260742188,        0.1635742188,      -17.3797607422,      -16.5405273438,       70.2972412109
1494293603.1691720486,       -0.7612304688,        0.1938476562,        0.1010742188,      -12.6495361328,      -14.2517089844,       68.3135986328
1494293603.1718070507,       -0.7592773438,        0.1938476562,        0.1010742188,      -12.6495361328,      -14.2517089844,       68.3135986328
1494293603.1745100021,       -0.7592773438,        0.1938476562,        0.1010742188,       -8.9263916016,      -14.2059326172,       66.2841796875
1494293603.1772060394,       -0.7592773438,        0.1938476562,        0.1010742188,       -8.9263916016,      -14.2059326172,       66.2841796875
1494293603.1799008846,       -0.6899414062,        0.2045898438,        0.0966796875,       -8.4991455078,      -14.8925781250,       63.3087158203
1494293603.1826150417,       -0.6899414062,        0.2045898438,        0.0966796875,       -8.4991455078,      -14.8925781250,       63.3087158203
1494293603.1853179932,       -0.6899414062,        0.2045898438,        0.0966796875,       -8.4686279297,      -15.5792236328,       59.5703125000
1494293603.1880159378,       -0.6899414062,        0.2045898438,        0.0966796875,       -8.4686279297,      -15.5792236328,       59.5703125000
1494293603.1907238960,       -0.6987304688,        0.2333984375,        0.0971679688,       -3.9520263672,      -15.6707763672,       56.3812255859
1494293603.1932809353,       -0.6987304688,        0.2333984375,        0.0971679688,       -3.9520263672,      -15.6707763672,       56.3812255859
1494293603.1958329678,       -0.6987304688,        0.2333984375,        0.0971679688,        3.4484863281,      -15.1367187500,       52.9632568359
1494293603.1983890533,       -0.6987304688,        0.2333984375,        0.0971679688,        3.4484863281,      -15.1367187500,       52.9632568359
1494293603.2010910511,       -0.7500000000,        0.2705078125,        0.0600585938,       11.3372802734,      -15.0299072266,       49.3164062500
1494293603.2036581039,       -0.7500000000,        0.2705078125,        0.0600585938,       11.3372802734,      -15.0299072266,       49.3164062500
1494293603.2062199116,       -0.7500000000,        0.2705078125,        0.0600585938,       19.1497802734,      -15.3961181641,       46.0510253906
1494293603.2087869644,       -0.7500000000,        0.2705078125,        0.0600585938,       17.9443359375,      -15.3961181641,       46.0510253906
1494293603.2114679813,       -0.7797851562,        0.2275390625,       -0.0034179688,       17.9443359375,      -15.8996582031,       42.9077148438
1494293603.2140269279,       -0.7797851562,        0.2275390625,       -0.0034179688,       22.0336914062,      -15.8996582031,       42.9077148438
1494293603.2165930271,       -0.7797851562,        0.2275390625,       -0.0034179688,       22.0336914062,      -15.8996582031,       40.0085449219
1494293603.2191450596,       -0.7797851562,        0.2275390625,       -0.0092773438,       22.5677490234,      -17.0898437500,       40.0085449219
1494293603.2218039036,       -0.7485351562,        0.1816406250,       -0.0092773438,       22.5677490234,      -17.0898437500,       37.8265380859
1494293603.2245080471,       -0.7485351562,        0.1816406250,       -0.0092773438,       21.5454101562,      -18.3563232422,       37.8265380859
1494293603.2272109985,       -0.7485351562,        0.1816406250,       -0.0092773438,       21.5454101562,      -18.3563232422,       36.0870361328
1494293603.2299170494,       -0.7485351562,        0.1523437500,        0.0073242188,       19.3939208984,      -19.3023681641,       36.0870361328
1494293603.2326231003,       -0.7255859375,        0.1523437500,        0.0073242188,       19.3939208984,      -19.3023681641,       34.7442626953
1494293603.2353210449,       -0.7255859375,        0.1523437500,        0.0073242188,       16.0675048828,      -20.1721191406,       34.7442626953
1494293603.2380220890,       -0.7255859375,        0.1523437500,        0.0073242188,       16.0675048828,      -20.1721191406,       34.7442626953
1494293603.2408339977,       -0.7182617188,        0.1245117188,        0.0126953125,       10.9252929688,      -20.7519531250,       34.7442626953
1494293603.2435319424,       -0.7182617188,        0.1245117188,        0.0126953125,       10.9252929688,      -20.7519531250,       34.9426269531
1494293603.2462379932,       -0.7182617188,        0.1245117188,        0.0126953125,        4.9133300781,      -21.4843750000,       34.9426269531
1494293603.2489290237,       -0.7182617188,        0.1245117188,        0.0126953125,        4.9133300781,      -21.4843750000,       35.4614257812
1494293603.2516360283,       -0.7182617188,        0.0854492188,        0.0244140625,       -1.0528564453,      -21.3775634766,       35.4614257812
1494293603.2543289661,       -0.7182617188,        0.0854492188,        0.0244140625,       -1.0528564453,      -21.3775634766,       35.4614257812
1494293603.2570240498,       -0.7182617188,        0.0854492188,        0.0244140625,       -6.1492919922,      -21.2707519531,       36.0260009766
1494293603.2597250938,       -0.7182617188,        0.0854492188,        0.0590820312,       -6.1492919922,      -21.2707519531,       36.0260009766
1494293603.2623438835,       -0.7314453125,        0.0839843750,        0.0590820312,      -11.2152099609,      -20.9655761719,       36.7736816406
1494293603.2648959160,       -0.7314453125,        0.0839843750,        0.0590820312,      -11.2152099609,      -20.9655761719,       36.7736816406
1494293603.2675130367,       -0.7314453125,        0.0839843750,        0.0590820312,      -15.6250000000,      -20.6298828125,       37.0941162109
1494293603.2700710297,       -0.7314453125,        0.1357421875,        0.1040039062,      -15.6250000000,      -20.6298828125,       37.0941162109
1494293603.2727789879,       -0.7119140625,        0.1357421875,        0.1040039062,      -16.9372558594,      -19.5617675781,       36.5753173828
1494293603.2754819393,       -0.7119140625,        0.1357421875,        0.1040039062,      -16.9372558594,      -19.5617675781,       36.5753173828
1494293603.2781879902,       -0.7119140625,        0.1357421875,        0.1040039062,      -16.4947509766,      -18.8293457031,       35.0952148438
1494293603.2809391022,       -0.7099609375,        0.1855468750,        0.1279296875,      -16.4947509766,      -18.8293457031,       35.0952148438
1494293603.2836420536,       -0.7099609375,        0.1855468750,        0.1279296875,      -14.4500732422,      -18.1121826172,       32.9284667969
1494293603.2863450050,       -0.7099609375,        0.1855468750,        0.1279296875,      -14.4500732422,      -18.1121826172,       32.9284667969
1494293603.2890479565,       -0.7099609375,        0.1855468750,        0.1279296875,      -10.3912353516,      -17.0593261719,       30.4565429688
1494293603.2917530537,       -0.7021484375,        0.2080078125,        0.1450195312,      -10.3912353516,      -17.0593261719,       30.4565429688
1494293603.2944519520,       -0.7021484375,        0.2080078125,        0.1450195312,       -5.7830810547,      -15.6402587891,       27.9998779297
1494293603.2971489429,       -0.7021484375,        0.2080078125,        0.1450195312,       -5.7830810547,      -15.6402587891,       27.9998779297
1494293603.2998430729,       -0.7021484375,        0.2080078125,        0.1298828125,       -1.6174316406,      -14.5416259766,       25.2075195312
1494293603.3024909496,       -0.7094726562,        0.1953125000,        0.1298828125,       -1.6174316406,      -14.5416259766,       25.2075195312
1494293603.3050410748,       -0.7094726562,        0.1953125000,        0.1298828125,        2.3651123047,      -14.5111083984,       22.8881835938
1494293603.3075950146,       -0.7094726562,        0.1953125000,        0.1298828125,        2.3651123047,      -14.5111083984,       22.8881835938
1494293603.3101530075,       -0.7094726562,        0.1953125000,        0.1274414062,        6.7138671875,      -14.6484375000,       20.9045410156
1494293603.3128480911,       -0.7309570312,        0.1723632812,        0.1274414062,        6.7138671875,      -14.6484375000,       20.9045410156
1494293603.3155190945,       -0.7309570312,        0.1723632812,        0.1274414062,       11.1999511719,      -14.7399902344,       19.6380615234
1494293603.3180849552,       -0.7309570312,        0.1723632812,        0.1274414062,       11.1999511719,      -14.7399902344,       19.6380615234
1494293603.3207850456,       -0.7309570312,        0.1245117188,        0.1191406250,       13.3361816406,      -13.8397216797,       18.8446044922
1494293603.3234920502,       -0.7421875000,        0.1245117188,        0.1191406250,       13.3361816406,      -13.8397216797,       18.8446044922
1494293603.3262000084,       -0.7421875000,        0.1245117188,        0.1191406250,       13.5345458984,      -13.4124755859,       18.6309814453
1494293603.3288989067,       -0.7421875000,        0.1245117188,        0.1191406250,       13.5345458984,      -13.4124755859,       18.6309814453
1494293603.3316109180,       -0.7333984375,        0.1274414062,        0.1113281250,       13.1378173828,      -12.8479003906,       19.0734863281
1494293603.3343091011,       -0.7333984375,        0.1274414062,        0.1113281250,       13.1378173828,      -12.8479003906,       19.0734863281
1494293603.3370060921,       -0.7333984375,        0.1274414062,        0.1113281250,       11.2762451172,      -12.4664306641,       19.2108154297
1494293603.3397030830,       -0.7333984375,        0.1274414062,        0.1113281250,       11.2762451172,      -12.4664306641,       19.2108154297
1494293603.3424129486,       -0.7294921875,        0.1396484375,        0.0825195312,        8.7127685547,      -11.9934082031,       19.2871093750
1494293603.3451070786,       -0.7294921875,        0.1396484375,        0.0825195312,        8.7127685547,      -11.9934082031,       19.2871093750
1494293603.3478019238,       -0.7294921875,        0.1396484375,        0.0825195312,        5.3710937500,      -11.3220214844,       19.8974609375
1494293603.3505010605,       -0.7294921875,        0.1396484375,        0.0766601562,        5.3710937500,      -11.3220214844,       19.8974609375
1494293603.3530828953,       -0.7172851562,        0.1528320312,        0.0766601562,        1.4648437500,      -11.1083984375,       20.3399658203
1494293603.3556430340,       -0.7172851562,        0.1528320312,        0.0766601562,        2.8228759766,      -11.1083984375,       20.3399658203
1494293603.3583478928,       -0.7172851562,        0.1528320312,        0.0766601562,        2.8228759766,      -11.1083984375,       20.2941894531
1494293603.3610990047,       -0.7172851562,        0.1831054688,        0.0854492188,        1.2664794922,      -10.8489990234,       20.2941894531
1494293603.3637518883,       -0.7031250000,        0.1831054688,        0.0854492188,        1.2664794922,      -10.8489990234,       19.3939208984
1494293603.3664910793,       -0.7031250000,        0.1831054688,        0.0854492188,        1.9836425781,      -11.2609863281,       19.3939208984
1494293603.3691558838,       -0.7031250000,        0.1831054688,        0.0854492188,        5.8898925781,      -12.4206542969,       18.1732177734
1494293603.3722240925,       -0.7211914062,        0.2036132812,        0.0825195312,        5.2337646484,      -12.4206542969,       18.1732177734
1494293603.3749220371,       -0.7211914062,        0.2036132812,        0.0825195312,        9.1400146484,      -13.0767822266,       16.8609619141
1494293603.3776190281,       -0.7211914062,        0.2036132812,        0.0825195312,        8.4838867188,      -13.0767822266,       16.8609619141
1494293603.3803210258,       -0.7211914062,        0.2036132812,        0.0825195312,        8.4838867188,      -13.6260986328,       15.3503417969
1494293603.3830349445,       -0.7119140625,        0.1962890625,        0.0815429688,       10.8642578125,      -13.6260986328,       15.3503417969
1494293603.3857309818,       -0.7119140625,        0.1962890625,        0.0815429688,       14.7705078125,      -13.2293701172,       13.8092041016
1494293603.3884329796,       -0.7119140625,        0.1962890625,        0.0815429688,       13.2293701172,      -13.2293701172,       13.8092041016
1494293603.3912699223,       -0.7119140625,        0.1850585938,        0.0898437500,       13.2293701172,      -13.7329101562,       13.2141113281
1494293603.3938388824,       -0.7070312500,        0.1850585938,        0.0898437500,       14.8010253906,      -13.7329101562,       13.2141113281
1494293603.3963930607,       -0.7070312500,        0.1850585938,        0.0898437500,       14.8010253906,      -13.7329101562,       12.3138427734
1494293603.3989510536,       -0.7070312500,        0.1850585938,        0.0898437500,       15.1367187500,      -14.4500732422,       12.3138427734
1494293603.4015610218,       -0.6997070312,        0.1865234375,        0.1010742188,       15.1367187500,      -14.4500732422,       12.2680664062
1494293603.4041221142,       -0.6997070312,        0.1865234375,        0.1010742188,       14.5111083984,      -14.2822265625,       12.2680664062
1494293603.4066751003,       -0.6997070312,        0.1865234375,        0.1010742188,       14.5111083984,      -14.2822265625,       12.2680664062
1494293603.4092381001,       -0.6997070312,        0.1865234375,        0.1010742188,       14.6942138672,      -13.9770507812,       11.7034912109
1494293603.4118020535,       -0.7041015625,        0.1767578125,        0.1137695312,       14.6942138672,      -13.9770507812,       11.7034912109
1494293603.4143669605,       -0.7041015625,        0.1767578125,        0.1137695312,       15.0451660156,      -13.9160156250,       11.7950439453
1494293603.4169270992,       -0.7041015625,        0.1767578125,        0.1137695312,       15.0451660156,      -13.9160156250,       11.7950439453
1494293603.4194850922,       -0.7041015625,        0.1767578125,        0.1137695312,       15.2282714844,      -13.8702392578,       11.7340087891
1494293603.4222180843,       -0.7031250000,        0.1708984375,        0.1181640625,       15.2282714844,      -13.8702392578,       11.7340087891
1494293603.4247760773,       -0.7031250000,        0.1708984375,        0.1181640625,       15.7470703125,      -13.6260986328,       11.6882324219
1494293603.4273369312,       -0.7031250000,        0.1708984375,        0.1181640625,       15.7470703125,      -13.6260986328,       11.6882324219
1494293603.4298989773,       -0.7031250000,        0.1708984375,        0.1181640625,       16.6931152344,      -13.6718750000,       11.3677978516
1494293603.4326870441,       -0.7084960938,        0.1533203125,        0.1132812500,       16.6931152344,      -13.6718750000,       11.3677978516
1494293603.4353919029,       -0.7084960938,        0.1533203125,        0.1132812500,       17.0593261719,      -13.0767822266,       11.2762451172
1494293603.4380900860,       -0.7084960938,        0.1533203125,        0.1132812500,       17.0593261719,      -13.0767822266,       11.2762451172
1494293603.4407980442,       -0.7084960938,        0.1533203125,        0.1132812500,       16.8304443359,      -12.6647949219,       11.7950439453
1494293603.4433629513,       -0.7167968750,        0.1391601562,        0.1196289062,       16.8304443359,      -12.6647949219,       11.7950439453
1494293603.4459218979,       -0.7167968750,        0.1391601562,        0.1196289062,       16.6015625000,      -12.3901367188,       12.4206542969
1494293603.4484748840,       -0.7167968750,        0.1391601562,        0.1196289062,       16.6015625000,      -12.3901367188,       12.4206542969
1494293603.4510960579,       -0.7167968750,        0.1391601562,        0.1235351562,       16.6015625000,      -12.1002197266,       12.5427246094
1494293603.4537980556,       -0.7158203125,        0.1513671875,        0.1235351562,       16.7999267578,      -12.1002197266,       12.5427246094
1494293603.4565010071,       -0.7158203125,        0.1513671875,        0.1235351562,       16.7999267578,      -12.3901367188,       12.5885009766
1494293603.4591960907,       -0.7158203125,        0.1513671875,        0.1235351562,       17.1356201172,      -12.3901367188,       12.5885009766
1494293603.4620089531,       -0.7158203125,        0.1787109375,        0.1166992188,       17.1356201172,      -12.2070312500,       13.1225585938
1494293603.4647099972,       -0.7016601562,        0.1787109375,        0.1166992188,       17.8680419922,      -12.2070312500,       13.1225585938
1494293603.4674069881,       -0.7016601562,        0.1787109375,        0.1166992188,       17.8680419922,      -12.5274658203,       13.3972167969
1494293603.4701030254,       -0.7016601562,        0.1787109375,        0.1166992188,       19.0124511719,      -12.5274658203,       13.3972167969
1494293603.4728150368,       -0.7021484375,        0.1840820312,        0.1054687500,       22.9187011719,      -12.3443603516,       13.7939453125
1494293603.4755120277,       -0.7021484375,        0.1840820312,        0.1054687500,       19.9432373047,      -12.3443603516,       13.7939453125
1494293603.4782159328,       -0.7021484375,        0.1840820312,        0.1054687500,       19.9432373047,      -12.0239257812,       14.0228271484
1494293603.4809548855,       -0.7021484375,        0.1840820312,        0.1054687500,       19.9279785156,      -12.0239257812,       14.0228271484
1494293603.4836499691,       -0.7060546875,        0.1748046875,        0.1079101562,       19.9279785156,      -11.8713378906,       14.4500732422
1494293603.4863529205,       -0.7060546875,        0.1748046875,        0.1079101562,       19.9127197266,      -11.8713378906,       14.4500732422
1494293603.4892899990,       -0.7060546875,        0.1748046875,        0.1079101562,       19.2260742188,      -11.6271972656,       15.3503417969
1494293603.4921219349,       -0.7060546875,        0.1694335938,        0.1127929688,       19.2260742188,      -11.6271972656,       15.3503417969
1494293603.4946920872,       -0.7128906250,        0.1694335938,        0.1127929688,       19.2260742188,      -11.4288330078,       15.8386230469
1494293603.4972529411,       -0.7128906250,        0.1694335938,        0.1127929688,       18.9819335938,      -11.4288330078,       15.8386230469
1494293603.4998190403,       -0.7128906250,        0.1694335938,        0.1127929688,       18.9819335938,      -11.4288330078,       16.3726806641
1494293603.5027439594,       -0.7001953125,        0.1801757812,        0.1079101562,       19.5770263672,      -11.2609863281,       16.3726806641
1494293603.5054469109,       -0.7001953125,        0.1801757812,        0.1079101562,       19.5770263672,      -11.4593505859,       17.1508789062
1494293603.5081479549,       -0.7001953125,        0.1801757812,        0.1079101562,       19.8822021484,      -11.4593505859,       17.1508789062
1494293603.5109190941,       -0.7001953125,        0.1801757812,        0.1079101562,       19.8822021484,      -11.6882324219,       18.2037353516
1494293603.5136189461,       -0.6953125000,        0.2021484375,        0.1166992188,       20.9350585938,      -11.6882324219,       18.2037353516
1494293603.5163218975,       -0.6953125000,        0.2021484375,        0.1166992188,       20.9350585938,      -11.5966796875,       18.2647705078
1494293603.5190169811,       -0.6953125000,        0.2021484375,        0.1166992188,       22.3388671875,      -11.5966796875,       18.2647705078
1494293603.5217130184,       -0.6953125000,        0.2021484375,        0.1220703125,       22.3388671875,      -11.9171142578,       17.9901123047
1494293603.5242760181,       -0.7104492188,        0.2060546875,        0.1220703125,       23.6206054688,      -11.9171142578,       17.9901123047
1494293603.5268390179,       -0.7104492188,        0.2060546875,        0.1220703125,       23.6206054688,      -11.9171142578,       18.0816650391
1494293603.5294039249,       -0.7104492188,        0.2060546875,        0.1220703125,       24.7192382812,      -12.1612548828,       18.0816650391
1494293603.5319709778,       -0.7104492188,        0.2060546875,        0.1181640625,       24.7192382812,      -12.1612548828,       18.0816650391
1494293603.5345389843,       -0.6923828125,        0.1967773438,        0.1181640625,       26.3214111328,      -12.2833251953,       18.3868408203
1494293603.5372090340,       -0.6923828125,        0.1967773438,        0.1181640625,       26.3214111328,      -12.2833251953,       18.3868408203
1494293603.5397739410,       -0.6923828125,        0.1967773438,        0.1181640625,       27.5573730469,      -11.9018554688,       18.3868408203
1494293603.5425479412,       -0.6923828125,        0.1923828125,        0.1093750000,       27.5573730469,      -11.9018554688,       18.3868408203
1494293603.5451130867,       -0.7084960938,        0.1923828125,        0.1093750000,       28.2592773438,      -12.0391845703,       18.2952880859
1494293603.5476770401,       -0.7084960938,        0.1923828125,        0.1093750000,       28.2592773438,      -12.0391845703,       18.2952880859
1494293603.5502450466,       -0.7084960938,        0.1923828125,        0.1093750000,       27.7099609375,      -11.8560791016,       18.1884765625
1494293603.5530869961,       -0.7211914062,        0.1806640625,        0.0913085938,       27.7099609375,      -11.8560791016,       18.1884765625
1494293603.5557971001,       -0.7211914062,        0.1806640625,        0.0913085938,       25.4364013672,      -11.6119384766,       18.9666748047
1494293603.5584950447,       -0.7211914062,        0.1806640625,        0.0913085938,       25.4364013672,      -11.6119384766,       18.9666748047
1494293603.5612030029,       -0.7211914062,        0.1806640625,        0.0913085938,       22.3541259766,      -10.1318359375,       20.1873779297
1494293603.5639019012,       -0.7036132812,        0.1723632812,        0.1000976562,       22.3541259766,      -10.1318359375,       20.1873779297
1494293603.5665979385,       -0.7036132812,        0.1723632812,        0.1000976562,       19.4702148438,       -9.1247558594,       21.4843750000
1494293603.5692911148,       -0.7036132812,        0.1723632812,        0.1000976562,       19.4702148438,       -9.1247558594,       21.4843750000
1494293603.5720019341,       -0.7036132812,        0.1723632812,        0.1000976562,       17.4560546875,       -8.6975097656,       22.7050781250
1494293603.5747010708,       -0.6992187500,        0.1904296875,        0.1210937500,       17.4560546875,       -8.6975097656,       22.7050781250
1494293603.5774040222,       -0.6992187500,        0.1904296875,        0.1210937500,       15.2587890625,       -8.1176757812,       23.3764648438
1494293603.5801019669,       -0.6992187500,        0.1904296875,        0.1210937500,       15.2587890625,       -8.1176757812,       23.3764648438
1494293603.5827040672,       -0.6992187500,        0.2016601562,        0.1191406250,       13.4735107422,       -8.0566406250,       23.6358642578
1494293603.5852649212,       -0.7075195312,        0.2016601562,        0.1191406250,       13.4735107422,       -8.0566406250,       23.6358642578
1494293603.5878241062,       -0.7075195312,        0.2016601562,        0.1191406250,       13.5955810547,       -8.1481933594,       23.8952636719
1494293603.5903840065,       -0.7075195312,        0.2016601562,        0.1191406250,       13.5955810547,       -8.1481933594,       23.8952636719
1494293603.5930840969,       -0.7075195312,        0.2226562500,        0.1162109375,       14.1143798828,       -7.8125000000,       23.9715576172
1494293603.5956408978,       -0.7045898438,        0.2226562500,        0.1162109375,       14.1143798828,       -7.8125000000,       23.9715576172
1494293603.5981988907,       -0.7045898438,        0.2226562500,        0.1162109375,       14.5263671875,       -7.4615478516,       23.9562988281
1494293603.6008319855,       -0.7045898438,        0.2226562500,        0.1162109375,       14.5263671875,       -7.4615478516,       23.9562988281
1494293603.6035039425,       -0.7031250000,        0.2216796875,        0.1245117188,       18.4326171875,       -8.0566406250,       23.5595703125
1494293603.6061799526,       -0.7031250000,        0.2216796875,        0.1245117188,       15.7775878906,       -8.0566406250,       23.5595703125
1494293603.6089189053,       -0.7031250000,        0.2216796875,        0.1245117188,       15.7775878906,       -8.0108642578,       23.6358642578
1494293603.6117410660,       -0.7031250000,        0.2216796875,        0.1245117188,       16.5863037109,       -8.0108642578,       23.6358642578
1494293603.6145451069,       -0.7050781250,        0.2167968750,        0.1362304688,       17.0593261719,       -8.1024169922,       23.8494873047
1494293603.6173961163,       -0.7050781250,        0.2167968750,        0.1362304688,       17.0593261719,       -8.1024169922,       23.8494873047
1494293603.6201009750,       -0.7050781250,        0.2167968750,        0.1362304688,       16.8457031250,       -8.2244873047,       24.6582031250
1494293603.6228060722,       -0.7050781250,        0.2167968750,        0.1328125000,       16.8457031250,       -8.2244873047,       24.6582031250
1494293603.6255099773,       -0.7011718750,        0.2158203125,        0.1328125000,       16.8457031250,       -8.1329345703,       24.9633789062
1494293603.6282069683,       -0.7011718750,        0.2158203125,        0.1328125000,       16.8457031250,       -8.1329345703,       24.9633789062
1494293603.6309409142,       -0.7011718750,        0.2158203125,        0.1328125000,       16.6931152344,       -8.5906982422,       25.2075195312
1494293603.6336491108,       -0.6948242188,        0.2109375000,        0.1318359375,       16.6931152344,       -8.5906982422,       25.2075195312
1494293603.6363430023,       -0.6948242188,        0.2109375000,        0.1318359375,       16.2811279297,       -8.3465576172,       25.1922607422
1494293603.6390409470,       -0.6948242188,        0.2109375000,        0.1318359375,       16.2811279297,       -8.3465576172,       25.1922607422
1494293603.6417100430,       -0.6948242188,        0.2109375000,        0.1318359375,       16.2811279297,       -8.3312988281,       25.1922607422
1494293603.6442620754,       -0.7006835938,        0.2441406250,        0.1225585938,       16.7999267578,       -8.3312988281,       25.1922607422
1494293603.6468169689,       -0.7006835938,        0.2441406250,        0.1225585938,       16.7999267578,       -8.3312988281,       24.7802734375
1494293603.6493690014,       -0.7006835938,        0.2441406250,        0.1225585938,       18.0358886719,       -8.5449218750,       24.7802734375
1494293603.6519401073,       -0.7006835938,        0.2441406250,        0.1225585938,       18.0358886719,       -8.5449218750,       24.0325927734
1494293603.6544990540,       -0.7001953125,        0.2578125000,        0.1186523438,       19.6838378906,       -9.3994140625,       24.0325927734
1494293603.6570510864,       -0.7001953125,        0.2578125000,        0.1186523438,       19.6838378906,       -9.3994140625,       24.0325927734
1494293603.6596069336,       -0.7001953125,        0.2578125000,        0.1186523438,       21.4538574219,      -10.0250244141,       23.6511230469
1494293603.6623508930,       -0.7001953125,        0.2578125000,        0.1186523438,       21.4538574219,      -10.0250244141,       23.6511230469
1494293603.6649110317,       -0.6997070312,        0.2636718750,        0.1064453125,       22.8881835938,      -10.0555419922,       22.8881835938
1494293603.6674730778,       -0.6997070312,        0.2636718750,        0.1064453125,       22.8881835938,      -10.0555419922,       22.8881835938
1494293603.6700289249,       -0.6997070312,        0.2636718750,        0.1064453125,       23.7731933594,       -9.8419189453,       22.2625732422
1494293603.6727089882,       -0.6997070312,        0.2636718750,        0.1064453125,       23.7731933594,       -9.8419189453,       22.2625732422
1494293603.6754031181,       -0.7021484375,        0.2524414062,        0.1118164062,       24.5971679688,       -9.3688964844,       22.0031738281
1494293603.6780939102,       -0.7021484375,        0.2524414062,        0.1118164062,       24.5971679688,       -9.3688964844,       22.0031738281
1494293603.6807949543,       -0.7021484375,        0.2524414062,        0.1118164062,       24.7192382812,       -9.7961425781,       22.0794677734
1494293603.6834619045,       -0.7021484375,        0.2475585938,        0.1152343750,       24.7192382812,       -9.7961425781,       22.0794677734
1494293603.6860179901,       -0.6967773438,        0.2475585938,        0.1152343750,       24.3377685547,       -9.9945068359,       22.7355957031
1494293603.6885769367,       -0.6967773438,        0.2475585938,        0.1152343750,       24.3377685547,       -9.9945068359,       22.7355957031
1494293603.6911950111,       -0.6967773438,        0.2475585938,        0.1152343750,       23.8189697266,       -9.7503662109,       22.6287841797
1494293603.6938850880,       -0.6967773438,        0.2470703125,        0.1186523438,       23.8189697266,       -9.7503662109,       22.6287841797
1494293603.6965858936,       -0.6923828125,        0.2470703125,        0.1186523438,       23.3001708984,       -9.2315673828,       23.2238769531
1494293603.6992828846,       -0.6923828125,        0.2470703125,        0.1186523438,       23.3001708984,       -9.2315673828,       23.2238769531
1494293603.7019910812,       -0.6923828125,        0.2470703125,        0.1186523438,       23.5900878906,       -8.8348388672,       23.8647460938
1494293603.7046871185,       -0.6850585938,        0.2583007812,        0.1054687500,       23.5900878906,       -8.8348388672,       23.8647460938
1494293603.7073869705,       -0.6850585938,        0.2583007812,        0.1054687500,       22.9949951172,       -8.6975097656,       24.4445800781
1494293603.7100830078,       -0.6850585938,        0.2583007812,        0.1054687500,       22.9949951172,       -8.6975097656,       24.4445800781
1494293603.7127890587,       -0.6850585938,        0.2583007812,        0.1054687500,       22.3236083984,       -8.2397460938,       24.8413085938
1494293603.7154810429,       -0.6870117188,        0.2675781250,        0.1132812500,       22.3236083984,       -8.2397460938,       24.8413085938
1494293603.7181830406,       -0.6870117188,        0.2675781250,        0.1132812500,       21.4080810547,       -8.2244873047,       25.5889892578
1494293603.7209420204,       -0.6870117188,        0.2675781250,        0.1132812500,       21.4080810547,       -8.2244873047,       25.5889892578
1494293603.7236371040,       -0.6870117188,        0.1425781250,        0.1166992188,       20.2636718750,       -7.5073242188,       26.5197753906
1494293603.7263400555,       -0.6879882812,        0.2402343750,        0.1166992188,       20.2636718750,       -7.5073242188,       26.5197753906
1494293603.7293059826,       -0.6879882812,        0.2402343750,        0.1166992188,       19.4396972656,       -6.8206787109,       27.3284912109
1494293603.7322790623,       -0.6879882812,        0.2402343750,        0.1166992188,       19.4396972656,       -6.8206787109,       27.3284912109
1494293603.7348399162,       -0.6904296875,        0.2460937500,        0.1381835938,       17.8833007812,       -6.3781738281,       28.3355712891
1494293603.7373969555,       -0.6904296875,        0.2460937500,        0.1381835938,       17.8833007812,       -6.3781738281,       28.3355712891
1494293603.7399559021,       -0.6904296875,        0.2460937500,        0.1381835938,       16.5252685547,       -6.5155029297,       29.7241210938
1494293603.7426331043,       -0.6904296875,        0.2460937500,        0.1381835938,       16.5252685547,       -6.5155029297,       29.7241210938
1494293603.7453320026,       -0.6918945312,        0.2524414062,        0.1420898438,       15.5944824219,       -6.2713623047,       30.5023193359
1494293603.7480249405,       -0.6918945312,        0.2524414062,        0.1420898438,       15.5944824219,       -6.2713623047,       30.5023193359
1494293603.7507309914,       -0.6918945312,        0.2524414062,        0.1420898438,       15.7165527344,       -5.9509277344,       30.9448242188
1494293603.7534248829,       -0.6918945312,        0.2524414062,        0.1420898438,       15.7165527344,       -5.9509277344,       30.9448242188
1494293603.7561149597,       -0.6835937500,        0.2783203125,        0.1342773438,       16.1132812500,       -6.1340332031,       31.0974121094
1494293603.7589330673,       -0.6835937500,        0.2783203125,        0.1342773438,       16.1132812500,       -6.1340332031,       31.0974121094
1494293603.7616078854,       -0.6835937500,        0.2783203125,        0.1342773438,       16.4794921875,       -6.2866210938,       30.8532714844
1494293603.7641670704,       -0.6835937500,        0.2822265625,        0.1108398438,       16.4794921875,       -6.2866210938,       30.8532714844
1494293603.7667219639,       -0.6914062500,        0.2822265625,        0.1108398438,       16.4794921875,       -6.2408447266,       31.0974121094
1494293603.7692809105,       -0.6914062500,        0.2822265625,        0.1108398438,       16.6320800781,       -6.2408447266,       31.0974121094
1494293603.7718920708,       -0.6914062500,        0.2822265625,        0.1108398438,       16.6320800781,       -6.2408447266,       31.2042236328
1494293603.7744510174,       -0.6914062500,        0.2836914062,        0.1093750000,       16.3726806641,       -6.1187744141,       31.2042236328
1494293603.7770090103,       -0.6879882812,        0.2836914062,        0.1093750000,       16.3726806641,       -6.1187744141,       31.7077636719
1494293603.7795689106,       -0.6879882812,        0.2836914062,        0.1093750000,       16.7541503906,       -6.5002441406,       31.7077636719
1494293603.7822570801,       -0.6879882812,        0.2836914062,        0.1093750000,       16.7541503906,       -6.5002441406,       31.7077636719
1494293603.7848160267,       -0.6689453125,        0.2875976562,        0.1015625000,       16.6320800781,       -6.3934326172,       32.3486328125
1494293603.7873759270,       -0.6689453125,        0.2875976562,        0.1015625000,       16.6320800781,       -6.3934326172,       32.3486328125
1494293603.7899360657,       -0.6689453125,        0.2875976562,        0.1015625000,       16.9067382812,       -6.7138671875,       33.2031250000
1494293603.7927019596,       -0.6689453125,        0.2875976562,        0.1015625000,       16.9067382812,       -6.7138671875,       33.2031250000
1494293603.7954030037,       -0.6787109375,        0.3012695312,        0.1113281250,       17.3187255859,       -6.5612792969,       33.3404541016
1494293603.7981050014,       -0.6787109375,        0.3012695312,        0.1113281250,       17.3187255859,       -6.5612792969,       33.3404541016
1494293603.8008120060,       -0.6787109375,        0.3012695312,        0.1113281250,       18.1884765625,       -6.2561035156,       33.2946777344
1494293603.8035171032,       -0.6787109375,        0.3012695312,        0.1113281250,       18.1884765625,       -6.2561035156,       33.2946777344
1494293603.8062140942,       -0.6767578125,        0.3144531250,        0.1152343750,       18.3410644531,       -6.3323974609,       33.7677001953
1494293603.8089148998,       -0.6767578125,        0.3144531250,        0.1152343750,       18.3410644531,       -6.3323974609,       33.7677001953
1494293603.8116199970,       -0.6767578125,        0.3144531250,        0.1152343750,       18.5852050781,       -5.9814453125,       33.8439941406
1494293603.8143150806,       -0.6767578125,        0.3144531250,        0.1333007812,       18.5852050781,       -5.9814453125,       33.8439941406
1494293603.8170149326,       -0.6811523438,        0.3071289062,        0.1333007812,       18.6309814453,       -6.3018798828,       33.7829589844
1494293603.8197109699,       -0.6811523438,        0.3071289062,        0.1333007812,       18.6309814453,       -6.3018798828,       33.7829589844
1494293603.8223340511,       -0.6811523438,        0.3071289062,        0.1333007812,       18.8293457031,       -6.0119628906,       33.8897705078
1494293603.8248939514,       -0.6811523438,        0.3159179688,        0.1323242188,       18.8293457031,       -6.0119628906,       33.8897705078
1494293603.8274469376,       -0.6894531250,        0.3159179688,        0.1323242188,       19.4549560547,       -5.5999755859,       34.1186523438
1494293603.8300080299,       -0.6894531250,        0.3159179688,        0.1323242188,       19.4549560547,       -5.5999755859,       34.1186523438
1494293603.8328769207,       -0.6894531250,        0.3159179688,        0.1323242188,       19.7906494141,       -5.1574707031,       34.3322753906
1494293603.8354370594,       -0.6860351562,        0.3281250000,        0.1308593750,       19.7906494141,       -5.1574707031,       34.3322753906
1494293603.8379969597,       -0.6860351562,        0.3281250000,        0.1308593750,       19.8669433594,       -5.1879882812,       33.8897705078
1494293603.8405499458,       -0.6860351562,        0.3281250000,        0.1308593750,       19.8669433594,       -5.1879882812,       33.8897705078
1494293603.8432989120,       -0.6860351562,        0.3281250000,        0.1308593750,       19.1040039062,       -4.8522949219,       34.0118408203
1494293603.8459730148,       -0.6791992188,        0.3237304688,        0.1152343750,       19.1040039062,       -4.8522949219,       34.0118408203
1494293603.8488719463,       -0.6791992188,        0.3237304688,        0.1152343750,       18.6920166016,       -4.5318603516,       34.2559814453
1494293603.8517611027,       -0.6791992188,        0.3237304688,        0.1152343750,       18.6920166016,       -4.5318603516,       34.2559814453
1494293603.8544509411,       -0.6791992188,        0.3237304688,        0.1250000000,       19.0429687500,       -4.3182373047,       34.5153808594
1494293603.8571310043,       -0.6787109375,        0.3393554688,        0.1250000000,       19.0429687500,       -4.3182373047,       34.5153808594
1494293603.8598229885,       -0.6787109375,        0.3393554688,        0.1250000000,       19.9584960938,       -4.2877197266,       34.6527099609
1494293603.8625509739,       -0.6787109375,        0.3393554688,        0.1250000000,       19.9584960938,       -4.2877197266,       34.6527099609
1494293603.8652410507,       -0.6787109375,        0.3476562500,        0.1259765625,       20.4010009766,       -4.4708251953,       34.6679687500
1494293603.8679249287,       -0.6757812500,        0.3476562500,        0.1259765625,       20.4010009766,       -4.4708251953,       34.6679687500
1494293603.8706119061,       -0.6757812500,        0.3476562500,        0.1259765625,       21.2860107422,       -4.4250488281,       34.8205566406
1494293603.8743240833,       -0.6757812500,        0.3476562500,        0.0986328125,       21.2860107422,       -4.4250488281,       34.7442626953
1494293603.8780579567,       -0.6875000000,        0.3320312500,        0.0986328125,       21.1944580078,       -3.9367675781,       35.3698730469
1494293603.8854610920,       -0.6875000000,        0.3378906250,        0.1074218750,       21.3012695312,       -3.9367675781,       36.1785888672
1494293603.8884871006,       -0.6875000000,        0.3378906250,        0.1074218750,       21.0876464844,       -3.8299560547,       36.1785888672
1494293603.8920099735,       -0.6875000000,        0.3378906250,        0.1074218750,       21.4233398438,       -3.0975341797,       37.1856689453
1494293603.8976778984,       -0.6826171875,        0.3330078125,        0.1069335938,       20.9503173828,       -2.7313232422,       38.2690429688
1494293603.9002799988,       -0.6826171875,        0.3330078125,        0.1069335938,       20.9503173828,       -2.7313232422,       38.2690429688
1494293603.9030470848,       -0.6826171875,        0.3330078125,        0.1069335938,       20.7214355469,       -2.6550292969,       39.2456054688
1494293603.9056060314,       -0.6826171875,        0.3437500000,        0.1181640625,       20.7214355469,       -2.6550292969,       39.2456054688
1494293603.9081590176,       -0.6772460938,        0.3437500000,        0.1181640625,       20.7214355469,       -2.5787353516,       39.9322509766
1494293603.9108369350,       -0.6772460938,        0.3437500000,        0.1181640625,       21.1639404297,       -2.5787353516,       39.9322509766
1494293603.9134020805,       -0.6772460938,        0.3437500000,        0.1181640625,       21.1639404297,       -2.5787353516,       40.7409667969
1494293603.9160840511,       -0.6860351562,        0.3466796875,        0.1347656250,       22.0031738281,       -2.6092529297,       40.7409667969
1494293603.9186429977,       -0.6860351562,        0.3466796875,        0.1347656250,       22.0031738281,       -2.6092529297,       41.5039062500
1494293603.9213509560,       -0.6860351562,        0.3466796875,        0.1347656250,       23.1628417969,       -2.2430419922,       41.5039062500
1494293603.9239060879,       -0.6860351562,        0.3466796875,        0.1347656250,       23.1628417969,       -2.2430419922,       45.4101562500
1494293603.9264550209,       -0.6992187500,        0.3486328125,        0.1381835938,       24.1088867188,       -1.7547607422,       43.0297851562
1494293603.9290080070,       -0.6992187500,        0.3486328125,        0.1381835938,       24.1088867188,       -1.7547607422,       43.0297851562
1494293603.9316461086,       -0.6992187500,        0.3486328125,        0.1381835938,       24.8107910156,       -1.2359619141,       44.3878173828
1494293603.9343299866,       -0.6992187500,        0.3486328125,        0.1381835938,       24.8107910156,       -1.2359619141,       44.3878173828
1494293603.9370069504,       -0.7153320312,        0.3476562500,        0.1420898438,       25.2532958984,       -0.5035400391,       45.6848144531
1494293603.9396920204,       -0.7153320312,        0.3476562500,        0.1420898438,       25.2532958984,       -0.5035400391,       45.6848144531
1494293603.9423940182,       -0.7153320312,        0.3476562500,        0.1420898438,       26.0009765625,        0.0915527344,       46.6308593750
1494293603.9450891018,       -0.7153320312,        0.3476562500,        0.1420898438,       26.0009765625,        0.0915527344,       46.6308593750
1494293603.9477849007,       -0.7612304688,        0.3378906250,        0.1547851562,       26.3366699219,        0.4882812500,       47.7142333984
1494293603.9504809380,       -0.7612304688,        0.3378906250,        0.1547851562,       26.3366699219,        0.4882812500,       47.7142333984
1494293603.9531900883,       -0.7612304688,        0.3378906250,        0.1547851562,       26.5655517578,        1.0833740234,       49.7589111328
1494293603.9558780193,       -0.7612304688,        0.3374023438,        0.1557617188,       26.5655517578,        1.0833740234,       49.7589111328
1494293603.9585690498,       -0.7880859375,        0.3374023438,        0.1557617188,       26.4892578125,        1.7547607422,       51.8493652344
1494293603.9612770081,       -0.7880859375,        0.3374023438,        0.1557617188,       26.4892578125,        1.7547607422,       51.8493652344
1494293603.9639730453,       -0.7880859375,        0.3374023438,        0.1557617188,       26.1383056641,        2.0599365234,       53.8940429688
1494293603.9667189121,       -0.7963867188,        0.3500976562,        0.1494140625,       26.1383056641,        2.0599365234,       53.8940429688
1494293603.9694800377,       -0.7963867188,        0.3500976562,        0.1494140625,       26.6723632812,        1.8005371094,       55.1300048828
1494293603.9725210667,       -0.7963867188,        0.3500976562,        0.1494140625,       26.6723632812,        1.8005371094,       55.1300048828
1494293603.9752190113,       -0.7963867188,        0.3500976562,        0.0244140625,       27.9388427734,        1.3732910156,       56.9305419922
1494293603.9779100418,       -0.8149414062,        0.3593750000,        0.1240234375,       27.9388427734,        1.3732910156,       56.9305419922
1494293603.9806010723,       -0.8149414062,        0.3593750000,        0.1240234375,       29.2053222656,        1.1596679688,       58.4564208984
1494293603.9831659794,       -0.8149414062,        0.3593750000,        0.1240234375,       29.2053222656,        1.1596679688,       58.4564208984
1494293603.9857230186,       -0.8149414062,        0.3593750000,        0.0844726562,       30.1055908203,        1.1901855469,       59.6313476562
1494293603.9882819653,       -0.8374023438,        0.3486328125,        0.0844726562,       30.1055908203,        1.1901855469,       59.6313476562
1494293603.9910199642,       -0.8374023438,        0.3486328125,        0.0844726562,       29.9072265625,        0.8392333984,       61.2182617188
1494293603.9937179089,       -0.8374023438,        0.3486328125,        0.0844726562,       29.9072265625,        0.8392333984,       61.2182617188
1494293603.9964160919,       -0.8374023438,        0.3598632812,        0.0629882812,       29.6630859375,        0.9460449219,       63.7512207031
1494293603.9991068840,       -0.8593750000,        0.3598632812,        0.0629882812,       29.6630859375,        0.9460449219,       63.7512207031
1494293604.0017631054,       -0.8593750000,        0.3598632812,        0.0629882812,       29.5867919922,        1.2054443359,       66.5588378906
1494293604.0043189526,       -0.8593750000,        0.3598632812,        0.0629882812,       29.5867919922,        1.2054443359,       66.5588378906
1494293604.0068759918,       -0.8613281250,        0.3632812500,        0.0810546875,       29.9224853516,        0.5187988281,       68.6035156250
1494293604.0094358921,       -0.8613281250,        0.3632812500,        0.0810546875,       29.9224853516,        0.5187988281,       68.6035156250
1494293604.0119988918,       -0.8613281250,        0.3632812500,        0.0810546875,       31.0211181641,       -1.1138916016,       70.2667236328
1494293604.0145540237,       -0.8613281250,        0.3632812500,        0.0810546875,       31.0211181641,       -1.1138916016,       70.2667236328
1494293604.0171129704,       -0.8540039062,        0.3544921875,        0.0839843750,       34.9273681641,       -2.6397705078,       71.4416503906
1494293604.0196669102,       -0.8540039062,        0.3544921875,        0.0839843750,       31.7840576172,       -2.6397705078,       71.4416503906
1494293604.0223948956,       -0.8540039062,        0.3544921875,        0.0839843750,       31.7840576172,       -3.9978027344,       72.6013183594
1494293604.0249528885,       -0.8540039062,        0.3544921875,        0.0839843750,       33.2946777344,       -3.9978027344,       72.6013183594
1494293604.0275130272,       -0.8618164062,        0.3681640625,        0.0742187500,       33.2946777344,       -3.9978027344,       74.3560791016
1494293604.0300719738,       -0.8618164062,        0.3681640625,        0.0742187500,       35.4309082031,       -5.4779052734,       74.3560791016
1494293604.0328700542,       -0.8618164062,        0.3681640625,        0.0742187500,       35.4309082031,       -5.4779052734,       75.4852294922
1494293604.0355510712,       -0.8618164062,        0.3681640625,        0.0742187500,       38.4216308594,       -6.4239501953,       75.4852294922
1494293604.0382280350,       -0.8911132812,        0.3779296875,        0.0717773438,       38.4216308594,       -6.4239501953,       76.3397216797
1494293604.0409450531,       -0.8911132812,        0.3779296875,        0.0717773438,       41.9464111328,       -7.2479248047,       76.3397216797
1494293604.0436289310,       -0.8911132812,        0.3779296875,        0.0717773438,       41.9464111328,       -7.2479248047,       77.7282714844
1494293604.0463070869,       -0.8911132812,        0.3779296875,        0.0576171875,       44.1741943359,       -8.5601806641,       77.7282714844
1494293604.0489881039,       -0.8842773438,        0.3847656250,        0.0576171875,       44.1741943359,       -8.5601806641,       81.6345214844
1494293604.0516669750,       -0.8842773438,        0.3847656250,        0.0576171875,       47.4700927734,      -11.2915039062,       79.2388916016
1494293604.0543520451,       -0.8842773438,        0.3847656250,        0.0576171875,       47.4700927734,      -11.2915039062,       79.2388916016
1494293604.0570359230,       -0.8823242188,        0.3803710938,        0.0732421875,       51.9714355469,      -13.1072998047,       79.2694091797
1494293604.0597209930,       -0.8823242188,        0.3803710938,        0.0732421875,       51.9714355469,      -13.1072998047,       79.2694091797
1494293604.0624179840,       -0.8823242188,        0.3803710938,        0.0732421875,       57.4951171875,      -15.2587890625,       79.1931152344
1494293604.0652139187,       -0.8823242188,        0.3803710938,        0.0732421875,       57.4951171875,      -15.2587890625,       79.1931152344
1494293604.0678999424,       -0.8886718750,        0.3632812500,        0.0639648438,       62.6678466797,      -17.9138183594,       78.7963867188
1494293604.0705790520,       -0.8886718750,        0.3632812500,        0.0639648438,       62.6678466797,      -17.9138183594,       78.7963867188
1494293604.0733249187,       -0.8886718750,        0.3632812500,        0.0639648438,       66.6503906250,      -19.6533203125,       78.2775878906
1494293604.0758900642,       -0.8886718750,        0.3632812500,        0.0639648438,       66.6503906250,      -19.6533203125,       78.2775878906
1494293604.0784490108,       -0.8945312500,        0.3427734375,        0.0820312500,       69.7021484375,      -21.5606689453,       78.4301757812
1494293604.0811018944,       -0.8945312500,        0.3427734375,        0.0820312500,       69.7021484375,      -21.5606689453,       78.4301757812
1494293604.0837759972,       -0.8945312500,        0.3427734375,        0.0820312500,       72.5860595703,      -23.0712890625,       78.1555175781
1494293604.0864739418,       -0.8945312500,        0.3427734375,        0.0776367188,       72.5860595703,      -23.0712890625,       78.1555175781
1494293604.0891940594,       -0.8891601562,        0.3471679688,        0.0776367188,       74.6612548828,      -23.8189697266,       78.2470703125
1494293604.0922150612,       -0.8891601562,        0.3471679688,        0.0776367188,       74.6612548828,      -23.8189697266,       78.2470703125
1494293604.0949079990,       -0.8891601562,        0.3471679688,        0.0776367188,       78.0029296875,      -23.7579345703,       77.8961181641
1494293604.0975949764,       -0.8798828125,        0.3632812500,        0.0737304688,       78.0029296875,      -23.7579345703,       77.8961181641
1494293604.1002840996,       -0.8798828125,        0.3632812500,        0.0737304688,       79.8339843750,      -24.5971679688,       77.5451660156
1494293604.1028819084,       -0.8798828125,        0.3632812500,        0.0737304688,       79.8339843750,      -24.5971679688,       77.5451660156
1494293604.1054360867,       -0.8798828125,        0.3632812500,        0.0737304688,       80.3222656250,      -25.3906250000,       76.5991210938
1494293604.1079950333,       -0.8442382812,        0.3359375000,        0.0961914062,       80.3222656250,      -25.3906250000,       76.5991210938
1494293604.1105608940,       -0.8442382812,        0.3359375000,        0.0961914062,       80.2612304688,      -25.4516601562,       74.3408203125
1494293604.1133649349,       -0.8442382812,        0.3359375000,        0.0961914062,       80.2612304688,      -25.4516601562,       74.3408203125
1494293604.1160709858,       -0.8442382812,        0.3359375000,        0.0961914062,       75.5462646484,      -24.5666503906,       72.0214843750
1494293604.1187720299,       -0.8281250000,        0.3012695312,        0.1596679688,       75.5462646484,      -24.5666503906,       72.0214843750
1494293604.1214380264,       -0.8281250000,        0.3012695312,        0.1596679688,       64.7125244141,      -22.5219726562,       71.1822509766
1494293604.1239929199,       -0.8281250000,        0.3012695312,        0.1596679688,       64.7125244141,      -22.5219726562,       71.1822509766
1494293604.1265490055,       -0.8281250000,        0.3012695312,        0.1596679688,       50.9338378906,      -18.5089111328,       71.4569091797
1494293604.1291139126,       -0.8242187500,        0.2783203125,        0.1562500000,       50.9338378906,      -18.5089111328,       71.4569091797
1494293604.1317360401,       -0.8242187500,        0.2783203125,        0.1562500000,       43.8690185547,      -13.7176513672,       72.7081298828
1494293604.1342918873,       -0.8242187500,        0.2783203125,        0.1562500000,       43.8690185547,      -13.7176513672,       72.7081298828
1494293604.1369609833,       -0.8242187500,        0.2783203125,        0.1127929688,       47.7752685547,      -10.9710693359,       74.4018554688
1494293604.1395249367,       -0.7656250000,        0.3286132812,        0.1127929688,       47.3175048828,      -10.9710693359,       74.4018554688
1494293604.1422379017,       -0.7656250000,        0.3286132812,        0.1127929688,       47.3175048828,      -11.6271972656,       77.7587890625
1494293604.1447949409,       -0.7656250000,        0.3286132812,        0.1127929688,       55.0079345703,      -11.6271972656,       77.7587890625
1494293604.1473569870,       -0.7656250000,        0.4238281250,        0.1625976562,       55.0079345703,      -11.6271972656,       81.3293457031
1494293604.1499130726,       -0.7031250000,        0.4238281250,        0.1625976562,       59.4940185547,      -13.3361816406,       81.3293457031
1494293604.1527070999,       -0.7031250000,        0.4238281250,        0.1625976562,       59.4940185547,      -13.3361816406,       84.1827392578
1494293604.1553978920,       -0.7031250000,        0.4238281250,        0.1625976562,       59.4177246094,      -14.5721435547,       84.1827392578
1494293604.1580960751,       -0.6684570312,        0.4487304688,        0.2299804688,       59.4177246094,      -14.5721435547,       85.1745605469
1494293604.1608018875,       -0.6684570312,        0.4487304688,        0.2299804688,       59.4787597656,      -15.0299072266,       85.1745605469
1494293604.1634991169,       -0.6684570312,        0.4487304688,        0.2299804688,       59.4787597656,      -15.0299072266,       84.8846435547
1494293604.1661980152,       -0.6684570312,        0.4487304688,        0.2299804688,       58.5327148438,      -16.5405273438,       84.8846435547
1494293604.1688919067,       -0.6196289062,        0.4194335938,        0.2626953125,       58.5327148438,      -16.5405273438,       82.2143554688
1494293604.1715650558,       -0.6196289062,        0.4194335938,        0.2626953125,       56.3964843750,      -18.4020996094,       82.2143554688
1494293604.1741249561,       -0.6196289062,        0.4194335938,        0.2626953125,       56.3964843750,      -18.4020996094,       78.3081054688
1494293604.1766819954,       -0.6196289062,        0.4194335938,        0.2626953125,       56.1828613281,      -19.3328857422,       79.0710449219
1494293604.1792440414,       -0.5795898438,        0.3847656250,        0.2387695312,       56.1828613281,      -19.3328857422,       79.0710449219
1494293604.1818690300,       -0.5795898438,        0.3847656250,        0.2387695312,       56.9458007812,      -19.7296142578,       74.9511718750
1494293604.1845650673,       -0.5795898438,        0.3847656250,        0.2387695312,       56.9458007812,      -19.7296142578,       74.9511718750
1494293604.1872570515,       -0.5795898438,        0.3847656250,        0.3061523438,       60.6384277344,      -21.4996337891,       67.7947998047
1494293604.1899540424,       -0.4785156250,        0.2968750000,        0.3061523438,       60.6384277344,      -21.4996337891,       67.7947998047
1494293604.1926629543,       -0.4785156250,        0.2968750000,        0.3061523438,       65.8874511719,      -24.2462158203,       56.8542480469
1494293604.1953558922,       -0.4785156250,        0.2968750000,        0.3061523438,       65.8874511719,      -24.2462158203,       56.8542480469
1494293604.1980540752,       -0.4785156250,        0.0336914062,        0.2705078125,       72.4487304688,      -25.2380371094,       43.2128906250
1494293604.2007639408,       -0.4697265625,        0.0336914062,        0.2705078125,       72.4487304688,      -25.2380371094,       43.2128906250
1494293604.2034709454,       -0.4697265625,        0.0336914062,        0.2705078125,       80.3985595703,      -25.6500244141,       30.7159423828
1494293604.2061710358,       -0.4697265625,        0.0336914062,        0.2705078125,       80.3985595703,      -25.6500244141,       30.7159423828
1494293604.2090868950,       -0.4829101562,       -0.1088867188,        0.1796875000,       83.8012695312,      -26.9165039062,       20.8892822266
1494293604.2120609283,       -0.4829101562,       -0.1088867188,        0.1796875000,       83.8012695312,      -26.9165039062,       13.0767822266
1494293604.2147710323,       -0.4829101562,       -0.1088867188,        0.1796875000,       82.1685791016,      -26.1230468750,       11.9628906250
1494293604.2174770832,       -0.4829101562,       -0.1088867188,        0.0791015625,       82.1685791016,      -26.1230468750,       11.9628906250
1494293604.2201800346,       -0.5004882812,       -0.2055664062,        0.0791015625,       79.0710449219,      -23.4375000000,        3.3416748047
1494293604.2227640152,       -0.5004882812,       -0.2055664062,        0.0791015625,       79.0710449219,      -23.4375000000,        3.3416748047
1494293604.2253201008,       -0.5004882812,       -0.2055664062,        0.0791015625,       75.7293701172,      -21.0876464844,       -4.4708251953
1494293604.2278749943,       -0.5004882812,       -0.2055664062,       -0.0019531250,       75.7293701172,      -21.0876464844,       -4.4708251953
1494293604.2304329872,       -0.4462890625,       -0.1381835938,       -0.0019531250,       73.4252929688,      -19.8516845703,      -12.1307373047
1494293604.2331800461,       -0.4462890625,       -0.1381835938,       -0.0019531250,       73.4252929688,      -19.8516845703,      -12.1307373047
1494293604.2358820438,       -0.4462890625,       -0.1381835938,       -0.0019531250,       71.0144042969,      -19.0582275391,      -19.5770263672
1494293604.2385799885,       -0.4062500000,       -0.0527343750,       -0.0356445312,       71.0144042969,      -19.0582275391,      -19.5770263672
1494293604.2412590981,       -0.4062500000,       -0.0527343750,       -0.0356445312,       68.2983398438,      -18.4020996094,      -27.1759033203
1494293604.2438149452,       -0.4062500000,       -0.0527343750,       -0.0356445312,       68.2983398438,      -18.4020996094,      -27.1759033203
1494293604.2463700771,       -0.4062500000,       -0.0527343750,       -0.0356445312,       64.9871826172,      -17.0898437500,      -34.8663330078
1494293604.2489318848,       -0.3901367188,       -0.0009765625,       -0.0556640625,       64.9871826172,      -17.0898437500,      -34.8663330078
1494293604.2515399456,       -0.3901367188,       -0.0009765625,       -0.0556640625,       61.5386962891,      -15.9149169922,      -42.1600341797
1494293604.2541000843,       -0.3901367188,       -0.0009765625,       -0.0556640625,       61.5386962891,      -15.9149169922,      -42.1600341797
1494293604.2566580772,       -0.3901367188,       -0.0009765625,       -0.0556640625,       57.6324462891,      -15.0146484375,      -49.3164062500
1494293604.2592151165,       -0.4003906250,        0.0722656250,       -0.0639648438,       58.0139160156,      -15.0146484375,      -49.3164062500
1494293604.2618999481,       -0.4003906250,        0.0722656250,       -0.0639648438,       58.0139160156,      -14.0533447266,      -57.1136474609
1494293604.2644639015,       -0.4003906250,        0.0722656250,       -0.0639648438,       54.3518066406,      -14.0533447266,      -57.1136474609
1494293604.2670218945,       -0.4003906250,        0.0722656250,       -0.0639648438,       54.3518066406,      -14.0533447266,      -64.6667480469
1494293604.2695920467,       -0.4428710938,        0.1040039062,       -0.0561523438,       49.8352050781,      -11.8255615234,      -64.6667480469
1494293604.2723290920,       -0.4428710938,        0.1040039062,       -0.0561523438,       49.8352050781,      -11.8255615234,      -72.5097656250
1494293604.2750329971,       -0.4428710938,        0.1040039062,       -0.0561523438,       45.5932617188,       -9.6435546875,      -72.5097656250
1494293604.2777318954,       -0.4428710938,        0.1040039062,       -0.0561523438,       45.5932617188,       -9.6435546875,      -80.3375244141
1494293604.2804319859,       -0.4541015625,        0.0424804688,       -0.0698242188,       40.1916503906,       -7.9345703125,      -80.3375244141
1494293604.2831690311,       -0.4541015625,        0.0424804688,       -0.0698242188,       40.1916503906,       -7.9345703125,      -87.9364013672
1494293604.2859780788,       -0.4541015625,        0.0424804688,       -0.0698242188,       31.1431884766,       -7.6446533203,      -87.9364013672
1494293604.2886800766,       -0.4541015625,       -0.0083007812,       -0.0800781250,       31.1431884766,       -7.6446533203,      -93.9331054688
1494293604.2913930416,       -0.4804687500,       -0.0083007812,       -0.0800781250,       18.9208984375,       -6.9580078125,      -93.9331054688
1494293604.2940940857,       -0.4804687500,       -0.0083007812,       -0.0800781250,       18.9208984375,       -6.9580078125,      -99.2126464844
1494293604.2967910767,       -0.4804687500,       -0.0083007812,       -0.0800781250,        6.3629150391,       -5.7830810547,      -99.2126464844
1494293604.2994790077,       -0.5053710938,        0.0029296875,       -0.0668945312,        6.3629150391,       -5.7830810547,     -104.5074462891
1494293604.3021130562,       -0.5053710938,        0.0029296875,       -0.0668945312,       -6.5307617188,       -5.0354003906,     -104.5074462891
1494293604.3046679497,       -0.5053710938,        0.0029296875,       -0.0668945312,       -6.5307617188,       -5.0354003906,     -104.5074462891
1494293604.3072199821,       -0.5053710938,        0.0029296875,       -0.0668945312,      -19.0277099609,       -4.3029785156,     -108.8104248047
1494293604.3097751141,       -0.5166015625,        0.0537109375,       -0.0605468750,      -19.0277099609,       -4.3029785156,     -108.8104248047
1494293604.3125538826,       -0.5166015625,        0.0537109375,       -0.0605468750,      -29.1595458984,       -3.8604736328,     -112.2131347656
1494293604.3151071072,       -0.5166015625,        0.0537109375,       -0.0605468750,      -29.1595458984,       -3.8604736328,     -112.2131347656
1494293604.3176651001,       -0.5166015625,        0.0537109375,       -0.0605468750,      -38.7878417969,       -3.1127929688,     -115.6005859375
1494293604.3202259541,       -0.5410156250,        0.1181640625,       -0.0258789062,      -38.7878417969,       -3.1127929688,     -115.6005859375
1494293604.3229060173,       -0.5410156250,        0.1181640625,       -0.0258789062,      -47.9583740234,       -3.2501220703,     -119.0643310547
1494293604.3255910873,       -0.5410156250,        0.1181640625,       -0.0258789062,      -47.9583740234,       -3.2501220703,     -119.0643310547
1494293604.3285150528,       -0.5410156250,        0.1181640625,       -0.0014648438,      -55.1605224609,       -3.7536621094,     -122.8485107422
1494293604.3315880299,       -0.5595703125,        0.1845703125,       -0.0014648438,      -55.1605224609,       -3.7536621094,     -122.8485107422
1494293604.3342919350,       -0.5595703125,        0.1845703125,       -0.0014648438,      -60.5926513672,       -4.1198730469,     -126.8920898438
1494293604.3369929790,       -0.5595703125,        0.1845703125,       -0.0014648438,      -60.5926513672,       -4.1198730469,     -126.8920898438
1494293604.3396930695,       -0.5854492188,        0.2441406250,        0.0234375000,      -64.5751953125,       -4.3487548828,     -130.8898925781
1494293604.3424019814,       -0.5854492188,        0.2441406250,        0.0234375000,      -64.5751953125,       -4.3487548828,     -130.8898925781
1494293604.3450999260,       -0.5854492188,        0.2441406250,        0.0234375000,      -67.5659179688,       -4.9438476562,     -135.1013183594
1494293604.3477909565,       -0.5854492188,        0.2441406250,        0.0234375000,      -67.5659179688,       -4.9438476562,     -135.1013183594
1494293604.3504850864,       -0.6240234375,        0.3115234375,        0.0288085938,      -69.3969726562,       -5.3863525391,     -138.8549804688
1494293604.3531830311,       -0.6240234375,        0.3115234375,        0.0288085938,      -69.3969726562,       -5.3863525391,     -138.8549804688
1494293604.3558800220,       -0.6240234375,        0.3115234375,        0.0288085938,      -69.6258544922,       -5.2337646484,     -142.3797607422
1494293604.3586800098,       -0.6240234375,        0.3115234375,        0.0205078125,      -69.6258544922,       -5.2337646484,     -142.3797607422
1494293604.3613600731,       -0.6694335938,        0.3686523438,        0.0205078125,      -67.9779052734,       -4.8980712891,     -145.6604003906
1494293604.3639149666,       -0.6694335938,        0.3686523438,        0.0205078125,      -67.9779052734,       -4.8980712891,     -145.6604003906
1494293604.3664710522,       -0.6694335938,        0.3686523438,        0.0205078125,      -64.7888183594,       -4.0588378906,     -148.4985351562
1494293604.3690218925,       -0.6694335938,        0.4936523438,        0.0292968750,      -64.7888183594,       -4.0588378906,     -148.4985351562
1494293604.3715848923,       -0.7075195312,        0.4042968750,        0.0292968750,      -61.2945556641,       -4.0435791016,     -150.9246826172
1494293604.3741369247,       -0.7075195312,        0.4042968750,        0.0292968750,      -61.2945556641,       -4.0435791016,     -150.9246826172
1494293604.3766920567,       -0.7075195312,        0.4042968750,        0.0292968750,      -58.4106445312,       -3.3569335938,     -153.5186767578
1494293604.3792440891,       -0.7075195312,        0.4423828125,        0.0249023438,      -58.4106445312,       -3.3569335938,     -153.5186767578
1494293604.3819029331,       -0.7353515625,        0.4423828125,        0.0249023438,      -54.4281005859,       -3.0364990234,     -155.1055908203
1494293604.3844580650,       -0.7353515625,        0.4423828125,        0.0249023438,      -54.4281005859,       -3.0364990234,     -155.1055908203
1494293604.3870348930,       -0.7353515625,        0.4423828125,        0.0249023438,      -54.4281005859,       -2.7008056641,     -156.6314697266
1494293604.3895869255,       -0.8603515625,        0.4702148438,        0.0244140625,      -49.6215820312,       -2.7008056641,     -156.6314697266
1494293604.3924040794,       -0.7656250000,        0.4702148438,        0.0244140625,      -49.6215820312,       -2.1209716797,     -157.9132080078
1494293604.3951029778,       -0.7656250000,        0.4702148438,        0.0244140625,      -45.1507568359,       -2.1209716797,     -157.9132080078
1494293604.3977999687,       -0.7656250000,        0.4702148438,        0.0244140625,      -45.1507568359,       -2.1209716797,     -158.8287353516
1494293604.4004950523,       -0.7895507812,        0.4658203125,        0.0253906250,      -42.0379638672,       -1.2359619141,     -158.8287353516
1494293604.4032020569,       -0.7895507812,        0.4658203125,        0.0253906250,      -42.0379638672,       -1.2359619141,     -159.0728759766
1494293604.4059050083,       -0.7895507812,        0.4658203125,        0.0253906250,      -40.1763916016,       -0.6561279297,     -159.0728759766
1494293604.4086070061,       -0.7895507812,        0.4658203125,        0.0253906250,      -40.1763916016,       -0.6561279297,     -159.5306396484
1494293604.4113240242,       -0.8105468750,        0.4516601562,        0.0322265625,      -38.5437011719,       -0.1678466797,     -159.5306396484
1494293604.4138829708,       -0.8105468750,        0.4516601562,        0.0322265625,      -38.5437011719,       -0.1678466797,     -159.4238281250
1494293604.4164419174,       -0.8105468750,        0.4516601562,        0.0322265625,      -37.8570556641,        0.2288818359,     -159.4238281250
1494293604.4190020561,       -0.8105468750,        0.4516601562,        0.0322265625,      -37.8570556641,        0.2288818359,     -159.4238281250
1494293604.4215679169,       -0.8120117188,        0.4267578125,        0.0292968750,      -37.9791259766,        0.4425048828,     -159.3780517578
1494293604.4241290092,       -0.8120117188,        0.4267578125,        0.0292968750,      -37.9791259766,        0.4425048828,     -159.3780517578
1494293604.4266860485,       -0.8120117188,        0.4267578125,        0.0292968750,      -39.7644042969,        0.9002685547,     -159.3933105469
1494293604.4292399883,       -0.8120117188,        0.4267578125,        0.0385742188,      -39.7644042969,        0.9002685547,     -159.3933105469
1494293604.4320230484,       -0.8159179688,        0.4023437500,        0.0385742188,      -42.4346923828,        1.6174316406,     -158.9660644531
1494293604.4345819950,       -0.8159179688,        0.4023437500,        0.0385742188,      -42.4346923828,        1.6174316406,     -158.9660644531
1494293604.4371340275,       -0.8159179688,        0.4023437500,        0.0385742188,      -45.6848144531,        1.7700195312,     -158.8592529297
1494293604.4396889210,       -0.8159179688,        0.4023437500,        0.0297851562,      -45.6848144531,        1.7700195312,     -158.8592529297
1494293604.4423971176,       -0.8115234375,        0.3881835938,        0.0297851562,      -49.8046875000,        1.8768310547,     -158.8439941406
1494293604.4450929165,       -0.8115234375,        0.3881835938,        0.0297851562,      -49.8046875000,        1.8768310547,     -158.8439941406
1494293604.4480369091,       -0.8115234375,        0.3881835938,        0.0297851562,      -53.3905029297,        1.9531250000,     -158.6303710938
1494293604.4511289597,       -0.8295898438,        0.4135742188,        0.0278320312,      -53.3905029297,        1.9531250000,     -158.6303710938
1494293604.4538331032,       -0.8295898438,        0.4135742188,        0.0278320312,      -56.1523437500,        1.8005371094,     -158.8134765625
1494293604.4565339088,       -0.8295898438,        0.4135742188,        0.0278320312,      -56.1523437500,        1.8005371094,     -158.8134765625
1494293604.4592339993,       -0.8295898438,        0.4135742188,        0.0278320312,      -57.8460693359,        2.0141601562,     -158.8134765625
1494293604.4619169235,       -0.8344726562,        0.4360351562,        0.0288085938,      -57.8460693359,        2.0141601562,     -158.8134765625
1494293604.4644711018,       -0.8344726562,        0.4360351562,        0.0288085938,      -59.0209960938,        2.6702880859,     -158.9355468750
1494293604.4670319557,       -0.8344726562,        0.4360351562,        0.0288085938,      -59.0209960938,        2.6702880859,     -158.9355468750
1494293604.4695899487,       -0.8344726562,        0.4360351562,        0.0180664062,      -61.7980957031,        3.4332275391,     -158.4625244141
1494293604.4722421169,       -0.8432617188,        0.4223632812,        0.0180664062,      -61.7980957031,        3.4332275391,     -158.4625244141
1494293604.4749419689,       -0.8432617188,        0.4223632812,        0.0180664062,      -64.8803710938,        4.5776367188,     -158.1573486328
1494293604.4776380062,       -0.8432617188,        0.4223632812,        0.0180664062,      -64.8803710938,        4.5776367188,     -158.1573486328
1494293604.4803369045,       -0.8432617188,        0.4267578125,        0.0122070312,      -67.5506591797,        5.4473876953,     -157.1044921875
1494293604.4829280376,       -0.8574218750,        0.4267578125,        0.0122070312,      -67.5506591797,        5.4473876953,     -157.1044921875
1494293604.4854819775,       -0.8574218750,        0.4267578125,        0.0122070312,      -70.5108642578,        5.9509277344,     -155.7159423828
1494293604.4880399704,       -0.8574218750,        0.4267578125,        0.0122070312,      -70.5108642578,        5.9509277344,     -155.7159423828
1494293604.4905989170,       -0.8652343750,        0.4287109375,        0.0151367188,      -70.5108642578,        7.2937011719,     -154.7393798828
1494293604.4931609631,       -0.8652343750,        0.4287109375,        0.0151367188,      -73.5626220703,        7.2937011719,     -154.7393798828
1494293604.4957189560,       -0.8652343750,        0.4287109375,        0.0151367188,      -73.5626220703,       11.1999511719,     -153.0914306641
1494293604.4982790947,       -0.8652343750,        0.4287109375,        0.0151367188,      -76.1871337891,        8.6212158203,     -153.0914306641
1494293604.5010170937,       -0.8730468750,        0.4038085938,        0.0170898438,      -76.1871337891,        8.6212158203,     -151.7944335938
1494293604.5035750866,       -0.8730468750,        0.4038085938,        0.0170898438,      -78.7506103516,       10.5438232422,     -151.7944335938
1494293604.5062510967,       -0.8730468750,        0.4038085938,        0.0170898438,      -78.7506103516,       10.5438232422,     -151.7944335938
1494293604.5088100433,       -0.8730468750,        0.4038085938,        0.0170898438,      -81.2225341797,       12.1459960938,     -150.4364013672
1494293604.5114760399,       -0.8735351562,        0.3691406250,        0.0136718750,      -81.2225341797,       12.1459960938,     -150.4364013672
1494293604.5140419006,       -0.8735351562,        0.3691406250,        0.0136718750,      -84.2742919922,       12.8631591797,     -149.2462158203
1494293604.5166010857,       -0.8735351562,        0.3691406250,        0.0136718750,      -84.2742919922,       12.8631591797,     -149.2462158203
1494293604.5191640854,       -0.8735351562,        0.3691406250,        0.0136718750,      -87.3870849609,       14.2669677734,     -147.8118896484
1494293604.5218238831,       -0.8657226562,        0.3422851562,        0.0375976562,      -87.3870849609,       14.2669677734,     -147.8118896484
1494293604.5245249271,       -0.8657226562,        0.3422851562,        0.0375976562,      -89.7216796875,       15.3808593750,     -146.3623046875
1494293604.5272209644,       -0.8657226562,        0.3422851562,        0.0375976562,      -89.7216796875,       15.3808593750,     -146.3623046875
1494293604.5299160480,       -0.8657226562,        0.3422851562,        0.0375976562,      -92.2546386719,       16.5863037109,     -144.7601318359
1494293604.5326240063,       -0.8569335938,        0.3330078125,        0.0458984375,      -92.2546386719,       16.5863037109,     -144.7601318359
1494293604.5353250504,       -0.8569335938,        0.3330078125,        0.0458984375,      -94.8333740234,       18.1884765625,     -142.9901123047
1494293604.5380260944,       -0.8569335938,        0.3330078125,        0.0458984375,      -94.8333740234,       18.1884765625,     -142.9901123047
1494293604.5407299995,       -0.8569335938,        0.3188476562,        0.0522460938,      -96.2219238281,       19.7143554688,     -141.9372558594
1494293604.5434269905,       -0.8515625000,        0.3188476562,        0.0522460938,      -96.2219238281,       19.7143554688,     -141.9372558594
1494293604.5461239815,       -0.8515625000,        0.3188476562,        0.0522460938,      -97.7020263672,       20.4010009766,     -140.6097412109
1494293604.5488231182,       -0.8515625000,        0.3188476562,        0.0522460938,      -97.7020263672,       20.4010009766,     -140.6097412109
1494293604.5515739918,       -0.8393554688,        0.3154296875,        0.0659179688,      -98.3581542969,       20.9808349609,     -139.1448974609
1494293604.5542709827,       -0.8393554688,        0.3154296875,        0.0659179688,      -98.3581542969,       20.9808349609,     -139.1448974609
1494293604.5569689274,       -0.8393554688,        0.3154296875,        0.0659179688,      -98.4954833984,       21.2402343750,     -137.8326416016
1494293604.5596640110,       -0.8393554688,        0.3154296875,        0.0659179688,      -98.4954833984,       21.2402343750,     -137.8326416016
1494293604.5622880459,       -0.8344726562,        0.3144531250,        0.0781250000,      -97.4426269531,       21.7742919922,     -136.7950439453
1494293604.5648410320,       -0.8344726562,        0.3144531250,        0.0781250000,      -97.4426269531,       21.7742919922,     -136.7950439453
1494293604.5674688816,       -0.8344726562,        0.3144531250,        0.0781250000,      -96.2829589844,       23.1781005859,     -136.0473632812
1494293604.5700330734,       -0.8344726562,        0.3144531250,        0.0781250000,      -96.2829589844,       23.1781005859,     -136.0473632812
1494293604.5730199814,       -0.8281250000,        0.2875976562,        0.0673828125,      -95.1385498047,       24.1699218750,     -135.5285644531
1494293604.5757260323,       -0.8281250000,        0.2875976562,        0.0673828125,      -95.1385498047,       24.1699218750,     -135.5285644531
1494293604.5785241127,       -0.8281250000,        0.2875976562,        0.0673828125,      -94.3908691406,       24.6582031250,     -135.0555419922
1494293604.5812430382,       -0.8281250000,        0.2861328125,        0.0629882812,      -94.3908691406,       24.6582031250,     -135.0555419922
1494293604.5839390755,       -0.8378906250,        0.2861328125,        0.0629882812,      -93.7805175781,       24.7955322266,     -134.4299316406
1494293604.5866470337,       -0.8378906250,        0.2861328125,        0.0629882812,      -93.7805175781,       24.7955322266,     -134.4299316406
1494293604.5893449783,       -0.8378906250,        0.2861328125,        0.0629882812,      -93.2464599609,       25.7873535156,     -133.6517333984
1494293604.5920538902,       -0.8413085938,        0.2880859375,        0.0683593750,      -93.2464599609,       25.7873535156,     -133.6517333984
1494293604.5947589874,       -0.8413085938,        0.2880859375,        0.0683593750,      -92.0867919922,       26.9622802734,     -132.1411132812
1494293604.5974609852,       -0.8413085938,        0.2880859375,        0.0683593750,      -92.0867919922,       26.9622802734,     -132.1411132812
1494293604.6001620293,       -0.8413085938,        0.2880859375,        0.0683593750,      -90.0421142578,       27.8167724609,     -130.6457519531
1494293604.6027679443,       -0.8452148438,        0.3002929688,        0.0585937500,      -90.0421142578,       27.8167724609,     -130.6457519531
1494293604.6053318977,       -0.8452148438,        0.3002929688,        0.0585937500,      -88.3789062500,       28.7322998047,     -128.9825439453
1494293604.6078929901,       -0.8452148438,        0.3002929688,        0.0585937500,      -88.3789062500,       28.7322998047,     -128.9825439453
1494293604.6104500294,       -0.8452148438,        0.3002929688,        0.0585937500,      -88.1958007812,       29.9530029297,     -126.6021728516
1494293604.6130590439,       -0.8520507812,        0.2812500000,        0.0664062500,      -88.1958007812,       29.9530029297,     -126.6021728516
1494293604.6156220436,       -0.8520507812,        0.2812500000,        0.0664062500,      -88.1958007812,       30.7922363281,     -124.3286132812
1494293604.6181850433,       -0.8520507812,        0.2812500000,        0.0664062500,      -89.4622802734,       30.7922363281,     -124.3286132812
1494293604.6208190918,       -0.8520507812,        0.2812500000,        0.0737304688,      -89.4622802734,       30.7922363281,     -121.7193603516
1494293604.6233990192,       -0.8466796875,        0.2724609375,        0.0737304688,      -89.5080566406,       31.2957763672,     -121.7193603516
1494293604.6259610653,       -0.8466796875,        0.2724609375,        0.0737304688,      -89.5080566406,       31.2957763672,     -117.8131103516
1494293604.6285269260,       -0.8466796875,        0.2724609375,        0.0737304688,      -89.8590087891,       31.8908691406,     -119.0032958984
1494293604.6312589645,       -0.8466796875,        0.2724609375,        0.0742187500,      -89.8590087891,       31.8908691406,     -115.0970458984
1494293604.6339619160,       -0.8198242188,        0.2822265625,        0.0742187500,      -89.7674560547,       31.4025878906,     -116.2719726562
1494293604.6366560459,       -0.8198242188,        0.2822265625,        0.0742187500,      -89.7674560547,       31.4025878906,     -112.3657226562
1494293604.6393480301,       -0.8198242188,        0.2822265625,        0.0742187500,      -89.7521972656,       30.7769775391,     -113.0981445312
1494293604.6420640945,       -0.7910156250,        0.3105468750,        0.0937500000,      -89.7521972656,       30.7769775391,     -113.0981445312
1494293604.6447629929,       -0.7910156250,        0.3105468750,        0.0937500000,      -89.4317626953,       30.6091308594,     -109.7412109375
1494293604.6474609375,       -0.7910156250,        0.3105468750,        0.0937500000,      -89.4317626953,       30.6091308594,     -105.8349609375
1494293604.6501610279,       -0.7910156250,        0.3105468750,        0.0937500000,      -87.6464843750,       29.6325683594,     -105.8044433594
1494293604.6528739929,       -0.7700195312,        0.3564453125,        0.1132812500,      -87.6464843750,       29.6325683594,     -105.8044433594
1494293604.6554360390,       -0.7700195312,        0.3564453125,        0.1132812500,      -83.7097167969,       28.6712646484,     -101.3946533203
1494293604.6579949856,       -0.7700195312,        0.3564453125,        0.1132812500,      -83.7097167969,       28.6712646484,     -101.3946533203
1494293604.6605529785,       -0.7700195312,        0.3564453125,        0.1132812500,      -79.8797607422,       26.9775390625,      -96.1914062500
1494293604.6631150246,       -0.7402343750,        0.3754882812,        0.1386718750,      -79.8797607422,       26.9775390625,      -96.1914062500
1494293604.6656770706,       -0.7402343750,        0.3754882812,        0.1386718750,      -77.7435302734,       24.3072509766,      -90.0726318359
1494293604.6682350636,       -0.7402343750,        0.3754882812,        0.1386718750,      -77.7435302734,       24.3072509766,      -90.0726318359
1494293604.6708650589,       -0.7402343750,        0.3754882812,        0.1386718750,      -75.0274658203,       21.1791992188,      -83.9996337891
1494293604.6734349728,       -0.6767578125,        0.4130859375,        0.1757812500,      -75.0274658203,       21.1791992188,      -83.9996337891
1494293604.6759929657,       -0.6767578125,        0.4130859375,        0.1757812500,      -71.7926025391,       16.7388916016,      -77.7740478516
1494293604.6785550117,       -0.6767578125,        0.4130859375,        0.1757812500,      -71.7926025391,       16.7388916016,      -77.7740478516
1494293604.6811919212,       -0.6767578125,        0.4130859375,        0.1757812500,      -65.6280517578,       12.4053955078,      -71.1059570312
1494293604.6838910580,       -0.6293945312,        0.4682617188,        0.2094726562,      -65.6280517578,       12.4053955078,      -71.1059570312
1494293604.6865930557,       -0.6293945312,        0.4682617188,        0.2094726562,      -56.9458007812,        7.6293945312,      -64.3310546875
1494293604.6894268990,       -0.6293945312,        0.4682617188,        0.2094726562,      -56.9458007812,        7.6293945312,      -64.3310546875
1494293604.6925709248,       -0.6259765625,        0.5312500000,        0.2104492188,      -45.8526611328,        3.0517578125,      -57.7545166016
1494293604.6952619553,       -0.6259765625,        0.5312500000,        0.2104492188,      -45.8526611328,        3.0517578125,      -57.7545166016
1494293604.6979610920,       -0.6259765625,        0.5312500000,        0.2104492188,      -34.0881347656,       -0.8697509766,      -51.2084960938
1494293604.7006649971,       -0.6259765625,        0.5312500000,        0.2104492188,      -34.0881347656,       -0.8697509766,      -51.2084960938
1494293604.7032229900,       -0.6333007812,        0.5517578125,        0.2016601562,      -22.5219726562,       -4.0588378906,      -44.0979003906
1494293604.7057790756,       -0.6333007812,        0.5517578125,        0.2016601562,      -22.5219726562,       -4.0588378906,      -44.0979003906
1494293604.7083339691,       -0.6333007812,        0.5517578125,        0.2016601562,      -14.7094726562,       -7.3394775391,      -36.1633300781
1494293604.7109498978,       -0.6333007812,        0.5517578125,        0.2016601562,      -12.6495361328,       -7.3394775391,      -36.1633300781
1494293604.7136530876,       -0.6279296875,        0.5380859375,        0.1811523438,       -0.9307861328,       -9.9487304688,      -28.6254882812
1494293604.7163488865,       -0.6279296875,        0.5380859375,        0.1811523438,       -3.9062500000,       -9.9487304688,      -28.6254882812
1494293604.7190508842,       -0.6279296875,        0.5380859375,        0.1811523438,       -3.9062500000,      -12.1154785156,      -20.7519531250
1494293604.7217090130,       -0.6279296875,        0.5380859375,        0.1616210938,        3.9520263672,      -12.1154785156,      -20.7519531250
1494293604.7242610455,       -0.6367187500,        0.5117187500,        0.1616210938,        3.9520263672,      -12.1154785156,      -12.6190185547
1494293604.7269289494,       -0.6367187500,        0.5117187500,        0.1616210938,       11.0931396484,      -12.4969482422,      -12.6190185547
1494293604.7294909954,       -0.6367187500,        0.5117187500,        0.1616210938,       11.0931396484,      -12.4969482422,       -4.2877197266
1494293604.7321128845,       -0.6367187500,        0.3867187500,        0.1318359375,       16.2506103516,      -12.5274658203,       -4.2877197266
1494293604.7346730232,       -0.6376953125,        0.4995117188,        0.1318359375,       16.2506103516,      -12.5274658203,        7.4310302734
1494293604.7372269630,       -0.6376953125,        0.4995117188,        0.1318359375,       19.8364257812,      -12.1154785156,        4.6997070312
1494293604.7397820950,       -0.6376953125,        0.4995117188,        0.1318359375,       19.8364257812,      -12.1154785156,        4.6997070312
1494293604.7424719334,       -0.6376953125,        0.4833984375,        0.1162109375,       22.7203369141,      -11.3372802734,       13.6566162109
1494293604.7450299263,       -0.6381835938,        0.4833984375,        0.1162109375,       22.7203369141,      -11.3372802734,       13.6566162109
1494293604.7475919724,       -0.6381835938,        0.4833984375,        0.1162109375,       25.6195068359,      -10.5895996094,       21.6674804688
1494293604.7501459122,       -0.6381835938,        0.4833984375,        0.1162109375,       25.6195068359,      -10.5895996094,       21.6674804688
1494293604.7529129982,       -0.6538085938,        0.4458007812,        0.1152343750,       28.3355712891,      -10.0402832031,       29.3121337891
1494293604.7556169033,       -0.6538085938,        0.4458007812,        0.1152343750,       28.3355712891,      -10.0402832031,       29.3121337891
1494293604.7583179474,       -0.6538085938,        0.4458007812,        0.1152343750,       30.0140380859,       -8.8348388672,       36.7889404297
1494293604.7610321045,       -0.6538085938,        0.4458007812,        0.1152343750,       30.0140380859,       -8.8348388672,       36.7889404297
1494293604.7637329102,       -0.6445312500,        0.4086914062,        0.1215820312,       31.0668945312,       -9.0637207031,       44.1131591797
1494293604.7664299011,       -0.6445312500,        0.4086914062,        0.1215820312,       31.0668945312,       -9.0637207031,       44.1131591797
1494293604.7691290379,       -0.6445312500,        0.4086914062,        0.1215820312,       31.4025878906,       -9.9945068359,       51.3763427734
1494293604.7718350887,       -0.6445312500,        0.4086914062,        0.2465820312,       31.4025878906,       -9.9945068359,       51.3763427734
1494293604.7745308876,       -0.6293945312,        0.3881835938,        0.1445312500,       31.6619873047,      -11.0015869141,       58.2275390625
1494293604.7772290707,       -0.6293945312,        0.3881835938,        0.1445312500,       31.6619873047,      -11.0015869141,       58.2275390625
1494293604.7799320221,       -0.6293945312,        0.3881835938,        0.1445312500,       30.6854248047,      -12.3596191406,       61.4624023438
1494293604.7825460434,       -0.6293945312,        0.1381835938,        0.0888671875,       30.6854248047,      -12.3596191406,       61.4624023438
1494293604.7851080894,       -0.7143554688,        0.2182617188,        0.0888671875,       29.2968750000,       -9.5672607422,       60.2874755859
1494293604.7876679897,       -0.7143554688,        0.2182617188,        0.0888671875,       29.2968750000,       -9.5672607422,       60.2874755859
1494293604.7902259827,       -0.7143554688,        0.2182617188,        0.0888671875,       25.7263183594,       -6.0577392578,       70.7092285156
1494293604.7929000854,       -0.8393554688,        0.1342773438,       -0.0830078125,       25.7263183594,       -6.0577392578,       70.7092285156
1494293604.7955820560,       -0.8212890625,        0.1342773438,       -0.0830078125,       23.5443115234,       -2.3956298828,       75.6378173828
1494293604.7983679771,       -0.8212890625,        0.1342773438,       -0.0830078125,       23.5443115234,       -2.3956298828,       75.6378173828
1494293604.8010599613,       -0.8212890625,        0.1342773438,       -0.0830078125,       17.9443359375,        4.0588378906,       72.9827880859
1494293604.8037369251,       -0.9316406250,       -0.3466796875,       -0.2128906250,       17.9443359375,        4.0588378906,       72.9827880859
1494293604.8064119816,       -0.9316406250,       -0.3466796875,       -0.2128906250,        7.0953369141,        9.6893310547,       69.2138671875
1494293604.8092401028,       -0.9316406250,       -0.3466796875,       -0.2128906250,        7.0953369141,        9.6893310547,       69.2138671875
1494293604.8123519421,       -0.9316406250,       -0.3466796875,       -0.2700195312,       -6.5002441406,       11.8408203125,       66.5435791016
1494293604.8150529861,       -0.9589843750,       -0.6650390625,       -0.2700195312,       -6.5002441406,       11.8408203125,       66.5435791016
1494293604.8177499771,       -0.9589843750,       -0.6650390625,       -0.2700195312,      -25.3295898438,       10.8337402344,       64.9108886719
