time_stamp before, time_stamp after, Acceleration x, Acceleration y, Acceleration z, Gyro x, Gyro y, Gyro z
1489456300.0206480026,1489456300.0328969955,       -0.7299804688,        0.0932617188,        0.0463867188,       -1.7852783203,       -0.9765625000,       -5.2337646484
1489456300.0331950188,1489456300.0354909897,       -0.7299804688,        0.0932617188,        0.0463867188,       -1.3732910156,       -1.1749267578,       -5.2185058594
1489456300.0357630253,1489456300.0380499363,       -0.7299804688,        0.0932617188,        0.0463867188,       -1.3732910156,       -1.1749267578,       -5.2185058594
1489456300.0383191109,1489456300.0407059193,       -0.7348632812,        0.0732421875,        0.0493164062,       -1.5258789062,       -1.3580322266,       -5.2490234375
1489456300.0409801006,1489456300.0432710648,       -0.7348632812,        0.0732421875,        0.0493164062,       -1.5258789062,       -1.3580322266,       -5.2490234375
1489456300.0435431004,1489456300.0458340645,       -0.7348632812,        0.0732421875,        0.0493164062,       -1.9531250000,       -1.1138916016,       -4.6844482422
1489456300.0461039543,1489456300.0483961105,       -0.7348632812,        0.0732421875,        0.0493164062,       -1.9531250000,       -1.1138916016,       -4.6844482422
1489456300.0486660004,1489456300.0511529446,       -0.7309570312,        0.0717773438,        0.0449218750,       -2.1362304688,       -0.8544921875,       -3.8452148438
1489456300.0514299870,1489456300.0538299084,       -0.7309570312,        0.0717773438,        0.0449218750,       -2.1362304688,       -0.8544921875,       -3.8452148438
1489456300.0541090965,1489456300.0565099716,       -0.7309570312,        0.0717773438,        0.0449218750,       -2.2583007812,       -1.1291503906,       -3.7078857422
1489456300.0567860603,1489456300.0592389107,       -0.7309570312,        0.0717773438,        0.0449218750,       -2.2583007812,       -1.1291503906,       -3.7078857422
1489456300.0595169067,1489456300.0619111061,       -0.7270507812,        0.0781250000,        0.0600585938,       -2.2430419922,       -0.5645751953,       -3.8146972656
1489456300.0621891022,1489456300.0645899773,       -0.7270507812,        0.0781250000,        0.0600585938,       -2.2430419922,       -0.5645751953,       -3.8146972656
1489456300.0648679733,1489456300.0672650337,       -0.7270507812,        0.0781250000,        0.0600585938,       -2.4566650391,       -0.9765625000,       -3.6315917969
1489456300.0675430298,1489456300.0698919296,       -0.7270507812,        0.0781250000,        0.0429687500,       -2.4566650391,       -0.9765625000,       -3.6315917969
1489456300.0701661110,1489456300.0724539757,       -0.7270507812,        0.0766601562,        0.0429687500,       -2.0904541016,       -0.9918212891,       -4.0435791016
1489456300.0727269650,1489456300.0750141144,       -0.7270507812,        0.0766601562,        0.0429687500,       -2.0904541016,       -0.9918212891,       -4.0435791016
1489456300.0752859116,1489456300.0776209831,       -0.7270507812,        0.0766601562,        0.0429687500,       -2.0904541016,       -1.2207031250,       -3.8909912109
1489456300.0778939724,1489456300.0802569389,       -0.7270507812,        0.0766601562,        0.0590820312,       -2.2277832031,       -1.2207031250,       -3.8909912109
1489456300.0805308819,1489456300.0828230381,       -0.7280273438,        0.0708007812,        0.0590820312,       -2.2277832031,       -1.2207031250,       -3.6315917969
1489456300.0830969810,1489456300.0853979588,       -0.7280273438,        0.0708007812,        0.0590820312,       -2.0446777344,       -0.9307861328,       -3.6315917969
1489456300.0856719017,1489456300.0879609585,       -0.7280273438,        0.0708007812,        0.0590820312,       -2.0446777344,       -0.9307861328,       -3.6163330078
1489456300.0882360935,1489456300.0906848907,       -0.7280273438,        0.0766601562,        0.0454101562,       -1.5716552734,       -1.3732910156,       -3.6163330078
1489456300.0909659863,1489456300.0933849812,       -0.7246093750,        0.0766601562,        0.0454101562,       -1.5716552734,       -1.3732910156,       -3.6163330078
1489456300.0938310623,1489456300.0962469578,       -0.7246093750,        0.0766601562,        0.0454101562,       -1.7089843750,       -1.4801025391,       -3.5858154297
1489456300.0965290070,1489456300.0989549160,       -0.7246093750,        0.0766601562,        0.0454101562,       -1.7089843750,       -1.4801025391,       -3.6010742188
1489456300.0992369652,1489456300.1016480923,       -0.7319335938,        0.0742187500,        0.0507812500,       -1.7395019531,       -1.2817382812,       -3.6010742188
1489456300.1019270420,1489456300.1043460369,       -0.7319335938,        0.0742187500,        0.0507812500,       -1.7395019531,       -1.2817382812,       -3.4027099609
1489456300.1046259403,1489456300.1072208881,       -0.7319335938,        0.0742187500,        0.0507812500,       -1.1444091797,       -1.4343261719,       -3.4027099609
1489456300.1075019836,1489456300.1100499630,       -0.7319335938,        0.0742187500,        0.0507812500,       -1.1444091797,       -1.4343261719,       -2.9144287109
1489456300.1103339195,1489456300.1127650738,       -0.7236328125,        0.0688476562,        0.0507812500,       -1.0528564453,       -1.6937255859,       -2.9144287109
1489456300.1130459309,1489456300.1154661179,       -0.7236328125,        0.0688476562,        0.0507812500,       -1.0528564453,       -1.6937255859,       -2.8228759766
1489456300.1157450676,1489456300.1181619167,       -0.7236328125,        0.0688476562,        0.0507812500,       -1.4801025391,       -1.7852783203,       -2.8228759766
1489456300.1184420586,1489456300.1207671165,       -0.7236328125,        0.0654296875,        0.0478515625,       -1.4801025391,       -1.7852783203,       -2.8533935547
1489456300.1210379601,1489456300.1233270168,       -0.7348632812,        0.0654296875,        0.0478515625,       -1.0528564453,       -2.1972656250,       -2.8533935547
1489456300.1236000061,1489456300.1258919239,       -0.7348632812,        0.0654296875,        0.0478515625,       -1.0528564453,       -2.1972656250,       -2.8533935547
1489456300.1261661053,1489456300.1284639835,       -0.7348632812,        0.0654296875,        0.0478515625,       -0.7476806641,       -2.1820068359,       -2.8076171875
1489456300.1287391186,1489456300.1316750050,       -0.7348632812,        0.0634765625,        0.0468750000,       -0.7476806641,       -2.1820068359,       -2.3498535156
1489456300.1319510937,1489456300.1342449188,       -0.7338867188,        0.0634765625,        0.0468750000,       -1.1291503906,       -1.9989013672,       -2.3498535156
1489456300.1345191002,1489456300.1368029118,       -0.7338867188,        0.0634765625,        0.0468750000,       -1.1291503906,       -1.9989013672,       -2.3498535156
1489456300.1370749474,1489456300.1394429207,       -0.7338867188,        0.0634765625,        0.0468750000,       -1.9378662109,       -1.7089843750,       -1.9989013672
1489456300.1397149563,1489456300.1420049667,       -0.7270507812,        0.0781250000,        0.0478515625,       -1.9378662109,       -1.7089843750,       -1.9989013672
1489456300.1422779560,1489456300.1445670128,       -0.7270507812,        0.0781250000,        0.0478515625,       -2.3345947266,       -1.7852783203,       -1.8463134766
1489456300.1448390484,1489456300.1471259594,       -0.7270507812,        0.0781250000,        0.0478515625,       -2.3345947266,       -1.7852783203,       -1.8463134766
1489456300.1473989487,1489456300.1496889591,       -0.7270507812,        0.0781250000,        0.0478515625,       -1.8615722656,       -1.7242431641,       -1.7852783203
1489456300.1499640942,1489456300.1522529125,       -0.7270507812,        0.0859375000,        0.0600585938,       -1.8615722656,       -1.7242431641,       -1.7852783203
1489456300.1525270939,1489456300.1548171043,       -0.7270507812,        0.0859375000,        0.0600585938,       -1.4953613281,       -1.5869140625,       -1.6174316406
1489456300.1550920010,1489456300.1573789120,       -0.7270507812,        0.0859375000,        0.0600585938,       -1.4953613281,       -1.5869140625,       -1.6174316406
1489456300.1577770710,1489456300.1600790024,       -0.7270507812,        0.0859375000,        0.0600585938,       -1.7089843750,       -1.1291503906,       -1.4953613281
1489456300.1603519917,1489456300.1626460552,       -0.7348632812,        0.0659179688,        0.0581054688,       -1.7089843750,       -1.1291503906,       -1.4953613281
1489456300.1629190445,1489456300.1652081013,       -0.7348632812,        0.0659179688,        0.0581054688,       -2.1667480469,       -1.0986328125,       -0.8239746094
1489456300.1654810905,1489456300.1677680016,       -0.7348632812,        0.0659179688,        0.0581054688,       -2.1667480469,       -1.0986328125,       -0.8239746094
1489456300.1680409908,1489456300.1703729630,       -0.7348632812,        0.0659179688,        0.0581054688,       -2.1667480469,       -1.4953613281,       -0.4882812500
1489456300.1706459522,1489456300.1729280949,       -0.7290039062,        0.0678710938,        0.0517578125,       -2.2735595703,       -1.4953613281,       -0.4882812500
1489456300.1732010841,1489456300.1754889488,       -0.7290039062,        0.0678710938,        0.0517578125,       -2.2735595703,       -1.4953613281,       -0.4730224609
1489456300.1757628918,1489456300.1780490875,       -0.7290039062,        0.0678710938,        0.0517578125,       -2.5177001953,       -1.3885498047,       -0.4730224609
1489456300.1783230305,1489456300.1807379723,       -0.7290039062,        0.0678710938,        0.0517578125,       -2.5177001953,       -1.3885498047,       -0.3204345703
1489456300.1810131073,1489456300.1833069324,       -0.7250976562,        0.0698242188,        0.0664062500,       -2.4871826172,       -1.3427734375,       -0.3204345703
1489456300.1835820675,1489456300.1858708858,       -0.7250976562,        0.0698242188,        0.0664062500,       -2.4871826172,       -1.3427734375,       -0.3204345703
1489456300.1861441135,1489456300.1884310246,       -0.7250976562,        0.0698242188,        0.0664062500,       -2.3651123047,       -1.4190673828,       -0.2288818359
1489456300.1887030602,1489456300.1912670135,       -0.7250976562,        0.0698242188,        0.0590820312,       -2.3651123047,       -1.4190673828,       -0.2288818359
1489456300.1915500164,1489456300.1939570904,       -0.7270507812,        0.0810546875,        0.0590820312,       -2.4108886719,       -0.9155273438,       -0.2593994141
1489456300.1942389011,1489456300.1966390610,       -0.7270507812,        0.0810546875,        0.0590820312,       -2.4108886719,       -0.9155273438,       -0.2593994141
1489456300.1969220638,1489456300.1994929314,       -0.7270507812,        0.0810546875,        0.0590820312,       -2.3193359375,       -0.5645751953,       -0.4577636719
1489456300.1997900009,1489456300.2022089958,       -0.7294921875,        0.0834960938,        0.0610351562,       -2.3193359375,       -0.5645751953,       -0.4577636719
1489456300.2024919987,1489456300.2049009800,       -0.7294921875,        0.0834960938,        0.0610351562,       -2.2277832031,       -0.7019042969,       -0.1831054688
1489456300.2051830292,1489456300.2075901031,       -0.7294921875,        0.0834960938,        0.0610351562,       -2.2277832031,       -0.7019042969,       -0.1831054688
1489456300.2078719139,1489456300.2104060650,       -0.7294921875,        0.0834960938,        0.0610351562,       -1.9989013672,       -1.1138916016,       -0.1068115234
1489456300.2106881142,1489456300.2130939960,       -0.7280273438,        0.0712890625,        0.0512695312,       -1.9989013672,       -1.1138916016,       -0.1068115234
1489456300.2133760452,1489456300.2157769203,       -0.7280273438,        0.0712890625,        0.0512695312,       -2.1514892578,       -0.9460449219,       -0.1525878906
1489456300.2160580158,1489456300.2184650898,       -0.7280273438,        0.0712890625,        0.0512695312,       -2.1514892578,       -0.9460449219,       -0.1525878906
1489456300.2187459469,1489456300.2211399078,       -0.7280273438,        0.0712890625,        0.0512695312,       -2.0446777344,       -1.0986328125,       -0.1525878906
1489456300.2215270996,1489456300.2238259315,       -0.7221679688,        0.0688476562,        0.0493164062,       -2.0446777344,       -1.0986328125,       -0.1525878906
1489456300.2241010666,1489456300.2263929844,       -0.7221679688,        0.0688476562,        0.0493164062,       -1.2207031250,       -1.1596679688,       -0.2593994141
1489456300.2266669273,1489456300.2289760113,       -0.7221679688,        0.0688476562,        0.0493164062,       -1.2207031250,       -1.1596679688,       -0.2593994141
1489456300.2292559147,1489456300.2318820953,       -0.7221679688,        0.0688476562,        0.0595703125,       -0.9918212891,       -1.3427734375,       -0.4730224609
1489456300.2321650982,1489456300.2345719337,       -0.7280273438,        0.0791015625,        0.0595703125,       -0.9918212891,       -1.3427734375,       -0.4730224609
1489456300.2348549366,1489456300.2372579575,       -0.7280273438,        0.0791015625,        0.0595703125,       -1.7089843750,       -1.0528564453,       -0.3509521484
1489456300.2375380993,1489456300.2399361134,       -0.7280273438,        0.0791015625,        0.0595703125,       -1.7089843750,       -1.0528564453,       -0.3509521484
1489456300.2402551174,1489456300.2426700592,       -0.7241210938,        0.0825195312,        0.0478515625,       -1.4801025391,       -1.2969970703,       -0.4882812500
1489456300.2429521084,1489456300.2454950809,       -0.7241210938,        0.0825195312,        0.0478515625,       -1.4801025391,       -1.2969970703,       -0.4882812500
1489456300.2457790375,1489456300.2481930256,       -0.7241210938,        0.0825195312,        0.0478515625,       -1.1444091797,       -1.6784667969,       -0.4730224609
1489456300.2493100166,1489456300.2516050339,       -0.7241210938,        0.0825195312,        0.0532226562,       -1.1444091797,       -1.6784667969,       -0.4272460938
1489456300.2518820763,1489456300.2541708946,       -0.7324218750,        0.0825195312,        0.0532226562,       -0.8392333984,       -1.3732910156,       -0.4272460938
1489456300.2544460297,1489456300.2567319870,       -0.7324218750,        0.0825195312,        0.0532226562,       -0.8392333984,       -1.3732910156,       -0.6408691406
1489456300.2570059299,1489456300.2593929768,       -0.7324218750,        0.0825195312,        0.0532226562,       -1.6021728516,       -1.3275146484,       -0.6408691406
1489456300.2596681118,1489456300.2619578838,       -0.7324218750,        0.0825195312,        0.0615234375,       -1.6021728516,       -1.3275146484,       -0.6408691406
1489456300.2622330189,1489456300.2645170689,       -0.7304687500,        0.0834960938,        0.0615234375,       -1.3580322266,       -1.0681152344,       -0.6103515625
1489456300.2647919655,1489456300.2670810223,       -0.7304687500,        0.0834960938,        0.0615234375,       -1.3580322266,       -1.0681152344,       -0.6103515625
1489456300.2673549652,1489456300.2696468830,       -0.7304687500,        0.0834960938,        0.0615234375,       -1.3275146484,       -1.5716552734,       -0.3509521484
1489456300.2699210644,1489456300.2722098827,       -0.7304687500,        0.0747070312,        0.0571289062,       -1.3275146484,       -1.5716552734,       -0.3509521484
1489456300.2724850178,1489456300.2747750282,       -0.7275390625,        0.0747070312,        0.0571289062,       -0.9765625000,       -1.1291503906,       -0.5798339844
1489456300.2750489712,1489456300.2773370743,       -0.7275390625,        0.0747070312,        0.0571289062,       -0.9765625000,       -1.1291503906,       -0.5798339844
1489456300.2776091099,1489456300.2799050808,       -0.7275390625,        0.0747070312,        0.0571289062,       -0.8544921875,       -0.9155273438,       -0.3509521484
1489456300.2801780701,1489456300.2824690342,       -0.7275390625,        0.0654296875,        0.0585937500,       -0.8544921875,       -0.9155273438,       -0.3509521484
1489456300.2827429771,1489456300.2850260735,       -0.7226562500,        0.0654296875,        0.0585937500,       -1.2817382812,       -1.1291503906,       -0.2288818359
1489456300.2854061127,1489456300.2876939774,       -0.7226562500,        0.0654296875,        0.0585937500,       -1.2817382812,       -1.1291503906,       -0.2288818359
1489456300.2879691124,1489456300.2902579308,       -0.7226562500,        0.0654296875,        0.0585937500,       -0.9307861328,       -1.2207031250,       -0.0457763672
1489456300.2905309200,1489456300.2928199768,       -0.7270507812,        0.0693359375,        0.0522460938,       -0.9307861328,       -1.2207031250,       -0.0457763672
1489456300.2930960655,1489456300.2953839302,       -0.7270507812,        0.0693359375,        0.0522460938,       -0.9307861328,       -0.5950927734,        0.1525878906
1489456300.2956600189,1489456300.2979419231,       -0.7270507812,        0.0693359375,        0.0522460938,       -0.8239746094,       -0.5950927734,        0.1525878906
1489456300.2982180119,1489456300.3006930351,       -0.7270507812,        0.0693359375,        0.0522460938,       -0.8239746094,       -0.5950927734,        0.3204345703
1489456300.3009679317,1489456300.3032629490,       -0.7226562500,        0.0747070312,        0.0493164062,       -0.2593994141,       -0.5645751953,        0.3204345703
1489456300.3035368919,1489456300.3058259487,       -0.7226562500,        0.0747070312,        0.0493164062,       -0.2593994141,       -0.5645751953,        0.0457763672
1489456300.3060989380,1489456300.3083930016,       -0.7226562500,        0.0747070312,        0.0493164062,        0.0762939453,       -1.1444091797,        0.0457763672
1489456300.3086659908,1489456300.3111829758,       -0.7226562500,        0.0747070312,        0.0493164062,        0.0762939453,       -1.1444091797,        0.1831054688
1489456300.3114640713,1489456300.3138809204,       -0.7270507812,        0.0874023438,        0.0590820312,        0.1220703125,       -0.4730224609,        0.1831054688
1489456300.3141651154,1489456300.3165779114,       -0.7270507812,        0.0874023438,        0.0590820312,        0.1220703125,       -0.4730224609,        0.1831054688
1489456300.3168630600,1489456300.3192710876,       -0.7270507812,        0.0874023438,        0.0590820312,       -0.2136230469,       -0.5187988281,        0.1525878906
1489456300.3195459843,1489456300.3218309879,       -0.7270507812,        0.0874023438,        0.0590820312,       -0.2136230469,       -0.5187988281,        0.1525878906
1489456300.3221049309,1489456300.3243970871,       -0.7255859375,        0.0834960938,        0.0576171875,        0.1678466797,       -0.5340576172,        0.1983642578
1489456300.3246700764,1489456300.3269600868,       -0.7255859375,        0.0834960938,        0.0576171875,        0.1678466797,       -0.5340576172,        0.1983642578
1489456300.3272340298,1489456300.3295729160,       -0.7255859375,        0.0834960938,        0.0576171875,        0.3967285156,       -0.7019042969,       -0.1068115234
1489456300.3298559189,1489456300.3322730064,       -0.7255859375,        0.0834960938,        0.0576171875,        0.3967285156,       -0.7019042969,       -0.1068115234
1489456300.3325569630,1489456300.3349699974,       -0.7285156250,        0.0678710938,        0.0566406250,       -0.2136230469,       -0.5187988281,        0.0762939453
1489456300.3352520466,1489456300.3376679420,       -0.7285156250,        0.0678710938,        0.0566406250,       -0.2136230469,       -0.5187988281,        0.0762939453
1489456300.3379509449,1489456300.3403720856,       -0.7285156250,        0.0678710938,        0.0566406250,       -0.1373291016,       -0.3814697266,        0.1068115234
1489456300.3406538963,1489456300.3430728912,       -0.7285156250,        0.0703125000,        0.0517578125,       -0.1373291016,       -0.3814697266,        0.1068115234
1489456300.3433549404,1489456300.3457710743,       -0.7246093750,        0.0703125000,        0.0517578125,       -0.4730224609,       -0.5340576172,        0.0152587891
1489456300.3460550308,1489456300.3484709263,       -0.7246093750,        0.0703125000,        0.0517578125,       -0.4730224609,       -0.5340576172,        0.0152587891
1489456300.3488709927,1489456300.3512890339,       -0.7246093750,        0.0703125000,        0.0517578125,       -0.6561279297,       -0.5340576172,        0.2136230469
1489456300.3515710831,1489456300.3539850712,       -0.7319335938,        0.0781250000,        0.0537109375,       -0.6561279297,       -0.5340576172,        0.2136230469
1489456300.3542668819,1489456300.3566811085,       -0.7319335938,        0.0781250000,        0.0537109375,       -0.3051757812,       -0.8087158203,        0.5187988281
1489456300.3569629192,1489456300.3594260216,       -0.7319335938,        0.0781250000,        0.0537109375,       -0.3051757812,       -0.8087158203,        0.5187988281
1489456300.3597080708,1489456300.3621261120,       -0.7319335938,        0.0781250000,        0.0537109375,        0.2593994141,       -1.0528564453,        0.2441406250
1489456300.3624079227,1489456300.3649129868,       -0.7290039062,        0.0737304688,        0.0615234375,        0.2593994141,       -1.0528564453,        0.2441406250
1489456300.3652040958,1489456300.3676209450,       -0.7290039062,        0.0737304688,        0.0615234375,        0.0457763672,       -1.0528564453,        0.1983642578
1489456300.3679039478,1489456300.3705229759,       -0.7290039062,        0.0737304688,        0.0615234375,        0.0457763672,       -1.0528564453,        0.1983642578
1489456300.3707990646,1489456300.3730919361,       -0.7290039062,        0.0737304688,        0.0590820312,       -0.1831054688,       -0.7476806641,        0.1983642578
1489456300.3733661175,1489456300.3756608963,       -0.7275390625,        0.0776367188,        0.0590820312,       -0.1831054688,       -0.7476806641,        0.1983642578
1489456300.3759360313,1489456300.3782229424,       -0.7275390625,        0.0776367188,        0.0590820312,        0.0152587891,       -0.5035400391,        0.7629394531
1489456300.3784980774,1489456300.3809120655,       -0.7275390625,        0.0776367188,        0.0590820312,        0.0152587891,       -0.5035400391,        0.7629394531
1489456300.3811941147,1489456300.3836150169,       -0.7275390625,        0.0844726562,        0.0502929688,       -0.5035400391,       -0.7934570312,        0.6866455078
1489456300.3838970661,1489456300.3863170147,       -0.7363281250,        0.0844726562,        0.0502929688,       -0.5035400391,       -0.7934570312,        0.6866455078
1489456300.3865990639,1489456300.3890330791,       -0.7363281250,        0.0844726562,        0.0502929688,       -0.5950927734,       -0.7324218750,        0.1831054688
1489456300.3893139362,1489456300.3917300701,       -0.7363281250,        0.0844726562,        0.0502929688,       -0.5950927734,       -0.7324218750,        0.1831054688
1489456300.3920130730,1489456300.3944311142,       -0.7314453125,        0.0776367188,        0.0644531250,        0.1220703125,       -0.6256103516,        0.4730224609
1489456300.3947129250,1489456300.3971319199,       -0.7314453125,        0.0776367188,        0.0644531250,        0.1220703125,       -0.6256103516,        0.4730224609
1489456300.3974161148,1489456300.3997890949,       -0.7314453125,        0.0776367188,        0.0644531250,        0.2899169922,       -1.1444091797,        0.7019042969
1489456300.4000630379,1489456300.4023530483,       -0.7314453125,        0.0776367188,        0.0644531250,        0.2899169922,       -1.1444091797,        0.7019042969
1489456300.4026279449,1489456300.4049179554,       -0.7236328125,        0.0825195312,        0.0537109375,        0.1220703125,       -1.2359619141,        0.8544921875
1489456300.4051930904,1489456300.4074900150,       -0.7236328125,        0.0825195312,        0.0537109375,        0.1220703125,       -1.2359619141,        0.8544921875
1489456300.4077649117,1489456300.4100670815,       -0.7236328125,        0.0825195312,        0.0537109375,       -0.0457763672,       -0.9918212891,        0.8544921875
1489456300.4103429317,1489456300.4126350880,       -0.7236328125,        0.0825195312,        0.0537109375,       -0.0457763672,       -0.9918212891,        0.8544921875
1489456300.4130089283,1489456300.4152960777,       -0.7250976562,        0.0727539062,        0.0522460938,       -0.0457763672,       -0.8392333984,        0.7781982422
1489456300.4155700207,1489456300.4178609848,       -0.7250976562,        0.0727539062,        0.0522460938,       -0.2899169922,       -0.8392333984,        0.7781982422
1489456300.4181349277,1489456300.4205379486,       -0.7250976562,        0.0727539062,        0.0522460938,       -0.2899169922,       -1.0070800781,        1.1749267578
1489456300.4208118916,1489456300.4231040478,       -0.7250976562,        0.0727539062,        0.0522460938,        0.7781982422,       -1.0070800781,        1.1749267578
1489456300.4233789444,1489456300.4256730080,       -0.7343750000,        0.0737304688,        0.0556640625,        0.7781982422,       -1.0070800781,        1.3275146484
1489456300.4259479046,1489456300.4282441139,       -0.7343750000,        0.0737304688,        0.0556640625,        1.2664794922,       -1.2207031250,        1.3275146484
1489456300.4285171032,1489456300.4310529232,       -0.7343750000,        0.0737304688,        0.0556640625,        1.2664794922,       -1.2207031250,        1.4801025391
1489456300.4313340187,1489456300.4337449074,       -0.7343750000,        0.0737304688,        0.0595703125,        1.6784667969,       -1.2512207031,        1.4801025391
1489456300.4340240955,1489456300.4364418983,       -0.7304687500,        0.0771484375,        0.0595703125,        1.6784667969,       -1.2512207031,        1.4953613281
1489456300.4368860722,1489456300.4393799305,       -0.7304687500,        0.0771484375,        0.0595703125,        2.1209716797,       -1.3427734375,        1.4953613281
1489456300.4396610260,1489456300.4420471191,       -0.7304687500,        0.0771484375,        0.0595703125,        2.1209716797,       -1.3427734375,        1.5106201172
1489456300.4423251152,1489456300.4455590248,       -0.7319335938,        0.0761718750,        0.0488281250,        2.3498535156,       -1.1901855469,        1.5106201172
1489456300.4458360672,1489456300.4481270313,       -0.7319335938,        0.0761718750,        0.0488281250,        2.7160644531,       -1.2664794922,        1.7700195312
1489456300.4484009743,1489456300.4507811069,       -0.7319335938,        0.0761718750,        0.0488281250,        2.7160644531,       -1.2664794922,        1.7700195312
1489456300.4510529041,1489456300.4533369541,       -0.7319335938,        0.0761718750,        0.0488281250,        2.7160644531,       -1.2664794922,        1.9683837891
1489456300.4536089897,1489456300.4558980465,       -0.7285156250,        0.0795898438,        0.0600585938,        3.3874511719,       -1.2664794922,        1.9683837891
1489456300.4561710358,1489456300.4584569931,       -0.7285156250,        0.0795898438,        0.0600585938,        3.3874511719,       -1.2664794922,        2.1667480469
1489456300.4587299824,1489456300.4610230923,       -0.7285156250,        0.0795898438,        0.0600585938,        3.3874511719,       -1.5106201172,        2.1667480469
1489456300.4612979889,1489456300.4635798931,       -0.7285156250,        0.0795898438,        0.0493164062,        3.3874511719,       -1.5106201172,        2.3956298828
1489456300.4638540745,1489456300.4661378860,       -0.7280273438,        0.0839843750,        0.0493164062,        3.4179687500,       -1.2207031250,        2.3956298828
1489456300.4664111137,1489456300.4686970711,       -0.7280273438,        0.0839843750,        0.0493164062,        3.4179687500,       -1.2207031250,        2.3956298828
1489456300.4689691067,1489456300.4712629318,       -0.7280273438,        0.0839843750,        0.0493164062,        3.4179687500,       -1.3580322266,        2.4108886719
1489456300.4715359211,1489456300.4738209248,       -0.7280273438,        0.0839843750,        0.0541992188,        3.4179687500,       -1.3580322266,        2.4108886719
1489456300.4740929604,1489456300.4763839245,       -0.7280273438,        0.0791015625,        0.0541992188,        3.8146972656,       -1.4953613281,        2.8533935547
1489456300.4766559601,1489456300.4790720940,       -0.7280273438,        0.0791015625,        0.0541992188,        3.8146972656,       -1.4953613281,        2.8533935547
1489456300.4794540405,1489456300.4817450047,       -0.7280273438,        0.0791015625,        0.0541992188,        4.1961669922,       -1.5869140625,        3.0059814453
1489456300.4820179939,1489456300.4843020439,       -0.7280273438,        0.0761718750,        0.0605468750,        4.1961669922,       -1.5869140625,        3.0059814453
1489456300.4845750332,1489456300.4868640900,       -0.7329101562,        0.0761718750,        0.0605468750,        3.8757324219,       -1.7242431641,        3.3111572266
1489456300.4871370792,1489456300.4895820618,       -0.7329101562,        0.0761718750,        0.0605468750,        3.8757324219,       -1.7242431641,        3.3111572266
1489456300.4898560047,1489456300.4921529293,       -0.7329101562,        0.0761718750,        0.0605468750,        3.8146972656,       -2.2583007812,        3.6926269531
1489456300.4924259186,1489456300.4947121143,       -0.7329101562,        0.0708007812,        0.0541992188,        3.8146972656,       -2.2583007812,        3.6926269531
1489456300.4949829578,1489456300.4972770214,       -0.7294921875,        0.0708007812,        0.0541992188,        3.2348632812,       -1.9531250000,        3.6773681641
1489456300.4975490570,1489456300.4999980927,       -0.7294921875,        0.0708007812,        0.0541992188,        3.2348632812,       -1.9531250000,        3.6773681641
1489456300.5002779961,1489456300.5026910305,       -0.7294921875,        0.0708007812,        0.0541992188,        3.5400390625,       -1.7395019531,        3.8909912109
1489456300.5029718876,1489456300.5053811073,       -0.7275390625,        0.0712890625,        0.0629882812,        3.5400390625,       -1.7395019531,        3.8909912109
1489456300.5056600571,1489456300.5080759525,       -0.7275390625,        0.0712890625,        0.0629882812,        3.8299560547,       -1.7547607422,        3.9978027344
1489456300.5083560944,1489456300.5107779503,       -0.7275390625,        0.0712890625,        0.0629882812,        3.8299560547,       -1.7547607422,        3.9978027344
1489456300.5110590458,1489456300.5134780407,       -0.7275390625,        0.0712890625,        0.0629882812,        4.1351318359,       -1.8463134766,        4.7760009766
1489456300.5137569904,1489456300.5161690712,       -0.7304687500,        0.0776367188,        0.0498046875,        4.1351318359,       -1.8463134766,        4.7760009766
1489456300.5164480209,1489456300.5188710690,       -0.7304687500,        0.0776367188,        0.0498046875,        5.1422119141,       -1.8615722656,        5.1422119141
1489456300.5191440582,1489456300.5214369297,       -0.7304687500,        0.0776367188,        0.0498046875,        5.1422119141,       -1.8615722656,        5.1422119141
1489456300.5217089653,1489456300.5240020752,       -0.7304687500,        0.0776367188,        0.0498046875,        5.1422119141,       -1.8920898438,        5.3558349609
1489456300.5242750645,1489456300.5265688896,       -0.7285156250,        0.0703125000,        0.0620117188,        5.7983398438,       -1.8920898438,        5.3558349609
1489456300.5268409252,1489456300.5291619301,       -0.7285156250,        0.0703125000,        0.0620117188,        5.7983398438,       -1.8920898438,        5.6457519531
1489456300.5294420719,1489456300.5318589211,       -0.7285156250,        0.0703125000,        0.0620117188,        7.3089599609,       -1.7089843750,        5.6457519531
1489456300.5321400166,1489456300.5345609188,       -0.7285156250,        0.0703125000,        0.0664062500,        7.3089599609,       -1.7089843750,        6.0272216797
1489456300.5348410606,1489456300.5372529030,       -0.7387695312,        0.0698242188,        0.0664062500,        9.0942382812,       -1.5869140625,        6.0272216797
1489456300.5375339985,1489456300.5400509834,       -0.7387695312,        0.0698242188,        0.0664062500,        9.0942382812,       -1.5869140625,        6.1645507812
1489456300.5403320789,1489456300.5427401066,       -0.7387695312,        0.0698242188,        0.0664062500,       10.0250244141,       -1.2817382812,        6.1645507812
1489456300.5431339741,1489456300.5455360413,       -0.7382812500,        0.0722656250,        0.0576171875,       10.0250244141,       -1.2817382812,        6.6528320312
1489456300.5458199978,1489456300.5482220650,       -0.7382812500,        0.0722656250,        0.0576171875,       10.2233886719,       -1.4648437500,        6.6528320312
1489456300.5485060215,1489456300.5510780811,       -0.7382812500,        0.0722656250,        0.0576171875,       10.2233886719,       -1.4648437500,        6.9732666016
1489456300.5513629913,1489456300.5537741184,       -0.7382812500,        0.0722656250,        0.0576171875,       10.5590820312,       -1.3732910156,        6.9732666016
1489456300.5540568829,1489456300.5566549301,       -0.7260742188,        0.0937500000,        0.0561523438,       10.5590820312,       -1.1901855469,        6.9427490234
1489456300.5569438934,1489456300.5595409870,       -0.7260742188,        0.0937500000,        0.0561523438,       10.6506347656,       -1.1901855469,        6.9427490234
1489456300.5598299503,1489456300.5622489452,       -0.7260742188,        0.0937500000,        0.0561523438,       10.6506347656,       -1.1901855469,        6.9732666016
1489456300.5625340939,1489456300.5649490356,       -0.7260742188,        0.0937500000,        0.0546875000,       10.7116699219,       -1.1901855469,        6.9732666016
1489456300.5652348995,1489456300.5676538944,       -0.7285156250,        0.0966796875,        0.0546875000,       10.7116699219,       -1.2512207031,        7.1411132812
1489456300.5679390430,1489456300.5702760220,       -0.7285156250,        0.0966796875,        0.0546875000,       10.6201171875,       -1.2512207031,        7.1411132812
1489456300.5705540180,1489456300.5728490353,       -0.7285156250,        0.0966796875,        0.0546875000,       10.6201171875,       -1.2512207031,        7.2326660156
1489456300.5731270313,1489456300.5754220486,       -0.7285156250,        0.1093750000,        0.0634765625,       10.7269287109,       -1.4038085938,        7.2326660156
1489456300.5757000446,1489456300.5779941082,       -0.7265625000,        0.1093750000,        0.0634765625,       10.7269287109,       -1.4038085938,        6.6986083984
1489456300.5782730579,1489456300.5806870461,       -0.7265625000,        0.1093750000,        0.0634765625,       10.9405517578,       -1.2207031250,        6.6986083984
1489456300.5809729099,1489456300.5833880901,       -0.7265625000,        0.1093750000,        0.0634765625,       10.9405517578,       -1.2207031250,        6.2408447266
1489456300.5836730003,1489456300.5860850811,       -0.7192382812,        0.1176757812,        0.0639648438,       10.7269287109,       -0.7324218750,        6.2408447266
1489456300.5863709450,1489456300.5888290405,       -0.7192382812,        0.1176757812,        0.0639648438,       10.7269287109,       -0.7324218750,        5.6304931641
1489456300.5891070366,1489456300.5914020538,       -0.7192382812,        0.1176757812,        0.0639648438,        9.8724365234,       -1.0833740234,        5.6304931641
1489456300.5916750431,1489456300.5939679146,       -0.7192382812,        0.1176757812,        0.0639648438,        9.8724365234,       -1.0833740234,        5.6304931641
1489456300.5942440033,1489456300.5965349674,       -0.7163085938,        0.1206054688,        0.0576171875,        9.3078613281,       -1.2969970703,        5.0354003906
1489456300.5968101025,1489456300.5991070271,       -0.7163085938,        0.1206054688,        0.0576171875,        9.3078613281,       -1.2969970703,        5.0354003906
1489456300.5993819237,1489456300.6016769409,       -0.7163085938,        0.1206054688,        0.0576171875,        9.3688964844,       -0.8850097656,        4.4097900391
1489456300.6019520760,1489456300.6042490005,       -0.7163085938,        0.1206054688,        0.0576171875,        9.3688964844,       -0.8850097656,        4.4097900391
1489456300.6045250893,1489456300.6068139076,       -0.7294921875,        0.1074218750,        0.0561523438,        9.5672607422,       -0.6866455078,        3.9672851562
1489456300.6071949005,1489456300.6096100807,       -0.7294921875,        0.1074218750,        0.0561523438,        9.5672607422,       -0.6866455078,        3.9672851562
1489456300.6098868847,1489456300.6121830940,       -0.7294921875,        0.1074218750,        0.0561523438,        9.1094970703,       -0.6866455078,        2.7923583984
1489456300.6124589443,1489456300.6147539616,       -0.7294921875,        0.1074218750,        0.0561523438,        9.1094970703,       -0.6866455078,        2.7923583984
1489456300.6150279045,1489456300.6173260212,       -0.7294921875,        0.1083984375,        0.0585937500,        8.7280273438,       -0.8087158203,        3.0212402344
1489456300.6175999641,1489456300.6199789047,       -0.7294921875,        0.1083984375,        0.0585937500,        8.7280273438,       -0.8087158203,        3.0212402344
1489456300.6202549934,1489456300.6225500107,       -0.7294921875,        0.1083984375,        0.0585937500,        8.3923339844,       -0.8544921875,        2.6245117188
1489456300.6228249073,1489456300.6251230240,       -0.7294921875,        0.1083984375,        0.0585937500,        8.3923339844,       -0.8544921875,        2.6245117188
1489456300.6254000664,1489456300.6276888847,       -0.7294921875,        0.1005859375,        0.0527343750,        8.5906982422,       -1.0681152344,        2.0751953125
1489456300.6279621124,1489456300.6303460598,       -0.7294921875,        0.1005859375,        0.0527343750,        8.5906982422,       -1.0681152344,        2.0751953125
1489456300.6306290627,1489456300.6330480576,       -0.7294921875,        0.1005859375,        0.0527343750,        8.5906982422,       -1.2817382812,        1.5869140625
1489456300.6333289146,1489456300.6357419491,       -0.7294921875,        0.1005859375,        0.0566406250,        9.0026855469,       -1.2817382812,        1.5869140625
1489456300.6360239983,1489456300.6384379864,       -0.7324218750,        0.0932617188,        0.0566406250,        9.0026855469,       -1.3885498047,        1.6784667969
1489456300.6387178898,1489456300.6411449909,       -0.7324218750,        0.0932617188,        0.0566406250,        9.2315673828,       -1.3885498047,        1.6784667969
1489456300.6414289474,1489456300.6438438892,       -0.7324218750,        0.0932617188,        0.0566406250,        9.2315673828,       -1.1291503906,        1.4801025391
1489456300.6441249847,1489456300.6465411186,       -0.7353515625,        0.0781250000,        0.0439453125,        8.5754394531,       -1.1291503906,        1.4801025391
1489456300.6468200684,1489456300.6492259502,       -0.7353515625,        0.0781250000,        0.0439453125,        8.5754394531,       -1.1291503906,        1.6784667969
1489456300.6494989395,1489456300.6517910957,       -0.7353515625,        0.0781250000,        0.0439453125,        7.7056884766,       -1.1291503906,        1.6784667969
1489456300.6520628929,1489456300.6543540955,       -0.7353515625,        0.0781250000,        0.0439453125,        7.7056884766,       -1.1291503906,        1.9531250000
1489456300.6546280384,1489456300.6569190025,       -0.7299804688,        0.0864257812,        0.0478515625,        7.0495605469,       -1.3885498047,        1.9531250000
1489456300.6571919918,1489456300.6595919132,       -0.7299804688,        0.0864257812,        0.0478515625,        7.0495605469,       -1.3885498047,        2.4108886719
1489456300.6598670483,1489456300.6621611118,       -0.7299804688,        0.0864257812,        0.0478515625,        6.2408447266,       -1.3122558594,        2.4108886719
1489456300.6624329090,1489456300.6647229195,       -0.7299804688,        0.0864257812,        0.0478515625,        6.2408447266,       -1.3122558594,        2.4108886719
1489456300.6649971008,1489456300.6672840118,       -0.7265625000,        0.1108398438,        0.0571289062,        5.5084228516,       -1.3580322266,        2.4719238281
1489456300.6675589085,1489456300.6699869633,       -0.7265625000,        0.1108398438,        0.0571289062,        5.5084228516,       -1.3580322266,        2.4719238281
1489456300.6703689098,1489456300.6726679802,       -0.7265625000,        0.1108398438,        0.0571289062,        4.8370361328,       -1.3580322266,        2.1362304688
1489456300.6729409695,1489456300.6754500866,       -0.7265625000,        0.1108398438,        0.0571289062,        4.8370361328,       -1.3580322266,        2.1362304688
1489456300.6757268906,1489456300.6780200005,       -0.7221679688,        0.1147460938,        0.0625000000,        4.8828125000,       -1.5716552734,        1.8615722656
1489456300.6782970428,1489456300.6808431149,       -0.7221679688,        0.1147460938,        0.0625000000,        4.8828125000,       -1.5716552734,        1.8615722656
1489456300.6811280251,1489456300.6835439205,       -0.7221679688,        0.1147460938,        0.0625000000,        4.6844482422,       -1.2054443359,        1.6021728516
1489456300.6838250160,1489456300.6862449646,       -0.7221679688,        0.1147460938,        0.0595703125,        4.6844482422,       -1.2054443359,        1.6021728516
1489456300.6865260601,1489456300.6889529228,       -0.7163085938,        0.1079101562,        0.0595703125,        4.1046142578,       -1.2512207031,        1.5563964844
1489456300.6892330647,1489456300.6916570663,       -0.7163085938,        0.1079101562,        0.0595703125,        4.1046142578,       -1.2512207031,        1.5563964844
1489456300.6919391155,1489456300.6943581104,       -0.7163085938,        0.1079101562,        0.0595703125,        3.8757324219,       -1.6174316406,        1.3275146484
1489456300.6946389675,1489456300.6970551014,       -0.7226562500,        0.1113281250,        0.0629882812,        3.8757324219,       -1.6174316406,        1.3275146484
1489456300.6973350048,1489456300.6997640133,       -0.7226562500,        0.1113281250,        0.0629882812,        3.1890869141,       -1.3122558594,        1.1749267578
1489456300.7000451088,1489456300.7024619579,       -0.7226562500,        0.1113281250,        0.0629882812,        3.1890869141,       -1.3122558594,        1.1749267578
1489456300.7027420998,1489456300.7051589489,       -0.7226562500,        0.1113281250,        0.0629882812,        2.6397705078,       -1.2207031250,        0.8392333984
1489456300.7054400444,1489456300.7078568935,       -0.7260742188,        0.1098632812,        0.0581054688,        2.6397705078,       -1.2207031250,        0.8392333984
1489456300.7081389427,1489456300.7104730606,       -0.7260742188,        0.1098632812,        0.0581054688,        2.2735595703,       -1.3580322266,        0.3967285156
1489456300.7107489109,1489456300.7130379677,       -0.7260742188,        0.1098632812,        0.0581054688,        2.2735595703,       -1.3580322266,        0.3967285156
1489456300.7133119106,1489456300.7156059742,       -0.7260742188,        0.1098632812,        0.0581054688,        2.0141601562,       -1.3122558594,       -0.2136230469
1489456300.7158789635,1489456300.7181730270,       -0.7236328125,        0.1142578125,        0.0610351562,        2.0141601562,       -1.3122558594,       -0.2136230469
1489456300.7184479237,1489456300.7207961082,       -0.7236328125,        0.1142578125,        0.0610351562,        1.5716552734,       -1.1138916016,       -0.1678466797
1489456300.7210679054,1489456300.7233629227,       -0.7236328125,        0.1142578125,        0.0610351562,        1.5716552734,       -1.1138916016,       -0.1678466797
1489456300.7236371040,1489456300.7259271145,       -0.7236328125,        0.1142578125,        0.0610351562,        0.8850097656,       -1.4038085938,       -0.2136230469
1489456300.7262020111,1489456300.7284939289,       -0.7109375000,        0.1201171875,        0.0498046875,        0.8850097656,       -1.4038085938,       -0.2136230469
1489456300.7287690639,1489456300.7311139107,       -0.7109375000,        0.1201171875,        0.0498046875,        0.6103515625,       -1.5411376953,       -0.2136230469
1489456300.7313899994,1489456300.7336831093,       -0.7109375000,        0.1201171875,        0.0498046875,        0.6103515625,       -1.5411376953,       -0.2136230469
1489456300.7340669632,1489456300.7363679409,       -0.7109375000,        0.1201171875,        0.0478515625,        0.6103515625,       -1.2817382812,       -0.8239746094
1489456300.7366418839,1489456300.7390680313,       -0.7246093750,        0.1020507812,        0.0478515625,        1.3427734375,       -1.2817382812,       -0.8239746094
1489456300.7393610477,1489456300.7417879105,       -0.7246093750,        0.1020507812,        0.0478515625,        1.3427734375,       -1.4953613281,       -0.7171630859
1489456300.7420699596,1489456300.7444849014,       -0.7246093750,        0.1020507812,        0.0478515625,        1.3427734375,       -1.4953613281,       -0.7171630859
1489456300.7447659969,1489456300.7471759319,       -0.7246093750,        0.0942382812,        0.0537109375,        1.3427734375,       -1.3580322266,       -0.4425048828
1489456300.7474560738,1489456300.7498829365,       -0.7202148438,        0.0942382812,        0.0537109375,        0.3204345703,       -1.3580322266,       -0.4425048828
1489456300.7501659393,1489456300.7525839806,       -0.7202148438,        0.0942382812,        0.0537109375,        0.3204345703,       -1.1138916016,       -0.2899169922
1489456300.7528660297,1489456300.7552850246,       -0.7202148438,        0.0942382812,        0.0537109375,       -0.2288818359,       -1.1138916016,       -0.2899169922
1489456300.7555658817,1489456300.7579820156,       -0.7255859375,        0.1040039062,        0.0512695312,       -0.2288818359,       -1.1138916016,       -0.5035400391
1489456300.7582659721,1489456300.7606918812,       -0.7255859375,        0.1040039062,        0.0512695312,       -0.0915527344,       -1.0833740234,       -0.5035400391
1489456300.7609739304,1489456300.7633929253,       -0.7255859375,        0.1040039062,        0.0512695312,       -0.0915527344,       -1.0833740234,       -0.4272460938
1489456300.7636759281,1489456300.7660911083,       -0.7255859375,        0.1040039062,        0.0512695312,        0.2136230469,       -1.5106201172,       -0.4272460938
1489456300.7663741112,1489456300.7688329220,       -0.7241210938,        0.0957031250,        0.0527343750,        0.2136230469,       -1.5106201172,       -0.2899169922
1489456300.7691080570,1489456300.7713999748,       -0.7241210938,        0.0957031250,        0.0527343750,        0.2441406250,       -1.5716552734,       -0.2899169922
1489456300.7716739178,1489456300.7739689350,       -0.7241210938,        0.0957031250,        0.0527343750,        0.2441406250,       -1.5716552734,       -0.0762939453
1489456300.7742431164,1489456300.7765319347,       -0.7241210938,        0.0957031250,        0.0527343750,        0.5187988281,       -1.9226074219,       -0.0762939453
1489456300.7768061161,1489456300.7791419029,       -0.7285156250,        0.1000976562,        0.0600585938,        0.5187988281,       -1.9226074219,       -0.0762939453
1489456300.7794260979,1489456300.7818419933,       -0.7285156250,        0.1000976562,        0.0600585938,       -0.1220703125,       -2.1209716797,       -0.2136230469
1489456300.7821249962,1489456300.7845399380,       -0.7285156250,        0.1000976562,        0.0600585938,       -0.1220703125,       -2.1209716797,       -0.2136230469
1489456300.7848229408,1489456300.7872378826,       -0.7285156250,        0.1000976562,        0.0590820312,       -0.5035400391,       -1.9378662109,       -0.4272460938
1489456300.7875189781,1489456300.7899479866,       -0.7241210938,        0.1127929688,        0.0590820312,       -0.5035400391,       -1.9378662109,       -0.4272460938
1489456300.7902300358,1489456300.7926468849,       -0.7241210938,        0.1127929688,        0.0590820312,       -0.2593994141,       -1.6784667969,       -0.3051757812
1489456300.7929279804,1489456300.7954618931,       -0.7241210938,        0.1127929688,        0.0590820312,       -0.2593994141,       -1.6784667969,       -0.3051757812
1489456300.7957479954,1489456300.7981560230,       -0.7299804688,        0.1083984375,        0.0590820312,        0.0305175781,       -1.7089843750,       -0.2136230469
1489456300.7989931107,1489456300.8014149666,       -0.7299804688,        0.1083984375,        0.0590820312,        0.0305175781,       -1.7089843750,       -0.4730224609
1489456300.8016989231,1489456300.8041141033,       -0.7299804688,        0.1083984375,        0.0590820312,        0.1220703125,       -1.6021728516,       -0.4730224609
1489456300.8043980598,1489456300.8068161011,       -0.7299804688,        0.1083984375,        0.0590820312,        0.1220703125,       -1.6021728516,       -0.3814697266
1489456300.8070991039,1489456300.8095250130,       -0.7255859375,        0.0937500000,        0.0649414062,        0.4882812500,       -1.8615722656,       -0.3814697266
1489456300.8098070621,1489456300.8122210503,       -0.7255859375,        0.0937500000,        0.0649414062,        0.4882812500,       -1.8615722656,       -0.3051757812
1489456300.8125030994,1489456300.8149209023,       -0.7255859375,        0.0937500000,        0.0649414062,        0.2593994141,       -1.6784667969,       -0.3051757812
1489456300.8152019978,1489456300.8176150322,       -0.7255859375,        0.0937500000,        0.0678710938,        0.2593994141,       -1.6784667969,       -0.2746582031
1489456300.8178970814,1489456300.8202509880,       -0.7260742188,        0.0991210938,        0.0678710938,        0.2136230469,       -1.9073486328,       -0.2746582031
1489456300.8205270767,1489456300.8228189945,       -0.7260742188,        0.0991210938,        0.0678710938,        0.2136230469,       -1.9073486328,       -0.5187988281
1489456300.8230919838,1489456300.8253810406,       -0.7260742188,        0.0991210938,        0.0678710938,        0.3814697266,       -1.7089843750,       -0.5187988281
1489456300.8256549835,1489456300.8279480934,       -0.7260742188,        0.1030273438,        0.0649414062,        0.3814697266,       -1.7089843750,       -0.5187988281
1489456300.8282220364,1489456300.8305621147,       -0.7221679688,        0.1030273438,        0.0649414062,        1.1749267578,       -1.5258789062,       -0.5493164062
1489456300.8308351040,1489456300.8331279755,       -0.7221679688,        0.1030273438,        0.0649414062,        1.1749267578,       -1.5258789062,       -0.5493164062
1489456300.8334031105,1489456300.8356909752,       -0.7221679688,        0.1030273438,        0.0649414062,        1.3732910156,       -1.7395019531,       -0.9765625000
1489456300.8359661102,1489456300.8382589817,       -0.7290039062,        0.1088867188,        0.0537109375,        1.3732910156,       -1.7395019531,       -0.9765625000
1489456300.8385341167,1489456300.8408319950,       -0.7290039062,        0.1088867188,        0.0537109375,        1.4343261719,       -1.8310546875,       -0.9765625000
1489456300.8411068916,1489456300.8434081078,       -0.7290039062,        0.1088867188,        0.0537109375,        1.4343261719,       -1.8310546875,       -0.9765625000
1489456300.8436839581,1489456300.8459730148,       -0.7290039062,        0.1088867188,        0.0537109375,        1.0223388672,       -2.1362304688,       -1.0375976562
1489456300.8462450504,1489456300.8491349220,       -0.7246093750,        0.1186523438,        0.0532226562,        1.0223388672,       -2.1362304688,       -1.0375976562
1489456300.8494100571,1489456300.8516969681,       -0.7246093750,        0.1186523438,        0.0532226562,        0.9155273438,       -2.1362304688,       -1.8157958984
1489456300.8519721031,1489456300.8542599678,       -0.7246093750,        0.1186523438,        0.0532226562,        0.9155273438,       -2.1362304688,       -1.8157958984
1489456300.8545351028,1489456300.8568260670,       -0.7246093750,        0.1186523438,        0.0532226562,        1.4038085938,       -2.2735595703,       -2.4566650391
1489456300.8571009636,1489456300.8594360352,       -0.7280273438,        0.1191406250,        0.0551757812,        1.4038085938,       -2.2735595703,       -2.4566650391
1489456300.8597090244,1489456300.8620069027,       -0.7280273438,        0.1191406250,        0.0551757812,        2.3345947266,       -2.2888183594,       -2.9907226562
1489456300.8623878956,1489456300.8646750450,       -0.7280273438,        0.1191406250,        0.0551757812,        2.3345947266,       -2.2888183594,       -2.9907226562
1489456300.8649480343,1489456300.8672358990,       -0.7280273438,        0.1191406250,        0.0551757812,        3.5705566406,       -2.4261474609,       -2.9754638672
1489456300.8675100803,1489456300.8698348999,       -0.7231445312,        0.0966796875,        0.0522460938,        3.5705566406,       -2.4261474609,       -2.9754638672
1489456300.8701078892,1489456300.8723978996,       -0.7231445312,        0.0966796875,        0.0522460938,        3.5705566406,       -2.6397705078,       -2.8839111328
1489456300.8726708889,1489456300.8749580383,       -0.7231445312,        0.0966796875,        0.0522460938,        3.4484863281,       -2.6397705078,       -2.8839111328
1489456300.8752310276,1489456300.8775260448,       -0.7231445312,        0.0966796875,        0.0522460938,        3.4484863281,       -2.6397705078,       -2.8686523438
1489456300.8777999878,1489456300.8800950050,       -0.7265625000,        0.1035156250,        0.0488281250,        2.9907226562,       -2.6092529297,       -2.8686523438
1489456300.8803679943,1489456300.8826611042,       -0.7265625000,        0.1035156250,        0.0488281250,        2.9907226562,       -2.6092529297,       -2.9602050781
1489456300.8829350471,1489456300.8852190971,       -0.7265625000,        0.1035156250,        0.0488281250,        2.4871826172,       -2.5787353516,       -2.9602050781
1489456300.8854920864,1489456300.8877799511,       -0.7265625000,        0.1035156250,        0.0537109375,        2.4871826172,       -2.5787353516,       -2.9602050781
1489456300.8880538940,1489456300.8905100822,       -0.7241210938,        0.1025390625,        0.0537109375,        1.9989013672,       -3.0212402344,       -2.9296875000
1489456300.8907849789,1489456300.8930790424,       -0.7241210938,        0.1025390625,        0.0537109375,        1.9989013672,       -3.0212402344,       -2.9296875000
1489456300.8933520317,1489456300.8956429958,       -0.7241210938,        0.1025390625,        0.0537109375,        1.3427734375,       -3.3569335938,       -3.1738281250
1489456300.8959169388,1489456300.8982129097,       -0.7241210938,        0.1025390625,        0.0629882812,        1.3427734375,       -3.3569335938,       -3.1738281250
1489456300.8984870911,1489456300.9009799957,       -0.7260742188,        0.1020507812,        0.0629882812,        1.3885498047,       -2.9907226562,       -2.8381347656
1489456300.9012629986,1489456300.9036889076,       -0.7260742188,        0.1020507812,        0.0629882812,        1.3885498047,       -2.9907226562,       -2.8381347656
1489456300.9039709568,1489456300.9063870907,       -0.7260742188,        0.1020507812,        0.0629882812,        1.4953613281,       -2.8228759766,       -2.7465820312
1489456300.9066679478,1489456300.9090890884,       -0.7163085938,        0.1044921875,        0.0659179688,        1.4953613281,       -2.8228759766,       -2.7465820312
1489456300.9093689919,1489456300.9117939472,       -0.7163085938,        0.1044921875,        0.0659179688,        1.5716552734,       -3.1585693359,       -2.9296875000
1489456300.9120740891,1489456300.9144890308,       -0.7163085938,        0.1044921875,        0.0659179688,        1.5716552734,       -3.1585693359,       -2.9296875000
1489456300.9147698879,1489456300.9171810150,       -0.7163085938,        0.1044921875,        0.0659179688,        1.9378662109,       -3.0670166016,       -2.8228759766
1489456300.9174621105,1489456300.9198410511,       -0.7187500000,        0.1040039062,        0.0644531250,        1.9378662109,       -3.0670166016,       -2.8228759766
1489456300.9201159477,1489456300.9224030972,       -0.7187500000,        0.1040039062,        0.0644531250,        2.0446777344,       -2.9907226562,       -2.6702880859
1489456300.9226760864,1489456300.9249699116,       -0.7187500000,        0.1040039062,        0.0644531250,        2.0446777344,       -2.9907226562,       -2.6702880859
1489456300.9253489971,1489456300.9276399612,       -0.7187500000,        0.1040039062,        0.0644531250,        2.3803710938,       -2.9602050781,       -2.3651123047
1489456300.9279139042,1489456300.9303081036,       -0.7221679688,        0.0991210938,        0.0590820312,        2.3803710938,       -2.9602050781,       -2.3651123047
1489456300.9305889606,1489456300.9330110550,       -0.7221679688,        0.0991210938,        0.0590820312,        2.7465820312,       -3.0517578125,       -2.4261474609
1489456300.9332931042,1489456300.9357070923,       -0.7221679688,        0.0991210938,        0.0590820312,        2.7465820312,       -3.0517578125,       -2.4261474609
1489456300.9359879494,1489456300.9384040833,       -0.7221679688,        0.0991210938,        0.0610351562,        3.0059814453,       -2.5939941406,       -2.7618408203
1489456300.9386849403,1489456300.9411170483,       -0.7260742188,        0.0981445312,        0.0610351562,        3.0059814453,       -2.5939941406,       -2.7618408203
1489456300.9413969517,1489456300.9438159466,       -0.7260742188,        0.0981445312,        0.0610351562,        3.1280517578,       -1.9073486328,       -2.4108886719
1489456300.9440948963,1489456300.9465150833,       -0.7260742188,        0.0981445312,        0.0610351562,        3.1280517578,       -1.9073486328,       -2.4108886719
1489456300.9467968941,1489456300.9492590427,       -0.7260742188,        0.0859375000,        0.0639648438,        3.1585693359,       -2.4108886719,       -2.3040771484
1489456300.9495410919,1489456300.9519500732,       -0.7363281250,        0.0859375000,        0.0639648438,        3.1585693359,       -2.4108886719,       -2.3040771484
1489456300.9522299767,1489456300.9546480179,       -0.7363281250,        0.0859375000,        0.0639648438,        2.7160644531,       -2.4414062500,       -2.1209716797
1489456300.9549438953,1489456300.9574089050,       -0.7363281250,        0.0859375000,        0.0639648438,        2.7160644531,       -2.4414062500,       -2.1209716797
1489456300.9576909542,1489456300.9605228901,       -0.7304687500,        0.0830078125,        0.0654296875,        2.8991699219,       -2.6245117188,       -1.7242431641
1489456300.9608049393,1489456300.9632220268,       -0.7304687500,        0.0830078125,        0.0654296875,        2.8991699219,       -2.6245117188,       -1.7242431641
1489456300.9635050297,1489456300.9659221172,       -0.7304687500,        0.0830078125,        0.0654296875,        2.2735595703,       -2.3345947266,       -1.3122558594
1489456300.9662029743,1489456300.9686279297,       -0.7304687500,        0.0830078125,        0.0654296875,        2.2735595703,       -2.3345947266,       -1.3122558594
1489456300.9689168930,1489456300.9712119102,       -0.7236328125,        0.1040039062,        0.0639648438,        2.0446777344,       -2.1972656250,       -1.1901855469
1489456300.9714860916,1489456300.9737789631,       -0.7236328125,        0.1040039062,        0.0639648438,        2.0446777344,       -2.1972656250,       -1.1901855469
1489456300.9740529060,1489456300.9763491154,       -0.7236328125,        0.1040039062,        0.0639648438,        2.2430419922,       -2.5177001953,       -1.2054443359
1489456300.9766221046,1489456300.9789340496,       -0.7236328125,        0.1040039062,        0.0703125000,        2.2430419922,       -2.5177001953,       -1.2054443359
1489456300.9792149067,1489456300.9816379547,       -0.7255859375,        0.0957031250,        0.0703125000,        2.4871826172,       -2.4719238281,       -1.2359619141
1489456300.9819180965,1489456300.9843280315,       -0.7255859375,        0.0957031250,        0.0703125000,        2.4871826172,       -2.4719238281,       -1.2359619141
1489456300.9846079350,1489456300.9870240688,       -0.7255859375,        0.0957031250,        0.0703125000,        2.7618408203,       -2.3345947266,       -1.3885498047
1489456300.9873030186,1489456300.9896941185,       -0.7255859375,        0.1059570312,        0.0581054688,        2.7618408203,       -2.3345947266,       -1.3885498047
1489456300.9900801182,1489456300.9923698902,       -0.7280273438,        0.1059570312,        0.0581054688,        3.0975341797,       -2.3803710938,       -1.2207031250
1489456300.9926440716,1489456300.9949369431,       -0.7280273438,        0.1059570312,        0.0581054688,        3.0975341797,       -2.3803710938,       -1.2207031250
1489456300.9952089787,1489456300.9975020885,       -0.7280273438,        0.1059570312,        0.0581054688,        3.0975341797,       -2.1972656250,       -1.0986328125
1489456300.9977750778,1489456301.0000729561,       -0.7299804688,        0.0947265625,        0.0664062500,        3.1280517578,       -2.1972656250,       -1.0986328125
1489456301.0003468990,1489456301.0026450157,       -0.7299804688,        0.0947265625,        0.0664062500,        3.1280517578,       -2.1972656250,       -1.0986328125
1489456301.0029180050,1489456301.0052111149,       -0.7299804688,        0.0947265625,        0.0664062500,        3.3264160156,       -2.0904541016,       -1.0986328125
1489456301.0054860115,1489456301.0077779293,       -0.7299804688,        0.0947265625,        0.0664062500,        3.3264160156,       -2.0904541016,       -1.0986328125
1489456301.0080521107,1489456301.0105059147,       -0.7329101562,        0.0961914062,        0.0625000000,        2.9754638672,       -2.0599365234,       -0.9460449219
1489456301.0107800961,1489456301.0130710602,       -0.7329101562,        0.0961914062,        0.0625000000,        2.9754638672,       -2.0599365234,       -0.9460449219
1489456301.0133469105,1489456301.0156359673,       -0.7329101562,        0.0961914062,        0.0625000000,        3.1280517578,       -2.0294189453,       -1.4190673828
1489456301.0159099102,1489456301.0182049274,       -0.7329101562,        0.0961914062,        0.0625000000,        3.1280517578,       -2.0294189453,       -1.4190673828
1489456301.0184769630,1489456301.0208768845,       -0.7231445312,        0.0971679688,        0.0600585938,        2.4414062500,       -2.0904541016,       -0.8087158203
1489456301.0211510658,1489456301.0234470367,       -0.7231445312,        0.0971679688,        0.0600585938,        2.4414062500,       -2.0904541016,       -0.8087158203
1489456301.0237219334,1489456301.0260150433,       -0.7231445312,        0.0971679688,        0.0600585938,        2.2888183594,       -1.9226074219,       -0.2899169922
1489456301.0262889862,1489456301.0285809040,       -0.7231445312,        0.0971679688,        0.0600585938,        2.2888183594,       -1.9226074219,       -0.2899169922
1489456301.0288619995,1489456301.0312778950,       -0.7275390625,        0.1030273438,        0.0595703125,        2.2430419922,       -2.0904541016,       -0.4577636719
1489456301.0315608978,1489456301.0339770317,       -0.7275390625,        0.1030273438,        0.0595703125,        2.2430419922,       -2.0904541016,       -0.4577636719
1489456301.0342600346,1489456301.0366721153,       -0.7275390625,        0.1030273438,        0.0595703125,        2.2430419922,       -1.8768310547,       -0.3662109375
1489456301.0369529724,1489456301.0393769741,       -0.7275390625,        0.1030273438,        0.0625000000,        2.2430419922,       -1.8768310547,       -0.3662109375
1489456301.0396590233,1489456301.0420761108,       -0.7250976562,        0.0957031250,        0.0625000000,        2.5024414062,       -1.7700195312,       -0.4882812500
1489456301.0423569679,1489456301.0447790623,       -0.7250976562,        0.0957031250,        0.0625000000,        2.5024414062,       -1.7700195312,       -0.4882812500
1489456301.0450589657,1489456301.0474760532,       -0.7250976562,        0.0957031250,        0.0625000000,        3.2653808594,       -1.8310546875,       -0.4119873047
1489456301.0477600098,1489456301.0501799583,       -0.7250976562,        0.0947265625,        0.0761718750,        3.2653808594,       -1.8310546875,       -0.4119873047
1489456301.0504620075,1489456301.0528779030,       -0.7275390625,        0.0947265625,        0.0761718750,        2.8839111328,       -1.5411376953,       -0.0762939453
1489456301.0532650948,1489456301.0556790829,       -0.7275390625,        0.0947265625,        0.0761718750,        2.8839111328,       -1.5411376953,       -0.0762939453
1489456301.0559589863,1489456301.0583710670,       -0.7275390625,        0.0947265625,        0.0761718750,        2.6550292969,       -1.6479492188,        0.0305175781
1489456301.0586519241,1489456301.0610229969,       -0.7207031250,        0.0937500000,        0.0659179688,        2.6550292969,       -1.6479492188,        0.0305175781
1489456301.0612969398,1489456301.0635840893,       -0.7207031250,        0.0937500000,        0.0659179688,        2.5939941406,       -1.3427734375,        0.3051757812
1489456301.0638608932,1489456301.0661540031,       -0.7207031250,        0.0937500000,        0.0659179688,        2.5939941406,       -1.3427734375,        0.3051757812
1489456301.0664279461,1489456301.0687170029,       -0.7207031250,        0.0937500000,        0.0659179688,        2.5787353516,       -1.2969970703,        1.0833740234
1489456301.0690510273,1489456301.0714449883,       -0.7280273438,        0.0864257812,        0.0722656250,        2.5787353516,       -1.2969970703,        1.0833740234
1489456301.0717248917,1489456301.0741319656,       -0.7280273438,        0.0864257812,        0.0722656250,        2.8381347656,       -1.6174316406,        1.1901855469
1489456301.0744090080,1489456301.0770630836,       -0.7280273438,        0.0864257812,        0.0722656250,        2.8381347656,       -1.6174316406,        1.1901855469
1489456301.0773429871,1489456301.0799260139,       -0.7280273438,        0.0864257812,        0.0722656250,        2.8686523438,       -1.1596679688,        1.4038085938
1489456301.0802059174,1489456301.0825879574,       -0.7246093750,        0.0942382812,        0.0649414062,        2.8686523438,       -1.1596679688,        1.4038085938
1489456301.0828659534,1489456301.0852448940,       -0.7246093750,        0.0942382812,        0.0649414062,        2.2735595703,       -0.8697509766,        1.5869140625
1489456301.0855240822,1489456301.0879089832,       -0.7246093750,        0.0942382812,        0.0649414062,        2.2735595703,       -0.8697509766,        1.5869140625
1489456301.0881860256,1489456301.0906419754,       -0.7246093750,        0.0957031250,        0.0678710938,        2.1667480469,       -0.9613037109,        1.6479492188
1489456301.0909230709,1489456301.0933370590,       -0.7290039062,        0.0957031250,        0.0678710938,        2.1667480469,       -0.9613037109,        1.6479492188
1489456301.0936191082,1489456301.0960390568,       -0.7290039062,        0.0957031250,        0.0678710938,        2.7008056641,       -1.2817382812,        2.0599365234
1489456301.0963199139,1489456301.0987329483,       -0.7290039062,        0.0957031250,        0.0678710938,        2.7008056641,       -1.2817382812,        2.0599365234
1489456301.0990610123,1489456301.1013538837,       -0.7285156250,        0.1083984375,        0.0629882812,        2.8381347656,       -1.1749267578,        2.2735595703
1489456301.1016280651,1489456301.1039190292,       -0.7285156250,        0.1083984375,        0.0629882812,        2.8381347656,       -1.1749267578,        2.2735595703
1489456301.1041910648,1489456301.1064860821,       -0.7285156250,        0.1083984375,        0.0629882812,        2.8381347656,       -1.2817382812,        2.0446777344
1489456301.1067569256,1489456301.1090741158,       -0.7285156250,        0.1083984375,        0.0629882812,        2.7465820312,       -1.2817382812,        2.0446777344
1489456301.1093480587,1489456301.1116430759,       -0.7241210938,        0.1113281250,        0.0615234375,        2.7465820312,       -1.2817382812,        1.9683837891
1489456301.1119160652,1489456301.1142110825,       -0.7241210938,        0.1113281250,        0.0615234375,        2.4414062500,       -1.1596679688,        1.9683837891
1489456301.1144840717,1489456301.1167829037,       -0.7241210938,        0.1113281250,        0.0615234375,        2.4414062500,       -1.1596679688,        1.6174316406
1489456301.1171560287,1489456301.1194539070,       -0.7241210938,        0.1113281250,        0.0615234375,        2.5787353516,       -1.0986328125,        1.6174316406
1489456301.1197268963,1489456301.1220200062,       -0.7236328125,        0.1171875000,        0.0566406250,        2.5787353516,       -1.0986328125,        1.6174316406
1489456301.1222939491,1489456301.1245870590,       -0.7236328125,        0.1171875000,        0.0566406250,        2.8839111328,       -1.2969970703,        2.1209716797
1489456301.1248600483,1489456301.1271491051,       -0.7236328125,        0.1171875000,        0.0566406250,        2.8839111328,       -1.2969970703,        2.1209716797
1489456301.1274240017,1489456301.1297650337,       -0.7236328125,        0.1171875000,        0.0566406250,        2.3956298828,       -1.4648437500,        1.8310546875
1489456301.1300389767,1489456301.1323299408,       -0.7275390625,        0.1108398438,        0.0659179688,        2.3956298828,       -1.4648437500,        1.8310546875
1489456301.1326019764,1489456301.1348969936,       -0.7275390625,        0.1108398438,        0.0659179688,        2.8076171875,       -1.4495849609,        1.5258789062
1489456301.1351690292,1489456301.1374740601,       -0.7275390625,        0.1108398438,        0.0659179688,        2.8076171875,       -1.4495849609,        1.5258789062
1489456301.1377470493,1489456301.1401948929,       -0.7275390625,        0.1108398438,        0.0659179688,        3.1585693359,       -1.1749267578,        1.9989013672
1489456301.1404759884,1489456301.1428968906,       -0.7260742188,        0.1083984375,        0.0698242188,        3.1585693359,       -1.1749267578,        1.9989013672
1489456301.1431779861,1489456301.1455891132,       -0.7260742188,        0.1083984375,        0.0698242188,        2.8686523438,       -1.2359619141,        1.9531250000
1489456301.1458699703,1489456301.1482880116,       -0.7260742188,        0.1083984375,        0.0698242188,        2.8686523438,       -1.2359619141,        1.9531250000
1489456301.1485710144,1489456301.1509170532,       -0.7260742188,        0.0981445312,        0.0698242188,        2.5787353516,       -1.2512207031,        2.0904541016
1489456301.1511900425,1489456301.1534819603,       -0.7226562500,        0.0981445312,        0.0698242188,        2.5787353516,       -1.2512207031,        2.0904541016
1489456301.1537549496,1489456301.1560499668,       -0.7226562500,        0.0981445312,        0.0698242188,        2.6702880859,       -0.9002685547,        2.1667480469
1489456301.1563229561,1489456301.1586160660,       -0.7226562500,        0.0981445312,        0.0698242188,        2.6702880859,       -0.9002685547,        2.1667480469
1489456301.1588621140,1489456301.1612770557,       -0.7226562500,        0.0976562500,        0.0664062500,        2.6092529297,       -0.8087158203,        2.6550292969
1489456301.1615591049,1489456301.1639750004,       -0.7260742188,        0.0976562500,        0.0664062500,        2.6092529297,       -0.8087158203,        2.6550292969
1489456301.1642570496,1489456301.1666688919,       -0.7260742188,        0.0976562500,        0.0664062500,        2.2735595703,       -0.5035400391,        3.1890869141
1489456301.1669499874,1489456301.1693730354,       -0.7260742188,        0.0976562500,        0.0664062500,        2.2735595703,       -0.5035400391,        3.1890869141
1489456301.1696560383,1489456301.1720719337,       -0.7329101562,        0.0976562500,        0.0615234375,        2.2583007812,       -0.2441406250,        3.3569335938
1489456301.1723539829,1489456301.1747701168,       -0.7329101562,        0.0976562500,        0.0615234375,        2.2583007812,       -0.2441406250,        3.3569335938
1489456301.1750528812,1489456301.1774680614,       -0.7329101562,        0.0976562500,        0.0615234375,        2.3956298828,       -0.6103515625,        3.4637451172
1489456301.1777489185,1489456301.1801750660,       -0.7329101562,        0.0976562500,        0.0615234375,        2.3956298828,       -0.6103515625,        3.4637451172
1489456301.1804559231,1489456301.1828720570,       -0.7260742188,        0.0927734375,        0.0732421875,        2.3956298828,       -0.4730224609,        3.9062500000
1489456301.1832599640,1489456301.1856780052,       -0.7260742188,        0.0927734375,        0.0732421875,        2.2735595703,       -0.4730224609,        3.9062500000
1489456301.1859600544,1489456301.1883749962,       -0.7260742188,        0.0927734375,        0.0732421875,        1.8615722656,       -0.3814697266,        3.7078857422
1489456301.1886548996,1489456301.1909708977,       -0.7260742188,        0.0927734375,        0.0561523438,        1.8615722656,       -0.3814697266,        3.7078857422
1489456301.1912460327,1489456301.1935410500,       -0.7226562500,        0.1113281250,        0.0561523438,        1.8615722656,       -0.3967285156,        3.9672851562
1489456301.1938169003,1489456301.1962060928,       -0.7226562500,        0.1113281250,        0.0561523438,        1.9531250000,       -0.3967285156,        3.9672851562
1489456301.1964800358,1489456301.1987750530,       -0.7226562500,        0.1113281250,        0.0561523438,        1.9531250000,       -0.3967285156,        4.0283203125
1489456301.1995260715,1489456301.2019429207,       -0.7299804688,        0.1093750000,        0.0634765625,        2.1514892578,       -0.3967285156,        4.0283203125
1489456301.2022259235,1489456301.2046420574,       -0.7299804688,        0.1093750000,        0.0634765625,        2.1514892578,       -0.3509521484,        4.0740966797
1489456301.2049241066,1489456301.2073400021,       -0.7299804688,        0.1093750000,        0.0634765625,        2.1820068359,       -0.3509521484,        4.0740966797
1489456301.2076230049,1489456301.2100510597,       -0.7299804688,        0.1093750000,        0.0634765625,        2.1820068359,       -0.6256103516,        3.8909912109
1489456301.2103331089,1489456301.2127509117,       -0.7231445312,        0.1171875000,        0.0654296875,        1.8920898438,       -0.6256103516,        3.8909912109
1489456301.2130320072,1489456301.2154579163,       -0.7231445312,        0.1171875000,        0.0654296875,        1.8920898438,       -0.4882812500,        3.6010742188
1489456301.2157421112,1489456301.2181580067,       -0.7231445312,        0.1171875000,        0.0654296875,        1.7089843750,       -0.4882812500,        3.6010742188
1489456301.2184400558,1489456301.2208700180,       -0.7231445312,        0.1171875000,        0.0654296875,        1.7089843750,       -0.4119873047,        3.3416748047
1489456301.2211511135,1489456301.2235670090,       -0.7221679688,        0.1103515625,        0.0659179688,        2.1057128906,       -0.4119873047,        3.3416748047
1489456301.2238490582,1489456301.2262649536,       -0.7221679688,        0.1103515625,        0.0659179688,        2.1057128906,       -0.2746582031,        2.9296875000
1489456301.2265460491,1489456301.2289669514,       -0.7221679688,        0.1103515625,        0.0659179688,        1.9531250000,       -0.2746582031,        2.9296875000
1489456301.2292439938,1489456301.2315320969,       -0.7221679688,        0.1103515625,        0.0654296875,        1.9531250000,       -0.3356933594,        3.2196044922
1489456301.2318079472,1489456301.2340939045,       -0.7304687500,        0.1049804688,        0.0654296875,        2.2888183594,       -0.3356933594,        3.2196044922
1489456301.2343699932,1489456301.2366669178,       -0.7304687500,        0.1049804688,        0.0654296875,        2.2888183594,       -0.3356933594,        3.4942626953
1489456301.2369420528,1489456301.2392709255,       -0.7304687500,        0.1049804688,        0.0654296875,        2.4261474609,       -0.3509521484,        3.4942626953
1489456301.2395451069,1489456301.2418498993,       -0.7304687500,        0.1103515625,        0.0556640625,        2.4261474609,       -0.3509521484,        3.4942626953
1489456301.2421441078,1489456301.2446548939,       -0.7255859375,        0.1103515625,        0.0556640625,        2.1209716797,       -0.6256103516,        3.3264160156
1489456301.2449309826,1489456301.2472190857,       -0.7255859375,        0.1103515625,        0.0556640625,        2.1209716797,       -0.6256103516,        3.3264160156
1489456301.2476060390,1489456301.2499520779,       -0.7255859375,        0.1103515625,        0.0556640625,        1.8768310547,       -0.2593994141,        3.4484863281
1489456301.2502269745,1489456301.2525210381,       -0.7221679688,        0.1127929688,        0.0717773438,        1.8768310547,       -0.2593994141,        3.4484863281
1489456301.2527949810,1489456301.2550868988,       -0.7221679688,        0.1127929688,        0.0717773438,        1.8768310547,       -0.0457763672,        3.6163330078
1489456301.2553629875,1489456301.2576560974,       -0.7221679688,        0.1127929688,        0.0717773438,        1.8768310547,       -0.0457763672,        3.6163330078
1489456301.2579309940,1489456301.2603869438,       -0.7221679688,        0.1127929688,        0.0717773438,        2.4719238281,       -0.3204345703,        4.1656494141
1489456301.2606689930,1489456301.2630898952,       -0.7187500000,        0.1074218750,        0.0581054688,        2.4719238281,       -0.3204345703,        4.1656494141
1489456301.2633709908,1489456301.2657880783,       -0.7187500000,        0.1074218750,        0.0581054688,        2.2583007812,       -0.2288818359,        4.4403076172
1489456301.2660698891,1489456301.2684791088,       -0.7187500000,        0.1074218750,        0.0581054688,        2.2583007812,       -0.2288818359,        4.4403076172
1489456301.2687599659,1489456301.2711830139,       -0.7187500000,        0.1074218750,        0.0581054688,        2.1514892578,       -0.3509521484,        4.1961669922
1489456301.2714660168,1489456301.2738740444,       -0.7177734375,        0.1088867188,        0.0629882812,        2.1514892578,       -0.3509521484,        4.1961669922
1489456301.2741539478,1489456301.2765650749,       -0.7177734375,        0.1088867188,        0.0629882812,        1.6632080078,       -0.5340576172,        3.9825439453
1489456301.2768468857,1489456301.2792630196,       -0.7177734375,        0.1088867188,        0.0629882812,        1.6632080078,       -0.5340576172,        3.9825439453
1489456301.2795369625,1489456301.2818291187,       -0.7177734375,        0.1088867188,        0.0668945312,        1.6632080078,       -0.1525878906,        4.3487548828
1489456301.2821049690,1489456301.2843999863,       -0.7285156250,        0.1088867188,        0.0668945312,        1.6632080078,       -0.1525878906,        4.3487548828
1489456301.2846748829,1489456301.2869670391,       -0.7285156250,        0.1088867188,        0.0668945312,        1.9989013672,       -0.2136230469,        4.8370361328
1489456301.2872400284,1489456301.2895770073,       -0.7285156250,        0.1088867188,        0.0668945312,        1.9989013672,       -0.2136230469,        4.8370361328
1489456301.2898590565,1489456301.2922780514,       -0.7285156250,        0.1088867188,        0.0595703125,        1.6174316406,       -0.1983642578,        4.9133300781
1489456301.2925601006,1489456301.2949719429,       -0.7216796875,        0.1113281250,        0.0595703125,        1.6174316406,       -0.1983642578,        4.9133300781
1489456301.2952530384,1489456301.2976698875,       -0.7216796875,        0.1113281250,        0.0595703125,        1.6937255859,       -0.0610351562,        5.5084228516
1489456301.2979509830,1489456301.3003749847,       -0.7216796875,        0.1113281250,        0.0595703125,        1.6937255859,       -0.0610351562,        5.5084228516
1489456301.3006570339,1489456301.3030788898,       -0.7319335938,        0.1191406250,        0.0629882812,        1.5106201172,        0.1373291016,        5.6610107422
1489456301.3033599854,1489456301.3057789803,       -0.7319335938,        0.1191406250,        0.0629882812,        1.5106201172,        0.1373291016,        5.6610107422
1489456301.3060600758,1489456301.3084781170,       -0.7319335938,        0.1191406250,        0.0629882812,        1.3122558594,       -0.2136230469,        5.0048828125
1489456301.3087608814,1489456301.3111870289,       -0.7319335938,        0.1191406250,        0.0629882812,        1.3122558594,       -0.2136230469,        5.0048828125
1489456301.3115749359,1489456301.3139970303,       -0.7241210938,        0.1215820312,        0.0590820312,        0.9918212891,       -0.0457763672,        4.3792724609
1489456301.3142790794,1489456301.3168640137,       -0.7241210938,        0.1215820312,        0.0590820312,        0.9918212891,       -0.0457763672,        4.3792724609
1489456301.3171470165,1489456301.3197169304,       -0.7241210938,        0.1215820312,        0.0590820312,        1.4801025391,       -0.1220703125,        4.3029785156
1489456301.3200020790,1489456301.3224220276,       -0.7241210938,        0.1215820312,        0.0654296875,        1.4801025391,       -0.1220703125,        4.3029785156
1489456301.3227050304,1489456301.3251221180,       -0.7211914062,        0.1201171875,        0.0654296875,        1.8463134766,        0.0000000000,        4.4708251953
1489456301.3254039288,1489456301.3278288841,       -0.7211914062,        0.1201171875,        0.0654296875,        1.8463134766,        0.0000000000,        4.4708251953
1489456301.3281090260,1489456301.3304569721,       -0.7211914062,        0.1201171875,        0.0654296875,        2.0294189453,       -0.1831054688,        4.4250488281
1489456301.3307330608,1489456301.3330309391,       -0.7211914062,        0.1264648438,        0.0571289062,        2.0294189453,       -0.1831054688,        4.4250488281
1489456301.3333048820,1489456301.3355989456,       -0.7197265625,        0.1264648438,        0.0571289062,        2.0294189453,       -0.0762939453,        4.3945312500
1489456301.3358719349,1489456301.3381640911,       -0.7197265625,        0.1264648438,        0.0571289062,        2.0294189453,       -0.0762939453,        4.3945312500
1489456301.3384370804,1489456301.3411889076,       -0.7197265625,        0.1264648438,        0.0571289062,        2.1667480469,       -0.0305175781,        4.1809082031
1489456301.3414719105,1489456301.3444869518,       -0.7255859375,        0.1181640625,        0.0620117188,        2.1667480469,       -0.0305175781,        4.1809082031
1489456301.3447721004,1489456301.3471920490,       -0.7255859375,        0.1181640625,        0.0620117188,        2.0446777344,       -0.1220703125,        4.4555664062
1489456301.3474740982,1489456301.3498499393,       -0.7255859375,        0.1181640625,        0.0620117188,        2.0446777344,       -0.1220703125,        4.4555664062
1489456301.3501250744,1489456301.3524150848,       -0.7255859375,        0.1181640625,        0.0654296875,        1.8768310547,       -0.2593994141,        3.7689208984
1489456301.3526899815,1489456301.3549818993,       -0.7241210938,        0.1147460938,        0.0654296875,        1.8768310547,       -0.2593994141,        3.7689208984
1489456301.3552579880,1489456301.3575460911,       -0.7241210938,        0.1147460938,        0.0654296875,        1.8005371094,       -0.1983642578,        4.1961669922
1489456301.3578200340,1489456301.3602359295,       -0.7241210938,        0.1147460938,        0.0654296875,        1.8005371094,       -0.1983642578,        4.1961669922
1489456301.3605189323,1489456301.3629388809,       -0.7241210938,        0.1147460938,        0.0649414062,        1.6174316406,        0.0457763672,        4.8217773438
1489456301.3632209301,1489456301.3656389713,       -0.7294921875,        0.1201171875,        0.0649414062,        1.6174316406,        0.0457763672,        4.8217773438
1489456301.3659191132,1489456301.3683381081,       -0.7294921875,        0.1201171875,        0.0649414062,        1.4038085938,       -0.0457763672,        4.8065185547
1489456301.3686211109,1489456301.3710420132,       -0.7294921875,        0.1201171875,        0.0649414062,        1.4038085938,       -0.0457763672,        4.8065185547
1489456301.3713231087,1489456301.3737380505,       -0.7221679688,        0.1186523438,        0.0571289062,        1.3427734375,       -0.1220703125,        4.5623779297
1489456301.3740210533,1489456301.3764419556,       -0.7221679688,        0.1186523438,        0.0571289062,        1.3427734375,       -0.1220703125,        4.5623779297
1489456301.3768351078,1489456301.3792459965,       -0.7221679688,        0.1186523438,        0.0571289062,        1.2512207031,       -0.2441406250,        4.6234130859
1489456301.3795208931,1489456301.3818099499,       -0.7221679688,        0.1186523438,        0.0571289062,        1.2512207031,       -0.2441406250,        4.6234130859
1489456301.3820860386,1489456301.3843801022,       -0.7246093750,        0.1225585938,        0.0639648438,        1.3122558594,       -0.2136230469,        4.4860839844
1489456301.3846569061,1489456301.3869459629,       -0.7246093750,        0.1225585938,        0.0639648438,        1.3122558594,       -0.2136230469,        4.4860839844
1489456301.3872210979,1489456301.3896059990,       -0.7246093750,        0.1225585938,        0.0639648438,        1.3122558594,        0.0457763672,        4.0893554688
1489456301.3898808956,1489456301.3921730518,       -0.7246093750,        0.1225585938,        0.0639648438,        1.1291503906,        0.0457763672,        4.0893554688
1489456301.3924469948,1489456301.3947379589,       -0.7202148438,        0.1235351562,        0.0532226562,        1.1291503906,        0.0457763672,        4.3029785156
1489456301.3950109482,1489456301.3973100185,       -0.7202148438,        0.1235351562,        0.0532226562,        1.1596679688,        0.0915527344,        4.3029785156
1489456301.3975839615,1489456301.4000160694,       -0.7202148438,        0.1235351562,        0.0532226562,        1.1596679688,        0.0915527344,        4.2572021484
1489456301.4002981186,1489456301.4027180672,       -0.7202148438,        0.1235351562,        0.0532226562,        0.9307861328,       -0.0610351562,        4.2572021484
1489456301.4030001163,1489456301.4054179192,       -0.7231445312,        0.1279296875,        0.0620117188,        0.9307861328,       -0.0610351562,        4.2877197266
1489456301.4056999683,1489456301.4081149101,       -0.7231445312,        0.1279296875,        0.0620117188,        1.4495849609,        0.0610351562,        4.2877197266
1489456301.4083960056,1489456301.4108591080,       -0.7231445312,        0.1279296875,        0.0620117188,        1.4495849609,        0.0610351562,        4.4555664062
1489456301.4111399651,1489456301.4135580063,       -0.7231445312,        0.1235351562,        0.0708007812,        1.4190673828,        0.2746582031,        4.4555664062
1489456301.4138391018,1489456301.4162559509,       -0.7211914062,        0.1235351562,        0.0708007812,        1.4190673828,        0.2746582031,        4.3487548828
1489456301.4165370464,1489456301.4189538956,       -0.7211914062,        0.1235351562,        0.0708007812,        1.2817382812,        0.1373291016,        4.3487548828
1489456301.4192359447,1489456301.4216499329,       -0.7211914062,        0.1235351562,        0.0708007812,        1.2817382812,        0.1373291016,        4.3640136719
1489456301.4219329357,1489456301.4243509769,       -0.7207031250,        0.1225585938,        0.0551757812,        1.0833740234,        0.0305175781,        4.3640136719
1489456301.4246320724,1489456301.4270460606,       -0.7207031250,        0.1225585938,        0.0551757812,        1.0833740234,        0.0305175781,        4.4250488281
1489456301.4273259640,1489456301.4297089577,       -0.7207031250,        0.1225585938,        0.0551757812,        0.9460449219,        0.0762939453,        4.4250488281
1489456301.4299840927,1489456301.4322710037,       -0.7207031250,        0.1225585938,        0.0551757812,        0.9460449219,        0.0762939453,        4.4250488281
1489456301.4325459003,1489456301.4348359108,       -0.7192382812,        0.1323242188,        0.0664062500,        1.1901855469,       -0.1373291016,        4.2877197266
1489456301.4351089001,1489456301.4373970032,       -0.7192382812,        0.1323242188,        0.0664062500,        1.1901855469,       -0.1373291016,        4.2877197266
1489456301.4376709461,1489456301.4400379658,       -0.7192382812,        0.1323242188,        0.0664062500,        1.4190673828,       -0.0457763672,        3.8452148438
1489456301.4404211044,1489456301.4427061081,       -0.7192382812,        0.1323242188,        0.0664062500,        1.4190673828,       -0.0457763672,        3.8452148438
1489456301.4429779053,1489456301.4452641010,       -0.7163085938,        0.1274414062,        0.0507812500,        1.0986328125,        0.1831054688,        3.9672851562
1489456301.4455380440,1489456301.4478259087,       -0.7163085938,        0.1274414062,        0.0507812500,        1.0986328125,        0.1831054688,        3.9672851562
1489456301.4481010437,1489456301.4504261017,       -0.7163085938,        0.1274414062,        0.0507812500,        1.3427734375,        0.1831054688,        3.5400390625
1489456301.4507000446,1489456301.4529900551,       -0.7163085938,        0.1274414062,        0.0507812500,        1.3427734375,        0.1831054688,        3.5400390625
1489456301.4532639980,1489456301.4555859566,       -0.7285156250,        0.1259765625,        0.0654296875,        1.0375976562,        0.0152587891,        3.1127929688
1489456301.4558610916,1489456301.4581570625,       -0.7285156250,        0.1259765625,        0.0654296875,        1.0375976562,        0.0152587891,        3.1127929688
1489456301.4584300518,1489456301.4607729912,       -0.7285156250,        0.1259765625,        0.0654296875,        0.8392333984,       -0.2899169922,        3.0517578125
1489456301.4610478878,1489456301.4633328915,       -0.7285156250,        0.1259765625,        0.0654296875,        0.8392333984,       -0.2899169922,        3.0517578125
1489456301.4636080265,1489456301.4659500122,       -0.7231445312,        0.1293945312,        0.0678710938,        0.6866455078,       -0.0610351562,        3.1585693359
1489456301.4662249088,1489456301.4692699909,       -0.7231445312,        0.1293945312,        0.0678710938,        0.6866455078,       -0.0610351562,        3.1585693359
1489456301.4695479870,1489456301.4718379974,       -0.7231445312,        0.1293945312,        0.0678710938,        0.9613037109,       -0.0457763672,        2.7008056641
1489456301.4721128941,1489456301.4743990898,       -0.7231445312,        0.1298828125,        0.0517578125,        0.9613037109,       -0.0457763672,        2.7008056641
1489456301.4746739864,1489456301.4769649506,       -0.7192382812,        0.1298828125,        0.0517578125,        0.9918212891,       -0.3051757812,        2.8839111328
1489456301.4772388935,1489456301.4795320034,       -0.7192382812,        0.1298828125,        0.0517578125,        0.9918212891,       -0.3051757812,        2.8839111328
1489456301.4798069000,1489456301.4820940495,       -0.7192382812,        0.1298828125,        0.0517578125,        0.9918212891,       -0.1831054688,        2.5787353516
1489456301.4823698997,1489456301.4846520424,       -0.7207031250,        0.1347656250,        0.0605468750,        0.6256103516,       -0.1831054688,        2.5787353516
1489456301.4849269390,1489456301.4872200489,       -0.7207031250,        0.1347656250,        0.0605468750,        0.6256103516,        3.7231445312,        2.3498535156
1489456301.4874949455,1489456301.4898619652,       -0.7207031250,        0.1347656250,        0.0605468750,        0.1983642578,        0.0000000000,        2.3498535156
1489456301.4901359081,1489456301.4924230576,       -0.7207031250,        0.1347656250,        0.0605468750,        0.1983642578,        0.0000000000,        2.3803710938
1489456301.4926970005,1489456301.4949851036,       -0.7260742188,        0.1235351562,        0.0537109375,        0.4730224609,       -0.2746582031,        2.3803710938
1489456301.4952600002,1489456301.4975459576,       -0.7260742188,        0.1235351562,        0.0537109375,        0.4730224609,       -0.2746582031,        2.3803710938
1489456301.4978199005,1489456301.5001699924,       -0.7260742188,        0.1235351562,        0.0537109375,        0.4577636719,       -0.4119873047,        2.1820068359
1489456301.5004439354,1489456301.5027310848,       -0.7260742188,        0.1235351562,        0.0537109375,        0.4577636719,       -0.4119873047,        2.1820068359
1489456301.5031149387,1489456301.5054049492,       -0.7333984375,        0.1269531250,        0.0615234375,        0.4577636719,       -0.5035400391,        2.1362304688
1489456301.5056800842,1489456301.5079650879,       -0.7333984375,        0.1269531250,        0.0615234375,        0.4577636719,       -0.5035400391,        2.1362304688
1489456301.5082409382,1489456301.5106899738,       -0.7333984375,        0.1269531250,        0.0615234375,        0.3356933594,       -0.1983642578,        2.4871826172
1489456301.5109629631,1489456301.5132501125,       -0.7333984375,        0.1269531250,        0.0615234375,        0.3356933594,       -0.1983642578,        2.4871826172
1489456301.5135240555,1489456301.5158150196,       -0.7236328125,        0.1333007812,        0.0615234375,        0.5798339844,       -0.1983642578,        2.4261474609
1489456301.5160889626,1489456301.5183761120,       -0.7236328125,        0.1333007812,        0.0615234375,        0.5798339844,       -0.1983642578,        2.4261474609
1489456301.5186500549,1489456301.5210659504,       -0.7236328125,        0.1333007812,        0.0615234375,        0.3356933594,       -0.2288818359,        1.9378662109
1489456301.5213410854,1489456301.5236310959,       -0.7236328125,        0.1333007812,        0.0615234375,        0.3356933594,       -0.2288818359,        1.9378662109
1489456301.5239040852,1489456301.5261950493,       -0.7153320312,        0.1347656250,        0.0625000000,        0.5950927734,       -0.1525878906,        1.9989013672
1489456301.5264699459,1489456301.5287599564,       -0.7153320312,        0.1347656250,        0.0625000000,        0.5950927734,       -0.1525878906,        1.9989013672
1489456301.5290949345,1489456301.5313858986,       -0.7153320312,        0.1347656250,        0.0625000000,        0.7019042969,       -0.3662109375,        1.8768310547
1489456301.5316619873,1489456301.5339579582,       -0.7153320312,        0.1347656250,        0.0625000000,        0.7019042969,       -0.3662109375,        1.8768310547
1489456301.5342340469,1489456301.5365250111,       -0.7148437500,        0.1357421875,        0.0527343750,        0.7019042969,       -0.5798339844,        1.8920898438
1489456301.5368020535,1489456301.5391170979,       -0.7148437500,        0.1357421875,        0.0527343750,        0.6103515625,       -0.5798339844,        1.8920898438
1489456301.5393989086,1489456301.5418179035,       -0.7148437500,        0.1357421875,        0.0527343750,        0.6103515625,       -0.4882812500,        1.6632080078
1489456301.5420989990,1489456301.5445210934,       -0.7148437500,        0.1357421875,        0.0620117188,        0.3051757812,       -0.4882812500,        1.6632080078
1489456301.5448009968,1489456301.5472159386,       -0.7221679688,        0.1362304688,        0.0620117188,        0.3051757812,       -0.4882812500,        1.5106201172
1489456301.5474970341,1489456301.5499300957,       -0.7221679688,        0.1362304688,        0.0620117188,        0.7171630859,       -0.3814697266,        1.5106201172
1489456301.5502130985,1489456301.5526299477,       -0.7221679688,        0.1362304688,        0.0620117188,        0.7171630859,       -0.3814697266,        1.2207031250
1489456301.5529119968,1489456301.5553240776,       -0.7221679688,        0.1298828125,        0.0673828125,        1.1291503906,       -0.6866455078,        1.2207031250
1489456301.5556039810,1489456301.5580201149,       -0.7275390625,        0.1298828125,        0.0673828125,        1.1291503906,       -0.6866455078,        1.2969970703
1489456301.5583000183,1489456301.5607290268,       -0.7275390625,        0.1298828125,        0.0673828125,        1.0986328125,       -0.6866455078,        1.2969970703
1489456301.5610098839,1489456301.5634241104,       -0.7275390625,        0.1298828125,        0.0673828125,        1.0986328125,       -0.6866455078,        1.3427734375
1489456301.5637049675,1489456301.5661270618,       -0.7236328125,        0.1269531250,        0.0488281250,        0.9918212891,       -0.7934570312,        1.3427734375
1489456301.5665149689,1489456301.5689420700,       -0.7236328125,        0.1269531250,        0.0488281250,        0.9918212891,       -0.7934570312,        1.5411376953
1489456301.5692250729,1489456301.5716469288,       -0.7236328125,        0.1269531250,        0.0488281250,        0.7171630859,       -0.6408691406,        1.5411376953
1489456301.5719270706,1489456301.5743460655,       -0.7236328125,        0.1269531250,        0.0488281250,        0.7171630859,       -0.6408691406,        1.4190673828
1489456301.5746290684,1489456301.5771260262,       -0.7290039062,        0.1342773438,        0.0551757812,        0.5035400391,       -0.3814697266,        1.4190673828
1489456301.5774090290,1489456301.5797920227,       -0.7290039062,        0.1342773438,        0.0551757812,        0.5035400391,       -0.3814697266,        1.3732910156
1489456301.5800690651,1489456301.5823628902,       -0.7290039062,        0.1342773438,        0.0551757812,        0.3509521484,       -0.5493164062,        1.3732910156
1489456301.5826361179,1489456301.5849349499,       -0.7290039062,        0.1342773438,        0.0639648438,        0.3509521484,       -0.5493164062,        1.3275146484
1489456301.5852079391,1489456301.5874960423,       -0.7216796875,        0.1372070312,        0.0639648438,        0.5035400391,       -0.5035400391,        1.3275146484
1489456301.5877709389,1489456301.5901410580,       -0.7216796875,        0.1372070312,        0.0639648438,        0.5035400391,       -0.5035400391,        1.3275146484
1489456301.5904240608,1489456301.5928530693,       -0.7216796875,        0.1372070312,        0.0639648438,        0.9155273438,       -0.4882812500,        1.1444091797
1489456301.5931370258,1489456301.5955550671,       -0.7216796875,        0.1357421875,        0.0507812500,        0.9155273438,       -0.4882812500,        1.1444091797
1489456301.5958359241,1489456301.5982530117,       -0.7177734375,        0.1357421875,        0.0507812500,        0.2288818359,       -0.3204345703,        1.1749267578
1489456301.5985350609,1489456301.6009619236,       -0.7177734375,        0.1357421875,        0.0507812500,        0.2288818359,       -0.3204345703,        1.1749267578
1489456301.6012430191,1489456301.6036560535,       -0.7177734375,        0.1357421875,        0.0507812500,        0.1220703125,       -0.4119873047,        1.2969970703
1489456301.6039369106,1489456301.6063570976,       -0.7182617188,        0.1303710938,        0.0590820312,        0.1220703125,       -0.4119873047,        1.2969970703
1489456301.6066410542,1489456301.6090590954,       -0.7182617188,        0.1303710938,        0.0590820312,        0.1831054688,       -0.3967285156,        1.2359619141
1489456301.6093330383,1489456301.6116290092,       -0.7182617188,        0.1303710938,        0.0590820312,        0.1831054688,       -0.3967285156,        1.2359619141
1489456301.6119029522,1489456301.6141960621,       -0.7182617188,        0.1303710938,        0.0590820312,       -0.1068115234,       -0.3814697266,        0.9918212891
1489456301.6144709587,1489456301.6167600155,       -0.7172851562,        0.1342773438,        0.0517578125,       -0.1068115234,       -0.3814697266,        0.9918212891
1489456301.6170349121,1489456301.6194450855,       -0.7172851562,        0.1342773438,        0.0517578125,       -0.1678466797,       -0.5187988281,        0.7171630859
1489456301.6197199821,1489456301.6220231056,       -0.7172851562,        0.1342773438,        0.0517578125,       -0.1678466797,       -0.5187988281,        0.7171630859
1489456301.6222980022,1489456301.6245939732,       -0.7172851562,        0.1342773438,        0.0517578125,       -0.2593994141,       -0.8697509766,        1.0070800781
1489456301.6248669624,1489456301.6271591187,       -0.7226562500,        0.1347656250,        0.0605468750,       -0.2593994141,       -0.8697509766,        1.0070800781
1489456301.6274330616,1489456301.6297590733,       -0.7226562500,        0.1347656250,        0.0605468750,       -0.2593994141,       -0.4730224609,        0.9613037109
1489456301.6301460266,1489456301.6324350834,       -0.7226562500,        0.1347656250,        0.0605468750,       -0.2593994141,       -0.4730224609,        0.9613037109
1489456301.6327109337,1489456301.6350090504,       -0.7226562500,        0.1347656250,        0.0605468750,       -0.0305175781,       -0.0152587891,        1.0986328125
1489456301.6352820396,1489456301.6375689507,       -0.7207031250,        0.1269531250,        0.0708007812,       -0.0305175781,       -0.0152587891,        1.0986328125
1489456301.6378440857,1489456301.6402580738,       -0.7207031250,        0.1269531250,        0.0708007812,       -0.1678466797,        0.0152587891,        0.8087158203
1489456301.6405398846,1489456301.6429650784,       -0.7207031250,        0.1269531250,        0.0708007812,       -0.1678466797,        0.0152587891,        0.8087158203
1489456301.6432480812,1489456301.6456670761,       -0.7207031250,        0.1269531250,        0.0698242188,       -0.6103515625,       -0.0152587891,        0.6256103516
1489456301.6459488869,1489456301.6483650208,       -0.7187500000,        0.1352539062,        0.0698242188,       -0.6103515625,       -0.0152587891,        0.6256103516
1489456301.6486470699,1489456301.6510748863,       -0.7187500000,        0.1352539062,        0.0698242188,       -0.5493164062,        0.1068115234,        0.3814697266
1489456301.6513569355,1489456301.6537740231,       -0.7187500000,        0.1352539062,        0.0698242188,       -0.5493164062,        0.1068115234,        0.3814697266
1489456301.6540560722,1489456301.6564719677,       -0.7172851562,        0.1396484375,        0.0595703125,       -0.4119873047,       -0.2746582031,        0.2288818359
1489456301.6567549706,1489456301.6591739655,       -0.7172851562,        0.1396484375,        0.0595703125,       -0.4119873047,       -0.2746582031,        0.2288818359
1489456301.6594579220,1489456301.6618719101,       -0.7172851562,        0.1396484375,        0.0595703125,       -0.4119873047,       -0.3967285156,        0.1068115234
1489456301.6621549129,1489456301.6645789146,       -0.7172851562,        0.1396484375,        0.0595703125,       -0.3509521484,       -0.3967285156,        0.1068115234
1489456301.6648609638,1489456301.6672780514,       -0.7177734375,        0.1474609375,        0.0551757812,       -0.3509521484,       -0.3051757812,        0.0915527344
1489456301.6675601006,1489456301.6699779034,       -0.7177734375,        0.1474609375,        0.0551757812,       -0.9002685547,       -0.3051757812,        0.0915527344
1489456301.6702609062,1489456301.6726748943,       -0.7177734375,        0.1474609375,        0.0551757812,       -0.9002685547,       -0.1983642578,       -0.1220703125
1489456301.6729590893,1489456301.6753740311,       -0.7177734375,        0.1474609375,        0.0551757812,       -0.4882812500,       -0.1983642578,       -0.1220703125
1489456301.6756560802,1489456301.6780750751,       -0.7138671875,        0.1352539062,        0.0517578125,       -0.4882812500,       -0.0762939453,       -0.1678466797
1489456301.6783568859,1489456301.6806759834,       -0.7138671875,        0.1352539062,        0.0517578125,       -0.4577636719,       -0.0762939453,       -0.1678466797
1489456301.6809511185,1489456301.6832439899,       -0.7138671875,        0.1352539062,        0.0517578125,       -0.4577636719,       -0.0762939453,       -0.1831054688
1489456301.6835200787,1489456301.6858160496,       -0.7138671875,        0.1352539062,        0.0600585938,       -0.7171630859,       -0.1220703125,       -0.1831054688
1489456301.6860899925,1489456301.6883850098,       -0.7280273438,        0.1352539062,        0.0600585938,       -0.7171630859,       -0.1220703125,       -0.2136230469
1489456301.6886599064,1489456301.6910929680,       -0.7280273438,        0.1352539062,        0.0600585938,       -1.0528564453,       -0.1068115234,       -0.2136230469
1489456301.6913769245,1489456301.6937899590,       -0.7280273438,        0.1352539062,        0.0600585938,       -1.0528564453,       -0.1068115234,       -0.2593994141
1489456301.6941781044,1489456301.6965920925,       -0.7280273438,        0.1328125000,        0.0571289062,       -0.9307861328,       -0.2288818359,       -0.2593994141
1489456301.6968729496,1489456301.6992979050,       -0.7241210938,        0.1328125000,        0.0571289062,       -0.9307861328,       -0.2288818359,       -0.3967285156
1489456301.6995799541,1489456301.7019979954,       -0.7241210938,        0.1328125000,        0.0571289062,       -1.2817382812,       -0.1831054688,       -0.3967285156
1489456301.7022800446,1489456301.7046940327,       -0.7241210938,        0.1328125000,        0.0571289062,       -1.2817382812,       -0.1831054688,       -0.7019042969
1489456301.7049760818,1489456301.7073979378,       -0.7187500000,        0.1372070312,        0.0620117188,       -1.1444091797,       -0.4119873047,       -0.7019042969
1489456301.7076818943,1489456301.7101080418,       -0.7187500000,        0.1372070312,        0.0620117188,       -1.1444091797,       -0.4119873047,       -0.7476806641
1489456301.7103910446,1489456301.7128129005,       -0.7187500000,        0.1372070312,        0.0620117188,       -1.3122558594,       -0.2441406250,       -0.7476806641
1489456301.7130949497,1489456301.7155098915,       -0.7187500000,        0.1372070312,        0.0620117188,       -1.3122558594,       -0.2441406250,       -0.7324218750
1489456301.7157919407,1489456301.7182049751,       -0.7236328125,        0.1362304688,        0.0634765625,       -1.4038085938,       -0.0915527344,       -0.7324218750
1489456301.7184879780,1489456301.7209200859,       -0.7236328125,        0.1362304688,        0.0634765625,       -1.4038085938,       -0.0915527344,       -0.7324218750
1489456301.7212040424,1489456301.7236170769,       -0.7236328125,        0.1362304688,        0.0634765625,       -0.7324218750,       -0.2441406250,       -0.5950927734
1489456301.7238979340,1489456301.7263131142,       -0.7236328125,        0.1362304688,        0.0532226562,       -0.7324218750,       -0.2441406250,       -0.5950927734
1489456301.7265939713,1489456301.7290210724,       -0.7187500000,        0.1430664062,        0.0532226562,       -0.5950927734,       -0.7476806641,       -0.9918212891
1489456301.7292959690,1489456301.7315859795,       -0.7187500000,        0.1430664062,        0.0532226562,       -0.5950927734,       -0.7476806641,       -0.9918212891
1489456301.7318620682,1489456301.7341589928,       -0.7187500000,        0.1430664062,        0.0532226562,       -0.5798339844,       -0.9613037109,       -1.5563964844
1489456301.7344338894,1489456301.7367229462,       -0.7187500000,        0.1386718750,        0.0649414062,       -0.5798339844,       -0.9613037109,       -1.5563964844
1489456301.7369990349,1489456301.7393760681,       -0.7167968750,        0.1386718750,        0.0649414062,       -0.4882812500,       -0.3356933594,       -1.6784667969
1489456301.7396600246,1489456301.7420821190,       -0.7167968750,        0.1386718750,        0.0649414062,       -0.4882812500,       -0.3356933594,       -1.6784667969
1489456301.7423639297,1489456301.7447800636,       -0.7167968750,        0.1386718750,        0.0649414062,       -0.5950927734,       -0.3967285156,       -1.5411376953
1489456301.7450609207,1489456301.7474780083,       -0.7158203125,        0.1367187500,        0.0566406250,       -0.5950927734,       -0.3967285156,       -1.5411376953
1489456301.7477579117,1489456301.7501850128,       -0.7158203125,        0.1367187500,        0.0566406250,       -0.8850097656,       -0.5798339844,       -1.3885498047
1489456301.7504661083,1489456301.7528769970,       -0.7158203125,        0.1367187500,        0.0566406250,       -0.8850097656,       -0.5798339844,       -1.3885498047
1489456301.7531599998,1489456301.7555859089,       -0.7158203125,        0.1367187500,        0.0566406250,       -1.4190673828,       -0.3967285156,       -1.5563964844
1489456301.7558679581,1489456301.7582869530,       -0.7236328125,        0.1396484375,        0.0625000000,       -1.4190673828,       -0.3967285156,       -1.5563964844
1489456301.7586660385,1489456301.7610950470,       -0.7236328125,        0.1396484375,        0.0625000000,       -1.7700195312,       -0.5187988281,       -1.7395019531
1489456301.7613780499,1489456301.7637999058,       -0.7236328125,        0.1396484375,        0.0625000000,       -1.7700195312,       -0.5187988281,       -1.7395019531
1489456301.7640819550,1489456301.7664959431,       -0.7236328125,        0.1396484375,        0.0625000000,       -1.8157958984,       -0.4119873047,       -2.0599365234
1489456301.7667760849,1489456301.7694549561,       -0.7158203125,        0.1357421875,        0.0566406250,       -1.8157958984,       -0.4119873047,       -2.0599365234
1489456301.7697360516,1489456301.7721190453,       -0.7158203125,        0.1357421875,        0.0566406250,       -1.6632080078,       -0.8697509766,       -2.2277832031
1489456301.7723989487,1489456301.7748649120,       -0.7158203125,        0.1357421875,        0.0566406250,       -1.6632080078,       -0.8697509766,       -2.2277832031
1489456301.7751429081,1489456301.7775270939,       -0.7255859375,        0.1352539062,        0.0678710938,       -1.4343261719,       -0.5340576172,       -2.3193359375
1489456301.7781798840,1489456301.7805509567,       -0.7255859375,        0.1352539062,        0.0678710938,       -1.4343261719,       -0.5340576172,       -2.3193359375
1489456301.7808289528,1489456301.7831239700,       -0.7255859375,        0.1352539062,        0.0678710938,       -1.5563964844,       -0.5035400391,       -2.7923583984
1489456301.7833991051,1489456301.7856900692,       -0.7255859375,        0.1352539062,        0.0678710938,       -1.5563964844,       -0.5035400391,       -2.7923583984
1489456301.7859640121,1489456301.7882540226,       -0.7114257812,        0.1450195312,        0.0585937500,       -1.6021728516,       -0.3051757812,       -2.7923583984
1489456301.7885279655,1489456301.7909379005,       -0.7114257812,        0.1450195312,        0.0585937500,       -1.6021728516,       -0.3051757812,       -2.7923583984
1489456301.7912199497,1489456301.7936370373,       -0.7114257812,        0.1450195312,        0.0585937500,       -1.8310546875,       -0.2593994141,       -3.0670166016
1489456301.7939190865,1489456301.7963380814,       -0.7114257812,        0.1450195312,        0.0585937500,       -1.8310546875,       -0.2593994141,       -3.0670166016
1489456301.7966210842,1489456301.7990500927,       -0.7202148438,        0.1337890625,        0.0512695312,       -1.7089843750,       -0.5187988281,       -3.5400390625
1489456301.7993330956,1489456301.8017499447,       -0.7202148438,        0.1337890625,        0.0512695312,       -1.7089843750,       -0.5187988281,       -3.5400390625
1489456301.8020319939,1489456301.8044528961,       -0.7202148438,        0.1337890625,        0.0512695312,       -1.3275146484,       -0.5645751953,       -3.6315917969
1489456301.8047339916,1489456301.8071570396,       -0.7202148438,        0.1337890625,        0.0629882812,       -1.3275146484,       -0.5645751953,       -3.6315917969
1489456301.8074378967,1489456301.8098158836,       -0.7221679688,        0.1376953125,        0.0629882812,       -1.2817382812,       -0.4577636719,       -3.7384033203
1489456301.8100900650,1489456301.8123829365,       -0.7221679688,        0.1376953125,        0.0629882812,       -1.2817382812,       -0.4577636719,       -3.7384033203
1489456301.8126559258,1489456301.8149518967,       -0.7221679688,        0.1376953125,        0.0629882812,       -1.5106201172,       -0.7781982422,       -3.6621093750
1489456301.8152248859,1489456301.8175179958,       -0.7221679688,        0.1279296875,        0.0556640625,       -1.5106201172,       -0.7781982422,       -3.6621093750
1489456301.8177909851,1489456301.8201429844,       -0.7265625000,        0.1279296875,        0.0556640625,       -1.8463134766,       -1.0223388672,       -4.0740966797
1489456301.8204169273,1489456301.8227050304,       -0.7265625000,        0.1279296875,        0.0556640625,       -1.8463134766,       -1.0223388672,       -4.0740966797
1489456301.8229799271,1489456301.8252670765,       -0.7265625000,        0.1279296875,        0.0556640625,       -1.6479492188,       -0.6256103516,       -4.0588378906
1489456301.8256480694,1489456301.8279469013,       -0.7270507812,        0.1250000000,        0.0590820312,       -1.6479492188,       -0.6256103516,       -4.0588378906
1489456301.8282220364,1489456301.8306748867,       -0.7270507812,        0.1250000000,        0.0590820312,       -1.1291503906,       -0.6408691406,       -3.3264160156
1489456301.8309500217,1489456301.8332469463,       -0.7270507812,        0.1250000000,        0.0590820312,       -1.1291503906,       -0.6408691406,       -3.3264160156
1489456301.8335208893,1489456301.8358089924,       -0.7270507812,        0.1250000000,        0.0590820312,       -1.1291503906,       -0.5645751953,       -3.7689208984
1489456301.8360819817,1489456301.8383738995,       -0.7270507812,        0.1274414062,        0.0708007812,       -1.3580322266,       -0.5645751953,       -3.7689208984
1489456301.8386468887,1489456301.8410890102,       -0.7270507812,        0.1274414062,        0.0708007812,       -1.3580322266,       -0.5645751953,       -3.7078857422
1489456301.8413710594,1489456301.8437879086,       -0.7270507812,        0.1274414062,        0.0708007812,       -1.3885498047,       -0.6561279297,       -3.7078857422
1489456301.8440709114,1489456301.8464820385,       -0.7270507812,        0.1274414062,        0.0708007812,       -1.3885498047,       -0.6561279297,       -3.6315917969
1489456301.8467640877,1489456301.8492329121,       -0.7241210938,        0.1254882812,        0.0634765625,       -1.1138916016,       -0.9765625000,       -3.6315917969
1489456301.8495140076,1489456301.8519339561,       -0.7241210938,        0.1254882812,        0.0634765625,       -1.1138916016,       -0.9765625000,       -3.5705566406
1489456301.8522150517,1489456301.8546319008,       -0.7241210938,        0.1254882812,        0.0634765625,       -1.0375976562,       -1.0833740234,       -3.5705566406
1489456301.8549120426,1489456301.8573288918,       -0.7241210938,        0.1254882812,        0.0634765625,       -1.0375976562,       -1.0833740234,       -3.9215087891
1489456301.8576099873,1489456301.8600440025,       -0.7299804688,        0.1181640625,        0.0678710938,       -1.2512207031,       -1.0986328125,       -3.9215087891
1489456301.8603260517,1489456301.8627429008,       -0.7299804688,        0.1181640625,        0.0678710938,       -1.2512207031,       -1.0986328125,       -3.9215087891
1489456301.8630259037,1489456301.8654439449,       -0.7299804688,        0.1181640625,        0.0678710938,       -1.3427734375,       -0.7324218750,       -3.9215087891
1489456301.8657250404,1489456301.8681390285,       -0.7299804688,        0.1259765625,        0.0649414062,       -1.3427734375,       -0.7324218750,       -3.1280517578
1489456301.8684198856,1489456301.8709790707,       -0.7275390625,        0.1259765625,        0.0649414062,       -0.9155273438,       -0.3662109375,       -3.1280517578
1489456301.8712630272,1489456301.8736779690,       -0.7275390625,        0.1259765625,        0.0649414062,       -0.9155273438,       -0.3662109375,       -2.4871826172
1489456301.8739590645,1489456301.8763840199,       -0.7275390625,        0.1259765625,        0.0649414062,       -0.8239746094,       -0.6561279297,       -2.4871826172
1489456301.8766660690,1489456301.8790869713,       -0.7207031250,        0.1250000000,        0.0581054688,       -0.8239746094,       -0.6561279297,       -2.3345947266
1489456301.8793630600,1489456301.8816549778,       -0.7207031250,        0.1250000000,        0.0581054688,       -0.6561279297,       -1.0528564453,       -2.3345947266
1489456301.8819310665,1489456301.8842260838,       -0.7207031250,        0.1250000000,        0.0581054688,       -0.6561279297,       -1.0528564453,       -2.5329589844
1489456301.8845000267,1489456301.8869171143,       -0.7207031250,        0.1250000000,        0.0581054688,       -0.7171630859,       -0.8697509766,       -2.5329589844
1489456301.8871951103,1489456301.8902080059,       -0.7197265625,        0.1298828125,        0.0556640625,       -0.7171630859,       -0.8697509766,       -2.4566650391
1489456301.8905971050,1489456301.8928880692,       -0.7197265625,        0.1298828125,        0.0556640625,       -1.0070800781,       -0.3814697266,       -2.4566650391
1489456301.8931629658,1489456301.8954529762,       -0.7197265625,        0.1298828125,        0.0556640625,       -1.0070800781,       -0.3814697266,       -2.4261474609
1489456301.8957269192,1489456301.8980119228,       -0.7197265625,        0.1298828125,        0.0659179688,       -0.7324218750,       -0.0152587891,       -2.4261474609
1489456301.8982861042,1489456301.9006109238,       -0.7231445312,        0.1254882812,        0.0659179688,       -0.7324218750,       -0.0152587891,       -2.3040771484
1489456301.9008870125,1489456301.9031751156,       -0.7231445312,        0.1254882812,        0.0659179688,       -0.5493164062,       -0.3356933594,       -2.3040771484
1489456301.9034490585,1489456301.9057369232,       -0.7231445312,        0.1254882812,        0.0659179688,       -0.5493164062,       -0.3356933594,       -2.3040771484
