time_stamp before, time_stamp after, Acceleration x, Acceleration y, Acceleration z, Gyro x, Gyro y, Gyro z
1489456360.0201809406,1489456360.0324199200,       -0.7187500000,        0.0869140625,        0.0747070312,        7.3547363281,       -1.0375976562,       -3.3569335938
1489456360.0327229500,1489456360.0356199741,       -0.7187500000,        0.0869140625,        0.0747070312,        6.3323974609,       -1.3885498047,       -3.1433105469
1489456360.0359220505,1489456360.0383219719,       -0.7187500000,        0.0869140625,        0.0747070312,        6.3323974609,       -1.3885498047,       -3.0975341797
1489456360.0385999680,1489456360.0411341190,       -0.7187500000,        0.0683593750,        0.0737304688,        4.8980712891,       -1.0528564453,       -3.0975341797
1489456360.0414071083,1489456360.0436971188,       -0.7221679688,        0.0683593750,        0.0737304688,        4.8980712891,       -1.0528564453,       -2.8076171875
1489456360.0439670086,1489456360.0462570190,       -0.7221679688,        0.0683593750,        0.0737304688,        3.4027099609,       -0.8544921875,       -2.8076171875
1489456360.0465281010,1489456360.0488779545,       -0.7221679688,        0.0683593750,        0.0737304688,        3.4027099609,       -0.8544921875,       -2.8076171875
1489456360.0491499901,1489456360.0515270233,       -0.7304687500,        0.0751953125,        0.0712890625,        2.6550292969,       -0.7171630859,       -2.6245117188
1489456360.0517990589,1489456360.0540881157,       -0.7304687500,        0.0751953125,        0.0712890625,        2.6550292969,       -0.7171630859,       -2.6245117188
1489456360.0543580055,1489456360.0566480160,       -0.7304687500,        0.0751953125,        0.0712890625,        3.0059814453,       -0.5645751953,       -2.2888183594
1489456360.0569179058,1489456360.0592739582,       -0.7304687500,        0.0751953125,        0.0712890625,        3.0059814453,       -0.5645751953,       -2.2888183594
1489456360.0596089363,1489456360.0619180202,       -0.7231445312,        0.0600585938,        0.0747070312,        3.0670166016,       -0.6256103516,       -1.6326904297
1489456360.0621900558,1489456360.0644741058,       -0.7231445312,        0.0600585938,        0.0747070312,        3.0670166016,       -0.6256103516,       -1.6326904297
1489456360.0647449493,1489456360.0670280457,       -0.7231445312,        0.0600585938,        0.0747070312,        3.2043457031,       -0.6256103516,       -1.1901855469
1489456360.0673000813,1489456360.0697720051,       -0.7231445312,        0.0600585938,        0.0747070312,        3.2043457031,       -0.6256103516,       -1.1901855469
1489456360.0700669289,1489456360.0723600388,       -0.7416992188,        0.0483398438,        0.0747070312,        3.8452148438,       -0.5645751953,       -0.2593994141
1489456360.0726339817,1489456360.0749130249,       -0.7416992188,        0.0483398438,        0.0747070312,        3.8452148438,       -0.5645751953,       -0.2593994141
1489456360.0751850605,1489456360.0774838924,       -0.7416992188,        0.0483398438,        0.0747070312,        4.1046142578,        0.1525878906,        0.5645751953
1489456360.0777580738,1489456360.0801510811,       -0.7416992188,        0.0483398438,        0.0747070312,        4.1046142578,        0.1525878906,        0.5645751953
1489456360.0804259777,1489456360.0827209949,       -0.7500000000,        0.0283203125,        0.0732421875,        3.1585693359,        0.2441406250,        0.9002685547
1489456360.0829949379,1489456360.0852830410,       -0.7500000000,        0.0283203125,        0.0732421875,        3.1585693359,        0.2441406250,        0.9002685547
1489456360.0855560303,1489456360.0878419876,       -0.7500000000,        0.0283203125,        0.0732421875,        3.1585693359,        0.4425048828,        1.9226074219
1489456360.0881140232,1489456360.0904300213,       -0.7500000000,        0.0283203125,        0.0732421875,        3.2501220703,        0.4425048828,        1.9226074219
1489456360.0907039642,1489456360.0929930210,       -0.7534179688,        0.0502929688,        0.0727539062,        3.2501220703,        0.4425048828,        2.3651123047
1489456360.0934309959,1489456360.0957190990,       -0.7534179688,        0.0502929688,        0.0727539062,        3.4637451172,        1.2207031250,        2.3651123047
1489456360.0959930420,1489456360.0982859135,       -0.7534179688,        0.0502929688,        0.0727539062,        3.4637451172,        1.2207031250,        1.6784667969
1489456360.0985610485,1489456360.1009559631,       -0.7534179688,        0.0502929688,        0.0688476562,        3.7231445312,        1.8005371094,        1.6784667969
1489456360.1012349129,1489456360.1036410332,       -0.7685546875,        0.0751953125,        0.0688476562,        3.7231445312,        1.8005371094,        1.4190673828
1489456360.1039199829,1489456360.1063189507,       -0.7685546875,        0.0751953125,        0.0688476562,        5.9967041016,        2.2277832031,        1.4190673828
1489456360.1065959930,1489456360.1090409756,       -0.7685546875,        0.0751953125,        0.0688476562,        5.9967041016,        2.2277832031,        0.8697509766
1489456360.1093189716,1489456360.1117069721,       -0.6435546875,        0.1147460938,        0.0473632812,        8.0566406250,        1.6784667969,        0.8697509766
1489456360.1119859219,1489456360.1144130230,       -0.7490234375,        0.1147460938,        0.0473632812,        8.0566406250,        1.6784667969,        0.2441406250
1489456360.1146960258,1489456360.1170930862,       -0.7490234375,        0.1147460938,        0.0473632812,       10.2691650391,        0.9918212891,        0.2441406250
1489456360.1173779964,1489456360.1198239326,       -0.7490234375,        0.1147460938,        0.0473632812,       10.2691650391,        0.9918212891,       -0.3051757812
1489456360.1201090813,1489456360.1225070953,       -0.7436523438,        0.1103515625,        0.0493164062,       11.9476318359,        0.5798339844,       -0.3051757812
1489456360.1227900982,1489456360.1251940727,       -0.7436523438,        0.1103515625,        0.0493164062,       11.9476318359,        0.5798339844,       -0.3051757812
1489456360.1254780293,1489456360.1278760433,       -0.7436523438,        0.1103515625,        0.0493164062,       13.9312744141,        0.1220703125,       -0.2899169922
1489456360.1281630993,1489456360.1305809021,       -0.7436523438,        0.1103515625,        0.0493164062,       13.9312744141,        0.1220703125,       -0.2899169922
1489456360.1308679581,1489456360.1332941055,       -0.7290039062,        0.1054687500,        0.0688476562,       15.8081054688,       -0.1678466797,       -0.4425048828
1489456360.1335809231,1489456360.1359939575,       -0.7290039062,        0.1054687500,        0.0688476562,       15.8081054688,       -0.1678466797,       -0.4425048828
1489456360.1362810135,1489456360.1386959553,       -0.7290039062,        0.1054687500,        0.0688476562,       15.3045654297,       -0.2746582031,       -0.5187988281
1489456360.1389811039,1489456360.1414000988,       -0.7290039062,        0.1054687500,        0.0615234375,       15.3045654297,       -0.2746582031,       -0.5187988281
1489456360.1416881084,1489456360.1441020966,       -0.7338867188,        0.0727539062,        0.0615234375,       14.7705078125,       -0.2136230469,       -0.6256103516
1489456360.1443901062,1489456360.1468110085,       -0.7338867188,        0.0727539062,        0.0615234375,       14.7705078125,       -0.2136230469,       -0.6256103516
1489456360.1470971107,1489456360.1495230198,       -0.7338867188,        0.0727539062,        0.0615234375,       14.1906738281,       -0.5340576172,       -0.6408691406
1489456360.1498088837,1489456360.1522240639,       -0.7329101562,        0.0727539062,        0.0556640625,       14.1906738281,       -0.5340576172,       -0.6408691406
1489456360.1525099277,1489456360.1549279690,       -0.7329101562,        0.0727539062,        0.0556640625,       14.0228271484,       -0.2593994141,       -0.5340576172
1489456360.1552159786,1489456360.1576340199,       -0.7329101562,        0.0727539062,        0.0556640625,       14.0228271484,       -0.2593994141,       -0.5340576172
1489456360.1580328941,1489456360.1604619026,       -0.7329101562,        0.0727539062,        0.0556640625,       13.7023925781,       -0.9307861328,       -0.2746582031
1489456360.1607480049,1489456360.1631679535,       -0.7182617188,        0.0957031250,        0.0571289062,       13.7023925781,       -0.9307861328,       -0.2746582031
1489456360.1634540558,1489456360.1658689976,       -0.7182617188,        0.0957031250,        0.0571289062,       15.1214599609,       -1.1749267578,       -1.0528564453
1489456360.1661550999,1489456360.1685729027,       -0.7182617188,        0.0957031250,        0.0571289062,       15.1214599609,       -1.1749267578,       -1.0528564453
1489456360.1688680649,1489456360.1711609364,       -0.7182617188,        0.0957031250,        0.0571289062,       15.7775878906,       -0.9307861328,       -1.7852783203
1489456360.1714398861,1489456360.1737329960,       -0.7392578125,        0.0903320312,        0.0605468750,       15.7775878906,       -0.9307861328,       -1.7852783203
1489456360.1740119457,1489456360.1763079166,       -0.7392578125,        0.0903320312,        0.0605468750,       15.1824951172,       -0.0915527344,       -1.1749267578
1489456360.1765880585,1489456360.1788818836,       -0.7392578125,        0.0903320312,        0.0605468750,       15.1824951172,       -0.0915527344,       -1.1749267578
1489456360.1791648865,1489456360.1815381050,       -0.7392578125,        0.0903320312,        0.0673828125,       13.8549804688,        0.0000000000,       -0.6256103516
1489456360.1818199158,1489456360.1842079163,       -0.7333984375,        0.0712890625,        0.0673828125,       13.8549804688,        0.0000000000,       -0.6256103516
1489456360.1844909191,1489456360.1868689060,       -0.7333984375,        0.0712890625,        0.0673828125,       12.4206542969,        0.1983642578,       -0.4882812500
1489456360.1871519089,1489456360.1895499229,       -0.7333984375,        0.0712890625,        0.0673828125,       12.4206542969,        0.1983642578,       -0.4882812500
1489456360.1898369789,1489456360.1922550201,       -0.7333984375,        0.0566406250,        0.0761718750,       10.7421875000,        0.7019042969,       -0.2136230469
1489456360.1925420761,1489456360.1949610710,       -0.7324218750,        0.0566406250,        0.0761718750,       10.7421875000,        0.7019042969,       -0.2136230469
1489456360.1952490807,1489456360.1976649761,       -0.7324218750,        0.0566406250,        0.0761718750,        8.5754394531,        0.5493164062,       -0.0152587891
1489456360.1979470253,1489456360.2003600597,       -0.7324218750,        0.0566406250,        0.0761718750,        8.5754394531,        0.5493164062,       -0.0152587891
1489456360.2006430626,1489456360.2030589581,       -0.7363281250,        0.0888671875,        0.0693359375,        7.6599121094,        0.7019042969,       -0.1678466797
1489456360.2033410072,1489456360.2057600021,       -0.7363281250,        0.0888671875,        0.0693359375,        7.6599121094,        0.7019042969,       -0.1678466797
1489456360.2060410976,1489456360.2084550858,       -0.7363281250,        0.0888671875,        0.0693359375,        7.8277587891,        0.6561279297,       -0.2288818359
1489456360.2087380886,1489456360.2111580372,       -0.7363281250,        0.0888671875,        0.0693359375,        7.8277587891,        0.6561279297,       -0.2288818359
1489456360.2114400864,1489456360.2138540745,       -0.7333984375,        0.1025390625,        0.0742187500,        9.3383789062,        0.3662109375,       -0.3509521484
1489456360.2141370773,1489456360.2165520191,       -0.7333984375,        0.1025390625,        0.0742187500,        9.3383789062,        0.3662109375,       -0.3509521484
1489456360.2168340683,1489456360.2192449570,       -0.7333984375,        0.1025390625,        0.0742187500,       10.1318359375,        0.1525878906,       -0.5645751953
1489456360.2195239067,1489456360.2218151093,       -0.7333984375,        0.1025390625,        0.0742187500,       10.1318359375,        0.1525878906,       -0.5645751953
1489456360.2222020626,1489456360.2244989872,       -0.7280273438,        0.1127929688,        0.0688476562,       11.1694335938,        0.1373291016,       -0.6256103516
1489456360.2247788906,1489456360.2270729542,       -0.7280273438,        0.1127929688,        0.0688476562,       11.1694335938,        0.1373291016,       -0.6256103516
1489456360.2273530960,1489456360.2297050953,       -0.7280273438,        0.1127929688,        0.0688476562,       11.2609863281,       -0.0305175781,       -1.0681152344
1489456360.2299919128,1489456360.2324130535,       -0.7280273438,        0.1127929688,        0.0659179688,       11.2609863281,       -0.0305175781,       -1.0681152344
1489456360.2327001095,1489456360.2351169586,       -0.7045898438,        0.1005859375,        0.0659179688,       11.3983154297,       -0.4577636719,       -1.7242431641
1489456360.2354040146,1489456360.2378149033,       -0.7045898438,        0.1005859375,        0.0659179688,       11.3983154297,       -0.4577636719,       -1.7242431641
1489456360.2381019592,1489456360.2405378819,       -0.7045898438,        0.1005859375,        0.0659179688,       11.0168457031,       -0.7324218750,       -2.5177001953
1489456360.2408249378,1489456360.2432329655,       -0.6982421875,        0.1137695312,        0.0649414062,       11.0168457031,       -0.7324218750,       -2.5177001953
1489456360.2435200214,1489456360.2459330559,       -0.6982421875,        0.1137695312,        0.0649414062,       10.7574462891,       -0.9918212891,       -3.1433105469
1489456360.2462201118,1489456360.2486360073,       -0.6982421875,        0.1137695312,        0.0649414062,       10.7574462891,       -0.9918212891,       -3.1433105469
1489456360.2489309311,1489456360.2513470650,       -0.6982421875,        0.1137695312,        0.0649414062,        9.8571777344,       -0.5493164062,       -3.2501220703
1489456360.2516291142,1489456360.2540509701,       -0.7089843750,        0.1064453125,        0.0698242188,        9.8571777344,       -0.5493164062,       -3.2501220703
1489456360.2543330193,1489456360.2567470074,       -0.7089843750,        0.1064453125,        0.0698242188,        9.8571777344,       -0.4119873047,       -3.4179687500
1489456360.2570319176,1489456360.2594571114,       -0.7089843750,        0.1064453125,        0.0698242188,        9.2926025391,       -0.4119873047,       -3.4179687500
1489456360.2597401142,1489456360.2621560097,       -0.7089843750,        0.1064453125,        0.0698242188,        9.2926025391,       -0.2899169922,       -4.1046142578
1489456360.2624380589,1489456360.2648580074,       -0.7070312500,        0.1083984375,        0.0795898438,        8.8043212891,       -0.2899169922,       -4.1046142578
1489456360.2651410103,1489456360.2675600052,       -0.7070312500,        0.1083984375,        0.0795898438,        8.8043212891,       -0.1525878906,       -5.4473876953
1489456360.2678420544,1489456360.2702050209,       -0.7070312500,        0.1083984375,        0.0795898438,        8.1024169922,       -0.1525878906,       -5.4473876953
1489456360.2704799175,1489456360.2727699280,       -0.7070312500,        0.1083984375,        0.0747070312,        8.1024169922,       -0.2288818359,       -5.9509277344
1489456360.2730469704,1489456360.2753450871,       -0.7163085938,        0.1083984375,        0.0747070312,        7.7819824219,       -0.2288818359,       -5.9509277344
1489456360.2756190300,1489456360.2779150009,       -0.7163085938,        0.1083984375,        0.0747070312,        7.7819824219,       -0.2288818359,       -6.6223144531
1489456360.2781889439,1489456360.2805759907,       -0.7163085938,        0.1083984375,        0.0747070312,        7.9193115234,       -0.5493164062,       -6.6223144531
1489456360.2808589935,1489456360.2832839489,       -0.7163085938,        0.0888671875,        0.0717773438,        7.9193115234,       -0.5493164062,       -7.3547363281
1489456360.2835640907,1489456360.2859809399,       -0.7202148438,        0.0888671875,        0.0717773438,        7.6751708984,       -0.3662109375,       -7.3547363281
1489456360.2863700390,1489456360.2888290882,       -0.7202148438,        0.0888671875,        0.0717773438,        7.6751708984,       -0.3662109375,       -7.6751708984
1489456360.2891120911,1489456360.2915289402,       -0.7202148438,        0.0888671875,        0.0717773438,        6.9122314453,        0.2136230469,       -7.6751708984
1489456360.2918100357,1489456360.2942230701,       -0.7397460938,        0.0834960938,        0.0712890625,        6.9122314453,        0.2136230469,       -8.0413818359
1489456360.2945039272,1489456360.2969219685,       -0.7397460938,        0.0834960938,        0.0712890625,        5.9356689453,        0.5187988281,       -8.0413818359
1489456360.2972030640,1489456360.2996330261,       -0.7397460938,        0.0834960938,        0.0712890625,        5.9356689453,        0.5187988281,       -7.7056884766
1489456360.2999160290,1489456360.3023300171,       -0.7397460938,        0.0834960938,        0.0712890625,        5.5389404297,        0.9307861328,       -7.7056884766
1489456360.3026099205,1489456360.3050260544,       -0.7265625000,        0.0800781250,        0.0717773438,        5.5389404297,        0.9307861328,       -7.6446533203
1489456360.3053069115,1489456360.3077180386,       -0.7265625000,        0.0800781250,        0.0717773438,        4.7149658203,        0.9460449219,       -7.6446533203
1489456360.3079988956,1489456360.3104519844,       -0.7265625000,        0.0800781250,        0.0717773438,        4.7149658203,        0.9460449219,       -7.4157714844
1489456360.3107330799,1489456360.3131549358,       -0.7265625000,        0.0800781250,        0.0639648438,        3.7689208984,        0.5645751953,       -7.4157714844
1489456360.3134379387,1489456360.3158531189,       -0.7324218750,        0.0766601562,        0.0639648438,        3.7689208984,        0.5645751953,       -7.3089599609
1489456360.3161330223,1489456360.3185489178,       -0.7324218750,        0.0766601562,        0.0639648438,        4.0740966797,        0.6866455078,       -7.3089599609
1489456360.3188378811,1489456360.3211278915,       -0.7324218750,        0.0766601562,        0.0639648438,        4.0740966797,        0.6866455078,       -7.3089599609
1489456360.3213999271,1489456360.3236908913,       -0.7324218750,        0.0888671875,        0.0532226562,        4.2419433594,        0.4425048828,       -7.1105957031
1489456360.3239641190,1489456360.3262610435,       -0.7172851562,        0.0888671875,        0.0532226562,        4.2419433594,        0.4425048828,       -7.1105957031
1489456360.3265340328,1489456360.3288650513,       -0.7172851562,        0.0888671875,        0.0532226562,        4.6539306641,        0.2288818359,       -7.2174072266
1489456360.3291471004,1489456360.3315639496,       -0.7172851562,        0.0888671875,        0.0532226562,        4.6539306641,        0.2288818359,       -7.2174072266
1489456360.3318450451,1489456360.3342659473,       -0.7099609375,        0.0908203125,        0.0488281250,        4.6234130859,       -0.0457763672,       -7.2937011719
1489456360.3345470428,1489456360.3369588852,       -0.7099609375,        0.0908203125,        0.0488281250,        4.6234130859,       -0.0457763672,       -7.2937011719
1489456360.3372390270,1489456360.3396720886,       -0.7099609375,        0.0908203125,        0.0488281250,        5.2185058594,       -0.3814697266,       -7.6141357422
1489456360.3399538994,1489456360.3423678875,       -0.7099609375,        0.0908203125,        0.0488281250,        5.2185058594,       -0.3814697266,       -7.6141357422
1489456360.3426480293,1489456360.3450629711,       -0.7089843750,        0.0908203125,        0.0654296875,        5.2185058594,       -0.4882812500,       -8.0413818359
1489456360.3453459740,1489456360.3477609158,       -0.7089843750,        0.0908203125,        0.0654296875,        5.2185058594,       -0.4882812500,       -8.0413818359
1489456360.3480439186,1489456360.3504669666,       -0.7089843750,        0.0908203125,        0.0654296875,        4.8522949219,       -0.5798339844,       -8.3007812500
1489456360.3508560658,1489456360.3532679081,       -0.7089843750,        0.0908203125,        0.0571289062,        4.8522949219,       -0.5798339844,       -8.3007812500
1489456360.3535499573,1489456360.3559689522,       -0.7089843750,        0.0976562500,        0.0571289062,        4.6234130859,       -0.8697509766,       -8.1787109375
1489456360.3562510014,1489456360.3586640358,       -0.7089843750,        0.0976562500,        0.0571289062,        4.6234130859,       -0.8697509766,       -8.1787109375
1489456360.3589539528,1489456360.3613729477,       -0.7089843750,        0.0976562500,        0.0571289062,        4.6691894531,       -0.7629394531,       -8.1787109375
1489456360.3616559505,1489456360.3640708923,       -0.7089843750,        0.0927734375,        0.0878906250,        4.6691894531,       -0.7629394531,       -8.1787109375
1489456360.3643529415,1489456360.3667669296,       -0.7045898438,        0.0927734375,        0.0878906250,        4.8675537109,       -0.8697509766,       -8.4381103516
1489456360.3670480251,1489456360.3694500923,       -0.7045898438,        0.0927734375,        0.0878906250,        4.8675537109,       -0.8697509766,       -8.4381103516
1489456360.3697249889,1489456360.3720130920,       -0.7045898438,        0.0927734375,        0.0878906250,        5.8135986328,       -1.0528564453,       -8.9111328125
1489456360.3722860813,1489456360.3745760918,       -0.7041015625,        0.0898437500,        0.0917968750,        5.8135986328,       -1.0528564453,       -8.9111328125
1489456360.3748490810,1489456360.3771469593,       -0.7041015625,        0.0898437500,        0.0917968750,        6.7596435547,       -0.9918212891,       -8.9111328125
1489456360.3774209023,1489456360.3797659874,       -0.7041015625,        0.0898437500,        0.0917968750,        6.7596435547,       -0.9918212891,       -8.9111328125
1489456360.3800480366,1489456360.3824689388,       -0.7041015625,        0.0898437500,        0.0917968750,        7.6293945312,       -0.8087158203,       -9.2468261719
1489456360.3827519417,1489456360.3851680756,       -0.7026367188,        0.0644531250,        0.0898437500,        7.6293945312,       -0.8087158203,       -9.2468261719
1489456360.3854520321,1489456360.3878660202,       -0.7026367188,        0.0644531250,        0.0898437500,        7.1868896484,       -0.4577636719,       -9.5825195312
1489456360.3881499767,1489456360.3905680180,       -0.7026367188,        0.0644531250,        0.0898437500,        7.1868896484,       -0.4577636719,       -9.5825195312
1489456360.3908510208,1489456360.3932631016,       -0.7026367188,        0.0644531250,        0.0898437500,        6.4239501953,       -0.0457763672,       -8.8958740234
1489456360.3935461044,1489456360.3959589005,       -0.7153320312,        0.0493164062,        0.0966796875,        6.4239501953,       -0.0457763672,       -8.8958740234
1489456360.3962409496,1489456360.3986589909,       -0.7153320312,        0.0493164062,        0.0966796875,        5.3253173828,        0.0000000000,       -8.5906982422
1489456360.3989500999,1489456360.4013659954,       -0.7153320312,        0.0493164062,        0.0966796875,        5.3253173828,        0.0000000000,       -8.5906982422
1489456360.4016499519,1489456360.4040720463,       -0.7153320312,        0.0493164062,        0.0864257812,        4.5776367188,        0.2136230469,       -8.5449218750
1489456360.4043540955,1489456360.4067718983,       -0.7221679688,        0.0615234375,        0.0864257812,        4.5776367188,        0.2136230469,       -8.5449218750
1489456360.4070539474,1489456360.4094829559,       -0.7221679688,        0.0615234375,        0.0864257812,        4.0435791016,        0.3814697266,       -8.3160400391
1489456360.4097640514,1489456360.4121830463,       -0.7221679688,        0.0615234375,        0.0864257812,        4.0435791016,        0.3814697266,       -8.3160400391
1489456360.4124660492,1489456360.4148800373,       -0.7304687500,        0.0644531250,        0.0756835938,        2.9907226562,        0.9155273438,       -8.1176757812
1489456360.4152619839,1489456360.4176781178,       -0.7304687500,        0.0644531250,        0.0756835938,        2.9907226562,        0.9155273438,       -8.1176757812
1489456360.4179608822,1489456360.4203019142,       -0.7304687500,        0.0644531250,        0.0756835938,        2.3498535156,        0.9307861328,       -8.2855224609
1489456360.4205770493,1489456360.4228680134,       -0.7304687500,        0.0644531250,        0.0756835938,        2.3498535156,        0.9307861328,       -8.2855224609
1489456360.4231419563,1489456360.4254360199,       -0.7246093750,        0.0815429688,        0.0507812500,        2.3498535156,        0.5950927734,       -8.6059570312
1489456360.4257099628,1489456360.4280030727,       -0.7246093750,        0.0815429688,        0.0507812500,        2.2888183594,        0.5950927734,       -8.6059570312
1489456360.4282779694,1489456360.4306869507,       -0.7246093750,        0.0815429688,        0.0507812500,        2.2888183594,        0.4425048828,       -8.3618164062
1489456360.4309699535,1489456360.4333879948,       -0.7246093750,        0.0815429688,        0.0507812500,        2.0904541016,        0.4425048828,       -8.3618164062
1489456360.4336690903,1489456360.4360830784,       -0.7207031250,        0.0810546875,        0.0380859375,        2.0904541016,        0.4425048828,       -8.2244873047
1489456360.4363639355,1489456360.4387791157,       -0.7207031250,        0.0810546875,        0.0380859375,        2.7160644531,        0.2288818359,       -8.2244873047
1489456360.4391050339,1489456360.4415280819,       -0.7207031250,        0.0810546875,        0.0380859375,        2.7160644531,        0.2288818359,       -7.8125000000
1489456360.4418079853,1489456360.4442238808,       -0.7207031250,        0.0810546875,        0.0458984375,        2.6550292969,        0.2288818359,       -7.8125000000
1489456360.4445040226,1489456360.4469199181,       -0.7338867188,        0.0678710938,        0.0458984375,        2.6550292969,        0.2288818359,       -7.6141357422
1489456360.4472010136,1489456360.4496300220,       -0.7338867188,        0.0678710938,        0.0458984375,        2.6855468750,        0.2899169922,       -7.6141357422
1489456360.4499120712,1489456360.4523289204,       -0.7338867188,        0.0678710938,        0.0458984375,        2.6855468750,        0.2899169922,       -7.7362060547
1489456360.4526100159,1489456360.4550290108,       -0.7338867188,        0.0688476562,        0.0629882812,        2.7618408203,        0.0000000000,       -7.7362060547
1489456360.4553101063,1489456360.4577229023,       -0.7324218750,        0.0688476562,        0.0629882812,        2.7618408203,        0.0000000000,       -7.4768066406
1489456360.4580039978,1489456360.4604609013,       -0.7324218750,        0.0688476562,        0.0629882812,        2.9754638672,        0.1068115234,       -7.4768066406
1489456360.4607410431,1489456360.4631628990,       -0.7324218750,        0.0688476562,        0.0629882812,        2.9754638672,        0.1068115234,       -7.1105957031
1489456360.4634449482,1489456360.4658610821,       -0.7436523438,        0.0664062500,        0.0673828125,        2.7770996094,        0.4577636719,       -7.1105957031
1489456360.4661409855,1489456360.4685630798,       -0.7436523438,        0.0664062500,        0.0673828125,        2.7770996094,        0.4577636719,       -7.2631835938
1489456360.4688529968,1489456360.4711420536,       -0.7436523438,        0.0664062500,        0.0673828125,        2.2583007812,        0.5950927734,       -7.2631835938
1489456360.4714159966,1489456360.4737050533,       -0.7436523438,        0.0664062500,        0.0673828125,        2.2583007812,        0.5950927734,       -6.8511962891
1489456360.4739789963,1489456360.4762709141,       -0.7324218750,        0.0541992188,        0.0581054688,        2.3345947266,        0.9918212891,       -6.8511962891
1489456360.4765429497,1489456360.4788908958,       -0.7324218750,        0.0541992188,        0.0581054688,        2.3345947266,        0.9918212891,       -6.8511962891
1489456360.4791719913,1489456360.4815831184,       -0.7324218750,        0.0541992188,        0.0581054688,        2.5329589844,        1.0070800781,       -6.2103271484
1489456360.4819691181,1489456360.4843890667,       -0.7324218750,        0.0541992188,        0.0581054688,        2.5329589844,        1.0070800781,       -6.2103271484
1489456360.4846680164,1489456360.4870839119,       -0.7373046875,        0.0410156250,        0.0771484375,        2.5939941406,        1.0070800781,       -5.6762695312
1489456360.4873640537,1489456360.4898209572,       -0.7373046875,        0.0410156250,        0.0771484375,        2.5939941406,        1.0070800781,       -5.6762695312
1489456360.4901010990,1489456360.4925179482,       -0.7373046875,        0.0410156250,        0.0771484375,        2.9907226562,        1.3122558594,       -5.2795410156
1489456360.4927980900,1489456360.4952158928,       -0.7373046875,        0.0444335938,        0.0693359375,        2.9907226562,        1.3122558594,       -5.2795410156
1489456360.4954950809,1489456360.4979140759,       -0.7421875000,        0.0444335938,        0.0693359375,        2.5787353516,        1.2054443359,       -4.7302246094
1489456360.4981939793,1489456360.5006539822,       -0.7421875000,        0.0444335938,        0.0693359375,        2.5787353516,        1.2054443359,       -4.7302246094
1489456360.5009350777,1489456360.5033450127,       -0.7421875000,        0.0444335938,        0.0693359375,        2.5024414062,        1.6326904297,       -4.5318603516
1489456360.5036239624,1489456360.5060400963,       -0.7436523438,        0.0507812500,        0.0776367188,        2.5024414062,        1.6326904297,       -4.5318603516
1489456360.5063199997,1489456360.5087370872,       -0.7436523438,        0.0507812500,        0.0776367188,        2.4566650391,        1.8615722656,       -4.6691894531
1489456360.5090680122,1489456360.5114929676,       -0.7436523438,        0.0507812500,        0.0776367188,        2.4566650391,        1.8615722656,       -4.6691894531
1489456360.5117740631,1489456360.5141849518,       -0.7436523438,        0.0507812500,        0.0776367188,        2.3498535156,        2.0599365234,       -4.7607421875
1489456360.5144660473,1489456360.5168800354,       -0.7485351562,        0.0712890625,        0.0639648438,        2.3498535156,        2.0599365234,       -4.7607421875
1489456360.5171589851,1489456360.5195860863,       -0.7485351562,        0.0712890625,        0.0639648438,        2.7008056641,        2.2888183594,       -4.7760009766
1489456360.5198578835,1489456360.5221469402,       -0.7485351562,        0.0712890625,        0.0639648438,        2.7008056641,        2.2888183594,       -4.7760009766
1489456360.5224208832,1489456360.5247099400,       -0.7485351562,        0.0712890625,        0.0639648438,        3.4484863281,        2.1972656250,       -4.8065185547
1489456360.5249819756,1489456360.5272810459,       -0.7387695312,        0.0703125000,        0.0615234375,        3.4484863281,        2.1972656250,       -4.8065185547
1489456360.5275530815,1489456360.5299239159,       -0.7387695312,        0.0703125000,        0.0615234375,        3.7536621094,        2.1362304688,       -4.6081542969
1489456360.5302040577,1489456360.5326321125,       -0.7387695312,        0.0703125000,        0.0615234375,        3.7536621094,        2.1362304688,       -4.6081542969
1489456360.5329120159,1489456360.5353190899,       -0.7387695312,        0.0703125000,        0.0620117188,        4.1046142578,        2.0904541016,       -4.8828125000
1489456360.5355989933,1489456360.5380089283,       -0.7211914062,        0.0751953125,        0.0620117188,        4.1046142578,        2.0904541016,       -4.8828125000
1489456360.5382900238,1489456360.5407190323,       -0.7211914062,        0.0751953125,        0.0620117188,        4.6691894531,        2.1057128906,       -5.6610107422
1489456360.5409970284,1489456360.5434100628,       -0.7211914062,        0.0751953125,        0.0620117188,        4.6691894531,        2.1057128906,       -5.6610107422
1489456360.5436899662,1489456360.5461039543,       -0.7211914062,        0.0610351562,        0.0698242188,        5.3863525391,        2.4261474609,       -5.1422119141
1489456360.5464899540,1489456360.5489199162,       -0.7304687500,        0.0610351562,        0.0698242188,        5.3863525391,        2.4261474609,       -5.1422119141
1489456360.5492010117,1489456360.5516130924,       -0.7304687500,        0.0610351562,        0.0698242188,        5.7983398438,        2.3498535156,       -4.8370361328
1489456360.5518910885,1489456360.5543100834,       -0.7304687500,        0.0610351562,        0.0698242188,        5.7983398438,        2.3498535156,       -4.8370361328
1489456360.5545890331,1489456360.5570030212,       -0.7202148438,        0.0590820312,        0.0595703125,        5.8135986328,        2.1972656250,       -4.7302246094
1489456360.5572841167,1489456360.5597081184,       -0.7202148438,        0.0590820312,        0.0595703125,        5.8135986328,        2.1972656250,       -4.7302246094
1489456360.5599899292,1489456360.5624070168,       -0.7202148438,        0.0590820312,        0.0595703125,        5.2795410156,        1.8920898438,       -4.5776367188
1489456360.5626869202,1489456360.5650990009,       -0.7202148438,        0.0590820312,        0.0595703125,        5.2795410156,        1.8920898438,       -4.5776367188
1489456360.5653800964,1489456360.5677928925,       -0.7231445312,        0.0639648438,        0.0634765625,        5.5084228516,        1.8463134766,       -4.7302246094
1489456360.5680720806,1489456360.5704228878,       -0.7231445312,        0.0639648438,        0.0634765625,        5.5084228516,        1.8463134766,       -4.7302246094
1489456360.5706949234,1489456360.5729858875,       -0.7231445312,        0.0639648438,        0.0634765625,        6.1645507812,        1.8920898438,       -4.6386718750
1489456360.5732579231,1489456360.5755538940,       -0.7231445312,        0.0639648438,        0.0585937500,        6.1645507812,        1.8920898438,       -4.6386718750
1489456360.5758268833,1489456360.5781199932,       -0.7255859375,        0.0537109375,        0.0585937500,        6.4239501953,        1.8005371094,       -4.9285888672
1489456360.5783929825,1489456360.5808339119,       -0.7255859375,        0.0537109375,        0.0585937500,        6.4239501953,        1.8005371094,       -4.9285888672
1489456360.5811119080,1489456360.5835289955,       -0.7255859375,        0.0537109375,        0.0585937500,        5.9204101562,        1.9226074219,       -4.6691894531
1489456360.5838088989,1489456360.5862181187,       -0.7255859375,        0.0566406250,        0.0546875000,        5.9204101562,        1.9226074219,       -4.6691894531
1489456360.5864980221,1489456360.5889220238,       -0.7304687500,        0.0566406250,        0.0546875000,        5.5389404297,        2.3498535156,       -4.2419433594
1489456360.5892019272,1489456360.5916280746,       -0.7304687500,        0.0566406250,        0.0546875000,        5.5389404297,        2.3498535156,       -4.2419433594
1489456360.5919079781,1489456360.5943260193,       -0.7304687500,        0.0566406250,        0.0546875000,        5.2642822266,        2.1667480469,       -3.9367675781
1489456360.5946080685,1489456360.5970261097,       -0.7333984375,        0.0517578125,        0.0561523438,        5.2642822266,        2.1667480469,       -3.9367675781
1489456360.5973041058,1489456360.5997319221,       -0.7333984375,        0.0517578125,        0.0561523438,        5.2642822266,        2.2277832031,       -3.8604736328
1489456360.6000111103,1489456360.6024270058,       -0.7333984375,        0.0517578125,        0.0561523438,        5.4168701172,        2.2277832031,       -3.8604736328
1489456360.6027059555,1489456360.6051230431,       -0.7333984375,        0.0517578125,        0.0561523438,        5.4168701172,        2.0446777344,       -4.1351318359
1489456360.6054029465,1489456360.6078150272,       -0.7363281250,        0.0468750000,        0.0712890625,        5.7525634766,        2.0446777344,       -4.1351318359
1489456360.6080958843,1489456360.6104350090,       -0.7363281250,        0.0468750000,        0.0712890625,        5.7525634766,        2.0294189453,       -3.8909912109
1489456360.6108109951,1489456360.6131100655,       -0.7363281250,        0.0468750000,        0.0712890625,        5.7983398438,        2.0294189453,       -3.8909912109
1489456360.6133840084,1489456360.6156721115,       -0.7363281250,        0.0468750000,        0.0712890625,        5.7983398438,        2.0294189453,       -4.0130615234
1489456360.6159451008,1489456360.6182410717,       -0.7368164062,        0.0522460938,        0.0664062500,        6.2255859375,        1.8463134766,       -4.0130615234
1489456360.6185140610,1489456360.6209290028,       -0.7368164062,        0.0522460938,        0.0664062500,        6.2255859375,        1.8463134766,       -4.1198730469
1489456360.6212100983,1489456360.6236228943,       -0.7368164062,        0.0522460938,        0.0664062500,        6.1798095703,        2.0294189453,       -4.1198730469
1489456360.6239030361,1489456360.6263210773,       -0.7368164062,        0.0522460938,        0.0639648438,        6.1798095703,        2.0294189453,       -4.6234130859
1489456360.6266000271,1489456360.6290569305,       -0.7226562500,        0.0629882812,        0.0639648438,        5.4473876953,        2.2430419922,       -4.6234130859
1489456360.6293361187,1489456360.6317520142,       -0.7226562500,        0.0629882812,        0.0639648438,        5.4473876953,        2.2430419922,       -4.8522949219
1489456360.6320319176,1489456360.6344559193,       -0.7226562500,        0.0629882812,        0.0639648438,        5.3710937500,        2.7770996094,       -4.8522949219
1489456360.6347370148,1489456360.6371550560,       -0.7231445312,        0.0693359375,        0.0463867188,        5.3710937500,        2.7770996094,       -4.9743652344
1489456360.6374340057,1489456360.6398670673,       -0.7231445312,        0.0693359375,        0.0463867188,        5.4016113281,        2.7160644531,       -4.9743652344
1489456360.6401450634,1489456360.6425590515,       -0.7231445312,        0.0693359375,        0.0463867188,        5.4016113281,        2.7160644531,       -5.1727294922
1489456360.6428389549,1489456360.6452620029,       -0.7231445312,        0.0693359375,        0.0463867188,        5.6762695312,        2.6245117188,       -5.1727294922
1489456360.6455419064,1489456360.6479659081,       -0.7231445312,        0.0722656250,        0.0556640625,        5.6762695312,        2.6245117188,       -5.3100585938
1489456360.6482479572,1489456360.6506719589,       -0.7231445312,        0.0722656250,        0.0556640625,        5.4779052734,        2.5177001953,       -5.3100585938
1489456360.6509521008,1489456360.6533679962,       -0.7231445312,        0.0722656250,        0.0556640625,        5.4779052734,        2.5177001953,       -4.8370361328
1489456360.6536469460,1489456360.6560690403,       -0.7231445312,        0.0722656250,        0.0556640625,        5.4016113281,        2.7160644531,       -4.8370361328
1489456360.6563498974,1489456360.6587660313,       -0.7216796875,        0.0634765625,        0.0556640625,        5.4016113281,        2.7160644531,       -4.8370361328
1489456360.6590869427,1489456360.6613850594,       -0.7216796875,        0.0634765625,        0.0556640625,        5.0964355469,        2.9602050781,       -4.2419433594
1489456360.6616580486,1489456360.6639530659,       -0.7216796875,        0.0634765625,        0.0556640625,        5.0964355469,        2.9602050781,       -4.2419433594
1489456360.6642260551,1489456360.6665220261,       -0.7216796875,        0.0634765625,        0.0761718750,        4.3182373047,        3.2806396484,       -3.9520263672
1489456360.6667940617,1489456360.6691029072,       -0.7163085938,        0.0249023438,        0.0761718750,        4.3182373047,        3.2806396484,       -3.9520263672
1489456360.6693749428,1489456360.6716670990,       -0.7163085938,        0.0249023438,        0.0761718750,        3.8452148438,        3.2348632812,       -4.0893554688
1489456360.6719400883,1489456360.6742260456,       -0.7163085938,        0.0249023438,        0.0761718750,        3.8452148438,        3.2348632812,       -4.0893554688
1489456360.6746039391,1489456360.6768970490,       -0.7163085938,        0.0566406250,        0.0869140625,        3.5705566406,        3.4179687500,       -3.9215087891
1489456360.6771709919,1489456360.6796588898,       -0.7294921875,        0.0566406250,        0.0869140625,        3.5705566406,        3.4179687500,       -3.9215087891
1489456360.6799349785,1489456360.6822259426,       -0.7294921875,        0.0566406250,        0.0869140625,        3.6773681641,        3.5552978516,       -4.0588378906
1489456360.6824989319,1489456360.6847860813,       -0.7294921875,        0.0566406250,        0.0869140625,        3.6773681641,        3.5552978516,       -4.0588378906
1489456360.6850590706,1489456360.6873490810,       -0.7294921875,        0.0585937500,        0.0688476562,        4.4860839844,        4.0130615234,       -4.2877197266
1489456360.6876211166,1489456360.6899189949,       -0.7314453125,        0.0585937500,        0.0688476562,        4.4860839844,        4.0130615234,       -4.2877197266
1489456360.6901910305,1489456360.6924788952,       -0.7314453125,        0.0585937500,        0.0688476562,        4.4860839844,        3.9215087891,       -4.3487548828
1489456360.6927509308,1489456360.6950440407,       -0.7314453125,        0.0585937500,        0.0688476562,        4.4860839844,        3.9215087891,       -4.3487548828
1489456360.6953170300,1489456360.6976070404,       -0.7324218750,        0.0419921875,        0.0668945312,        4.4860839844,        3.7384033203,       -4.0435791016
1489456360.6978790760,1489456360.7002050877,       -0.7324218750,        0.0419921875,        0.0668945312,        4.7912597656,        3.7384033203,       -4.0435791016
1489456360.7004780769,1489456360.7027659416,       -0.7324218750,        0.0419921875,        0.0668945312,        4.7912597656,        7.6446533203,       -3.8909912109
1489456360.7030370235,1489456360.7053279877,       -0.7324218750,        0.0419921875,        0.0668945312,        4.5013427734,        4.0740966797,       -3.8909912109
1489456360.7055990696,1489456360.7078828812,       -0.7285156250,        0.0532226562,        0.0571289062,        4.5013427734,        4.0740966797,       -4.0130615234
1489456360.7081549168,1489456360.7104530334,       -0.7285156250,        0.0532226562,        0.0571289062,        4.3792724609,        4.0283203125,       -4.0130615234
1489456360.7107260227,1489456360.7130119801,       -0.7285156250,        0.0532226562,        0.0571289062,        4.3792724609,        4.0283203125,       -4.0130615234
1489456360.7132840157,1489456360.7155730724,       -0.7285156250,        0.0532226562,        0.0571289062,        4.4250488281,        3.9367675781,       -4.1351318359
1489456360.7158451080,1489456360.7181379795,       -0.7285156250,        0.0634765625,        0.0493164062,        4.4250488281,        3.9367675781,       -4.1351318359
1489456360.7184100151,1489456360.7208600044,       -0.7285156250,        0.0634765625,        0.0493164062,        4.5166015625,        4.4403076172,       -4.2266845703
1489456360.7211399078,1489456360.7235600948,       -0.7285156250,        0.0634765625,        0.0493164062,        4.5166015625,        4.4403076172,       -4.2266845703
1489456360.7238390446,1489456360.7262530327,       -0.7285156250,        0.0634765625,        0.0493164062,        4.0893554688,        4.0740966797,       -4.2724609375
1489456360.7265329361,1489456360.7289509773,       -0.7197265625,        0.0581054688,        0.0371093750,        4.0893554688,        4.0740966797,       -4.2724609375
1489456360.7292308807,1489456360.7316529751,       -0.7197265625,        0.0581054688,        0.0371093750,        4.3182373047,        4.0893554688,       -4.5471191406
1489456360.7319331169,1489456360.7343499660,       -0.7197265625,        0.0581054688,        0.0371093750,        4.3182373047,        4.0893554688,       -4.5471191406
1489456360.7346310616,1489456360.7370409966,       -0.7197265625,        0.0581054688,        0.0371093750,        4.2877197266,        3.8146972656,       -4.4708251953
1489456360.7374300957,1489456360.7398650646,       -0.7241210938,        0.0639648438,        0.0444335938,        4.2877197266,        3.8146972656,       -4.4708251953
1489456360.7401440144,1489456360.7425611019,       -0.7241210938,        0.0639648438,        0.0444335938,        3.7994384766,        3.7384033203,       -4.4250488281
1489456360.7428410053,1489456360.7452600002,       -0.7241210938,        0.0639648438,        0.0444335938,        3.7994384766,        3.7384033203,       -4.4250488281
1489456360.7455389500,1489456360.7479510307,       -0.7241210938,        0.0600585938,        0.0439453125,        3.6621093750,        3.5095214844,       -4.2266845703
1489456360.7482318878,1489456360.7506608963,       -0.7270507812,        0.0600585938,        0.0439453125,        3.6621093750,        3.5095214844,       -4.2266845703
1489456360.7509410381,1489456360.7533628941,       -0.7270507812,        0.0600585938,        0.0439453125,        3.8604736328,        3.1280517578,       -4.4860839844
1489456360.7536449432,1489456360.7560570240,       -0.7270507812,        0.0600585938,        0.0439453125,        3.8604736328,        3.1280517578,       -4.4860839844
1489456360.7563359737,1489456360.7587509155,       -0.7182617188,        0.0751953125,        0.0483398438,        3.7994384766,        2.7923583984,       -4.5928955078
1489456360.7590749264,1489456360.7613730431,       -0.7182617188,        0.0751953125,        0.0483398438,        3.7994384766,        2.7923583984,       -4.5928955078
1489456360.7616450787,1489456360.7639379501,       -0.7182617188,        0.0751953125,        0.0483398438,        3.5552978516,        3.4027099609,       -5.3863525391
1489456360.7642118931,1489456360.7665050030,       -0.7182617188,        0.0751953125,        0.0483398438,        3.5552978516,        3.4027099609,       -5.3863525391
1489456360.7667779922,1489456360.7691049576,       -0.7236328125,        0.0600585938,        0.0537109375,        3.7689208984,        2.8381347656,       -5.7067871094
1489456360.7693850994,1489456360.7717990875,       -0.7236328125,        0.0600585938,        0.0537109375,        3.7689208984,        2.8381347656,       -5.7067871094
1489456360.7720780373,1489456360.7744960785,       -0.7236328125,        0.0600585938,        0.0537109375,        3.9062500000,        3.1738281250,       -5.6610107422
1489456360.7747769356,1489456360.7771899700,       -0.7236328125,        0.0600585938,        0.0537109375,        3.9062500000,        3.1738281250,       -5.6610107422
1489456360.7774689198,1489456360.7798910141,       -0.7373046875,        0.0473632812,        0.0654296875,        3.0822753906,        3.8299560547,       -5.1727294922
1489456360.7801699638,1489456360.7825930119,       -0.7373046875,        0.0473632812,        0.0654296875,        3.0822753906,        3.8299560547,       -5.1727294922
1489456360.7828729153,1489456360.7852890491,       -0.7373046875,        0.0473632812,        0.0654296875,        2.3193359375,        3.2958984375,       -5.1116943359
1489456360.7855689526,1489456360.7879889011,       -0.7373046875,        0.0473632812,        0.0712890625,        2.3193359375,        3.2958984375,       -5.1116943359
1489456360.7882690430,1489456360.7906908989,       -0.7246093750,        0.0268554688,        0.0712890625,        1.1749267578,        3.5705566406,       -5.2947998047
1489456360.7909700871,1489456360.7933828831,       -0.7246093750,        0.0268554688,        0.0712890625,        1.1749267578,        3.5705566406,       -5.2947998047
1489456360.7936639786,1489456360.7960839272,       -0.7246093750,        0.0268554688,        0.0712890625,       -0.1220703125,        4.5318603516,       -5.1574707031
1489456360.7963669300,1489456360.7987799644,       -0.7397460938,        0.0146484375,        0.0473632812,       -0.1220703125,        4.5318603516,       -5.1574707031
1489456360.7991058826,1489456360.8015139103,       -0.7397460938,        0.0146484375,        0.0473632812,       -1.5106201172,        4.6386718750,       -4.6539306641
1489456360.8019020557,1489456360.8043239117,       -0.7397460938,        0.0146484375,        0.0473632812,       -1.5106201172,        4.6386718750,       -4.6539306641
1489456360.8046040535,1489456360.8070180416,       -0.7397460938,        0.0146484375,        0.0473632812,       -2.5634765625,        4.4403076172,       -4.9438476562
1489456360.8072979450,1489456360.8096880913,       -0.7392578125,        0.0751953125,        0.0449218750,       -2.5634765625,        4.4403076172,       -4.9438476562
1489456360.8099610806,1489456360.8122489452,       -0.7392578125,        0.0751953125,        0.0449218750,       -2.8533935547,        4.1809082031,       -5.9051513672
1489456360.8125219345,1489456360.8148100376,       -0.7392578125,        0.0751953125,        0.0449218750,       -2.8533935547,        4.1809082031,       -5.9051513672
1489456360.8150830269,1489456360.8173780441,       -0.7392578125,        0.0751953125,        0.0449218750,       -2.8533935547,        4.3792724609,       -7.2937011719
1489456360.8176500797,1489456360.8200480938,       -0.7275390625,        0.0771484375,        0.0278320312,       -2.8076171875,        4.3792724609,       -7.2937011719
1489456360.8203289509,1489456360.8227469921,       -0.7275390625,        0.0771484375,        0.0278320312,       -2.8076171875,        4.6691894531,       -8.1634521484
1489456360.8230259418,1489456360.8254458904,       -0.7275390625,        0.0771484375,        0.0278320312,       -3.0670166016,        4.6691894531,       -8.1634521484
1489456360.8257269859,1489456360.8281381130,       -0.7275390625,        0.0771484375,        0.0371093750,       -3.0670166016,        4.5928955078,       -8.8195800781
1489456360.8284170628,1489456360.8308479786,       -0.7294921875,        0.0703125000,        0.0371093750,       -3.8452148438,        4.5928955078,       -8.8195800781
1489456360.8311290741,1489456360.8335459232,       -0.7294921875,        0.0703125000,        0.0371093750,       -3.8452148438,        4.3029785156,       -9.3231201172
1489456360.8338289261,1489456360.8362379074,       -0.7294921875,        0.0703125000,        0.0371093750,       -4.2266845703,        4.3029785156,       -9.3231201172
1489456360.8365190029,1489456360.8389470577,       -0.7294921875,        0.0756835938,        0.0292968750,       -4.2266845703,        4.3029785156,      -10.4827880859
1489456360.8392329216,1489456360.8416519165,       -0.7285156250,        0.0756835938,        0.0292968750,       -4.6539306641,        4.2572021484,      -10.4827880859
1489456360.8419370651,1489456360.8443589211,       -0.7285156250,        0.0756835938,        0.0292968750,       -4.6539306641,        4.2572021484,      -11.5051269531
1489456360.8446450233,1489456360.8470640182,       -0.7285156250,        0.0756835938,        0.0292968750,       -4.3182373047,        3.9672851562,      -11.5051269531
1489456360.8473479748,1489456360.8497209549,       -0.7338867188,        0.0834960938,        0.0375976562,       -4.3182373047,        0.0610351562,      -12.1459960938
1489456360.8499989510,1489456360.8522949219,       -0.7338867188,        0.0834960938,        0.0375976562,       -3.1738281250,        3.8146972656,      -12.1459960938
1489456360.8525729179,1489456360.8548660278,       -0.7338867188,        0.0834960938,        0.0375976562,       -3.1738281250,        3.8146972656,      -13.6108398438
1489456360.8551440239,1489456360.8574368954,       -0.7338867188,        0.0834960938,        0.0375976562,       -0.8239746094,        3.7231445312,      -13.6108398438
1489456360.8577160835,1489456360.8600900173,       -0.7280273438,        0.0898437500,        0.0419921875,       -0.8239746094,        3.7231445312,      -13.6108398438
1489456360.8603758812,1489456360.8627960682,       -0.7280273438,        0.0898437500,        0.0419921875,        0.3662109375,        2.7008056641,      -14.7399902344
1489456360.8630809784,1489456360.8654971123,       -0.7280273438,        0.0898437500,        0.0419921875,        0.3662109375,        2.7008056641,      -18.6462402344
1489456360.8658890724,1489456360.8683130741,       -0.7280273438,        0.0898437500,        0.0419921875,        1.6021728516,        1.6632080078,      -15.6402587891
1489456360.8685989380,1489456360.8710539341,       -0.7167968750,        0.0932617188,        0.0214843750,        1.6021728516,        1.6632080078,      -15.6402587891
1489456360.8713400364,1489456360.8736870289,       -0.7167968750,        0.0932617188,        0.0214843750,        2.9449462891,        1.4953613281,      -16.6168212891
1489456360.8739659786,1489456360.8762590885,       -0.7167968750,        0.0932617188,        0.0214843750,        2.9449462891,        1.4953613281,      -16.6168212891
1489456360.8765358925,1489456360.8790090084,       -0.7167968750,        0.0932617188,        0.0278320312,        3.7384033203,        1.5563964844,      -17.4713134766
1489456360.8792960644,1489456360.8816769123,       -0.7099609375,        0.0825195312,        0.0278320312,        3.7384033203,        1.5563964844,      -17.4713134766
1489456360.8819589615,1489456360.8843410015,       -0.7099609375,        0.0825195312,        0.0278320312,        3.9215087891,        1.4495849609,      -18.3868408203
1489456360.8847401142,1489456360.8871378899,       -0.7099609375,        0.0825195312,        0.0278320312,        3.9215087891,        1.4495849609,      -18.3868408203
1489456360.8874208927,1489456360.8910179138,       -0.7280273438,        0.0649414062,        0.0405273438,        3.1585693359,        1.4190673828,      -19.1345214844
1489456360.8912980556,1489456360.8935880661,       -0.7280273438,        0.0649414062,        0.0405273438,        3.1585693359,        1.5563964844,      -19.8364257812
1489456360.8938660622,1489456360.8961648941,       -0.7280273438,        0.0649414062,        0.0405273438,        2.3193359375,        1.5563964844,      -19.8364257812
1489456360.8964428902,1489456360.8987290859,       -0.7280273438,        0.0649414062,        0.0498046875,        2.3193359375,        1.5563964844,      -20.2484130859
1489456360.8990910053,1489456360.9013879299,       -0.7260742188,        0.0371093750,        0.0498046875,        0.0915527344,        1.6479492188,      -20.2484130859
1489456360.9016659260,1489456360.9039568901,       -0.7260742188,        0.0371093750,        0.0498046875,        0.0915527344,        1.6479492188,      -21.3928222656
1489456360.9042339325,1489456360.9065260887,       -0.7260742188,        0.0371093750,        0.0498046875,       -1.2054443359,        2.0904541016,      -21.3928222656
1489456360.9068040848,1489456360.9091029167,       -0.7260742188,        0.0371093750,        0.0625000000,       -1.2054443359,        2.0904541016,      -21.3928222656
1489456360.9093821049,1489456360.9116699696,       -0.7363281250,        0.0341796875,        0.0625000000,       -2.8533935547,        2.4261474609,      -22.1862792969
1489456360.9119470119,1489456360.9142360687,       -0.7363281250,        0.0341796875,        0.0625000000,       -2.8533935547,        2.4261474609,      -22.1862792969
1489456360.9145150185,1489456360.9168128967,       -0.7363281250,        0.0341796875,        0.0625000000,       -5.2947998047,        2.4261474609,      -22.7813720703
1489456360.9170908928,1489456360.9194269180,       -0.7363281250,        0.0244140625,        0.0620117188,       -5.2947998047,        2.4261474609,      -22.7813720703
1489456360.9197039604,1489456360.9219989777,       -0.7255859375,        0.0244140625,        0.0620117188,       -8.2092285156,        2.1820068359,      -22.7508544922
1489456360.9222769737,1489456360.9245688915,       -0.7255859375,        0.0244140625,        0.0620117188,       -8.2092285156,        2.1820068359,      -22.7508544922
1489456360.9248459339,1489456360.9271290302,       -0.7255859375,        0.0244140625,        0.0620117188,      -10.7421875000,        2.6092529297,      -23.1475830078
1489456360.9274120331,1489456360.9297070503,       -0.7255859375,        0.0048828125,        0.0732421875,      -10.7421875000,        2.6092529297,      -23.1475830078
1489456360.9300999641,1489456360.9323918819,       -0.7382812500,        0.0048828125,        0.0732421875,      -13.5040283203,        3.5247802734,      -23.0865478516
1489456360.9326760769,1489456360.9349598885,       -0.7382812500,        0.0048828125,        0.0732421875,      -13.5040283203,        3.5247802734,      -23.0865478516
1489456360.9352440834,1489456360.9375391006,       -0.7382812500,        0.0048828125,        0.0732421875,      -14.9078369141,        3.7384033203,      -22.6745605469
1489456360.9378199577,1489456360.9403030872,       -0.7421875000,        0.0292968750,        0.0664062500,      -14.9078369141,        3.7384033203,      -22.6745605469
1489456360.9405848980,1489456360.9428861141,       -0.7421875000,        0.0292968750,        0.0664062500,      -12.3291015625,        3.8146972656,      -23.1781005859
1489456360.9431691170,1489456360.9454600811,       -0.7421875000,        0.0292968750,        0.0664062500,      -12.3291015625,        3.8146972656,      -23.1781005859
1489456360.9457430840,1489456360.9480330944,       -0.7421875000,        0.0292968750,        0.0664062500,       -8.4228515625,        4.2419433594,      -24.2309570312
1489456360.9483129978,1489456360.9507451057,       -0.7666015625,        0.0229492188,        0.0307617188,       -8.2244873047,        4.2419433594,      -24.2309570312
1489456360.9510259628,1489456360.9533200264,       -0.7666015625,        0.0229492188,        0.0307617188,       -8.2244873047,        3.8299560547,      -24.6887207031
1489456360.9535980225,1489456360.9558858871,       -0.7666015625,        0.0229492188,        0.0307617188,       -5.0048828125,        3.8299560547,      -24.6887207031
1489456360.9561629295,1489456360.9584610462,       -0.7666015625,        0.0229492188,        0.0307617188,       -5.0048828125,        3.8299560547,      -24.9786376953
1489456360.9587390423,1489456360.9611589909,       -0.7700195312,        0.0263671875,        0.0146484375,       -2.2888183594,        3.6010742188,      -24.9786376953
1489456360.9614439011,1489456360.9638600349,       -0.7700195312,        0.0263671875,        0.0146484375,       -2.2888183594,        3.6010742188,      -24.9328613281
1489456360.9641449451,1489456360.9665560722,       -0.7700195312,        0.0263671875,        0.0146484375,       -0.0915527344,        3.5095214844,      -24.9328613281
1489456360.9668428898,1489456360.9692740440,       -0.7700195312,        0.0263671875,        0.0146484375,       -0.0915527344,        3.5095214844,      -24.8413085938
1489456360.9695599079,1489456360.9719779491,       -0.7607421875,        0.0244140625,        0.0454101562,        1.2969970703,        3.2501220703,      -24.8413085938
1489456360.9722630978,1489456360.9746749401,       -0.7607421875,        0.0244140625,        0.0454101562,        1.2969970703,        3.2501220703,      -25.3448486328
1489456360.9749579430,1489456360.9773700237,       -0.7607421875,        0.0244140625,        0.0454101562,        2.3956298828,        2.5634765625,      -25.3448486328
1489456360.9776530266,1489456360.9800829887,       -0.7607421875,        0.0039062500,        0.0234375000,        2.3956298828,        2.5634765625,      -25.0701904297
1489456360.9803700447,1489456360.9827840328,       -0.7412109375,        0.0039062500,        0.0234375000,        3.0975341797,        2.8076171875,      -25.0701904297
1489456360.9830698967,1489456360.9854888916,       -0.7412109375,        0.0039062500,        0.0234375000,        3.0975341797,        2.8076171875,      -25.0244140625
1489456360.9857740402,1489456360.9881889820,       -0.7412109375,        0.0039062500,        0.0234375000,        2.2125244141,        3.0975341797,      -25.0244140625
1489456360.9884738922,1489456360.9909029007,       -0.7436523438,       -0.0234375000,        0.0229492188,        2.2125244141,        3.0975341797,      -24.5971679688
1489456360.9911880493,1489456360.9936070442,       -0.7436523438,       -0.0234375000,        0.0229492188,        0.0000000000,        3.6010742188,      -24.5971679688
1489456360.9940080643,1489456360.9964261055,       -0.7436523438,       -0.0234375000,        0.0229492188,        0.0000000000,        3.6010742188,      -23.5595703125
1489456360.9967119694,1489456360.9991250038,       -0.7436523438,       -0.0234375000,        0.0229492188,       -2.4261474609,        4.5623779297,      -23.5595703125
1489456360.9994029999,1489456361.0016939640,       -0.7524414062,       -0.0405273438,        0.0483398438,       -2.4261474609,        4.5623779297,      -23.5595703125
1489456361.0019729137,1489456361.0042660236,       -0.7524414062,       -0.0405273438,        0.0483398438,       -4.1809082031,        4.5471191406,      -23.5595703125
1489456361.0045430660,1489456361.0069229603,       -0.7524414062,       -0.0405273438,        0.0483398438,       -4.1809082031,        4.5471191406,      -23.5595703125
1489456361.0072009563,1489456361.0095429420,       -0.7524414062,       -0.0405273438,        0.0483398438,       -5.8593750000,        4.7760009766,      -23.3154296875
1489456361.0098290443,1489456361.0122458935,       -0.7592773438,       -0.0205078125,        0.0595703125,       -5.8593750000,        4.7760009766,      -23.3154296875
1489456361.0125339031,1489456361.0149469376,       -0.7592773438,       -0.0205078125,        0.0595703125,       -7.6751708984,        5.2795410156,      -22.9949951172
1489456361.0152320862,1489456361.0176479816,       -0.7592773438,       -0.0205078125,        0.0595703125,       -7.6751708984,        5.2795410156,      -22.9949951172
1489456361.0179328918,1489456361.0203580856,       -0.7592773438,       -0.0205078125,        0.0722656250,       -8.7585449219,        5.5236816406,      -22.9492187500
1489456361.0206429958,1489456361.0230629444,       -0.7612304688,       -0.0087890625,        0.0722656250,       -8.7585449219,        5.5236816406,      -22.9492187500
1489456361.0233500004,1489456361.0257658958,       -0.7612304688,       -0.0087890625,        0.0722656250,       -9.6130371094,        5.8135986328,      -23.1018066406
1489456361.0260519981,1489456361.0284678936,       -0.7612304688,       -0.0087890625,        0.0722656250,       -9.6130371094,        5.8135986328,      -23.1018066406
1489456361.0287549496,1489456361.0311720371,       -0.7338867188,       -0.0029296875,        0.0708007812,      -10.6048583984,        6.4239501953,      -23.1628417969
1489456361.0314610004,1489456361.0338740349,       -0.7338867188,       -0.0029296875,        0.0708007812,      -10.6048583984,        6.4239501953,      -23.1628417969
1489456361.0341639519,1489456361.0365810394,       -0.7338867188,       -0.0029296875,        0.0708007812,      -12.0391845703,        6.9274902344,      -23.3306884766
1489456361.0368700027,1489456361.0392820835,       -0.7338867188,       -0.0029296875,        0.0708007812,      -12.0391845703,        6.9274902344,      -23.3306884766
1489456361.0395650864,1489456361.0418589115,       -0.7324218750,        0.0009765625,        0.0737304688,      -13.2293701172,        6.9122314453,      -22.9339599609
1489456361.0421419144,1489456361.0444359779,       -0.7324218750,        0.0009765625,        0.0737304688,      -13.2293701172,        6.9122314453,      -22.9339599609
1489456361.0447180271,1489456361.0470089912,       -0.7324218750,        0.0009765625,        0.0737304688,      -14.0991210938,        7.2784423828,      -23.6511230469
1489456361.0472910404,1489456361.0497279167,       -0.7324218750,        0.0009765625,        0.0737304688,      -14.0991210938,        7.2784423828,      -23.6511230469
1489456361.0500109196,1489456361.0523009300,       -0.7358398438,        0.0219726562,        0.0629882812,      -12.6190185547,        7.7362060547,      -25.2685546875
1489456361.0525820255,1489456361.0548729897,       -0.7358398438,        0.0219726562,        0.0629882812,      -12.6190185547,        7.7362060547,      -25.2685546875
1489456361.0551528931,1489456361.0574469566,       -0.7358398438,        0.0219726562,        0.0629882812,      -10.4675292969,        8.7127685547,      -26.4434814453
1489456361.0578339100,1489456361.0603549480,       -0.7358398438,        0.0219726562,        0.0629882812,      -10.4675292969,        8.7127685547,      -26.4434814453
1489456361.0606460571,1489456361.0630478859,       -0.7558593750,        0.0566406250,        0.0234375000,       -8.1329345703,        9.2163085938,      -27.5421142578
1489456361.0633349419,1489456361.0657329559,       -0.7558593750,        0.0566406250,        0.0234375000,       -8.1329345703,        9.2163085938,      -27.5421142578
1489456361.0660181046,1489456361.0684208870,       -0.7558593750,        0.0566406250,        0.0234375000,       -6.0272216797,        9.5977783203,      -29.6325683594
1489456361.0687060356,1489456361.0711169243,       -0.7558593750,        0.0625000000,        0.0141601562,       -6.0272216797,        9.5977783203,      -29.6325683594
1489456361.0714020729,1489456361.0738050938,       -0.7612304688,        0.0625000000,        0.0141601562,       -4.0283203125,        9.6282958984,      -31.4636230469
1489456361.0740919113,1489456361.0764958858,       -0.7612304688,        0.0625000000,        0.0141601562,       -4.0283203125,        9.6282958984,      -31.4636230469
1489456361.0767810345,1489456361.0792870522,       -0.7612304688,        0.0625000000,        0.0141601562,       -0.3814697266,        9.6588134766,      -32.7148437500
1489456361.0795741081,1489456361.0819590092,       -0.7534179688,        0.0532226562,        0.0190429688,       -0.3814697266,        9.6588134766,      -32.7148437500
1489456361.0822420120,1489456361.0846209526,       -0.7534179688,        0.0532226562,        0.0190429688,        3.5095214844,        9.4451904297,      -34.0118408203
1489456361.0849039555,1489456361.0872890949,       -0.7534179688,        0.0532226562,        0.0190429688,        3.5095214844,        9.4451904297,      -34.0118408203
1489456361.0875709057,1489456361.0899178982,       -0.7534179688,        0.0532226562,        0.0190429688,        6.7901611328,        9.5520019531,      -35.1409912109
1489456361.0901980400,1489456361.0924909115,       -0.7646484375,        0.0336914062,        0.0058593750,        6.7901611328,        9.5520019531,      -35.1409912109
1489456361.0927689075,1489456361.0950620174,       -0.7646484375,        0.0336914062,        0.0058593750,       10.6964111328,        9.9639892578,      -35.6445312500
1489456361.0953450203,1489456361.0976369381,       -0.7646484375,        0.0336914062,        0.0058593750,        8.6517333984,        9.9639892578,      -35.6445312500
1489456361.0979149342,1489456361.1002929211,       -0.7646484375,        0.0336914062,        0.0058593750,        8.6517333984,        9.9182128906,      -35.5529785156
1489456361.1005809307,1489456361.1029949188,       -0.7470703125,        0.0170898438,        0.0131835938,       10.1470947266,        9.9182128906,      -35.5529785156
1489456361.1032838821,1489456361.1056981087,       -0.7470703125,        0.0170898438,        0.0131835938,       10.1470947266,        9.9182128906,      -35.0189208984
1489456361.1059870720,1489456361.1084060669,       -0.7470703125,        0.0170898438,        0.0131835938,       12.1612548828,        9.7045898438,      -35.0189208984
1489456361.1086969376,1489456361.1111230850,       -0.7470703125,       -0.1079101562,        0.0131835938,       12.1612548828,        9.7045898438,      -35.0494384766
1489456361.1114130020,1489456361.1138238907,       -0.7578125000,       -0.0053710938,        0.0131835938,       13.1225585938,        9.9182128906,      -35.0494384766
1489456361.1141140461,1489456361.1165258884,       -0.7578125000,       -0.0053710938,        0.0131835938,       13.1225585938,        9.9182128906,      -34.6221923828
1489456361.1168169975,1489456361.1192460060,       -0.7578125000,       -0.0053710938,        0.0131835938,       13.3819580078,        9.4757080078,      -34.6221923828
1489456361.1195359230,1489456361.1219489574,       -0.7773437500,       -0.0146484375,        0.0112304688,       13.3819580078,        9.4757080078,      -34.0576171875
1489456361.1223380566,1489456361.1247529984,       -0.7773437500,       -0.0146484375,        0.0112304688,       12.0697021484,        9.5367431641,      -34.0576171875
1489456361.1250410080,1489456361.1274530888,       -0.7773437500,       -0.0146484375,        0.0112304688,       12.0697021484,        9.5367431641,      -33.2183837891
1489456361.1277439594,1489456361.1301651001,       -0.7773437500,       -0.0146484375,        0.0112304688,        9.6588134766,        9.1552734375,      -33.2183837891
1489456361.1304509640,1489456361.1328639984,       -0.7636718750,       -0.0009765625,        0.0112304688,        9.6588134766,        9.1552734375,      -31.8298339844
1489456361.1331510544,1489456361.1355690956,       -0.7636718750,       -0.0009765625,        0.0112304688,        7.1563720703,        8.8348388672,      -31.8298339844
1489456361.1358540058,1489456361.1382679939,       -0.7636718750,       -0.0009765625,        0.0112304688,        7.1563720703,        8.8348388672,      -29.8614501953
1489456361.1385519505,1489456361.1408550739,       -0.7636718750,       -0.0009765625,        0.0112304688,        4.5166015625,        8.8195800781,      -29.8614501953
1489456361.1411349773,1489456361.1434268951,       -0.7802734375,       -0.0029296875,        0.0297851562,        4.5166015625,        8.8195800781,      -28.3813476562
1489456361.1437048912,1489456361.1459970474,       -0.7802734375,       -0.0029296875,        0.0297851562,        3.7536621094,        8.8500976562,      -28.3813476562
1489456361.1462759972,1489456361.1485660076,       -0.7802734375,       -0.0029296875,        0.0297851562,        3.7536621094,        8.8500976562,      -24.4750976562
1489456361.1488618851,1489456361.1512780190,       -0.7802734375,       -0.0029296875,        0.0385742188,        2.8076171875,        8.9721679688,      -27.2827148438
1489456361.1515669823,1489456361.1539809704,       -0.7822265625,       -0.0195312500,        0.0385742188,        2.8076171875,        8.9721679688,      -27.2827148438
1489456361.1542661190,1489456361.1566789150,       -0.7822265625,       -0.0195312500,        0.0385742188,        1.5258789062,        8.2092285156,      -24.9176025391
1489456361.1569640636,1489456361.1594250202,       -0.7822265625,       -0.0195312500,        0.0385742188,        1.5258789062,        8.2092285156,      -24.9176025391
1489456361.1597099304,1489456361.1621270180,       -0.7822265625,       -0.0131835938,        0.0493164062,        0.9765625000,        8.7432861328,      -21.4996337891
1489456361.1624140739,1489456361.1648259163,       -0.7949218750,       -0.0131835938,        0.0493164062,        0.9765625000,        8.7432861328,      -21.4996337891
1489456361.1651120186,1489456361.1675269604,       -0.7949218750,       -0.0131835938,        0.0493164062,        0.2593994141,        9.0637207031,      -17.7307128906
1489456361.1678130627,1489456361.1702370644,       -0.7949218750,       -0.0131835938,        0.0493164062,        0.2593994141,        9.0637207031,      -17.7307128906
1489456361.1705219746,1489456361.1729369164,       -0.8085937500,        0.1162109375,        0.0136718750,       -0.8087158203,       10.6048583984,      -11.9476318359
1489456361.1732261181,1489456361.1756439209,       -0.8085937500,        0.1162109375,        0.0136718750,       -0.8087158203,       10.6048583984,      -11.9476318359
1489456361.1759328842,1489456361.1783480644,       -0.8085937500,        0.1162109375,        0.0136718750,       -2.0141601562,       12.4511718750,       -2.6397705078
1489456361.1786360741,1489456361.1809470654,       -0.8085937500,        0.1162109375,        0.0136718750,       -2.0141601562,       12.4511718750,       -2.6397705078
1489456361.1812250614,1489456361.1835150719,       -0.7910156250,        0.4682617188,        0.0122070312,       -0.9155273438,       12.8021240234,        6.3171386719
1489456361.1837930679,1489456361.1860840321,       -0.7910156250,        0.4682617188,        0.0122070312,       -0.9155273438,       12.8021240234,        6.3171386719
1489456361.1863629818,1489456361.1886570454,       -0.7910156250,        0.4682617188,        0.0122070312,        2.5482177734,       12.9699707031,       16.1437988281
1489456361.1891059875,1489456361.1915199757,       -0.7910156250,        0.4682617188,       -0.1127929688,        2.5482177734,       12.9699707031,       16.1437988281
1489456361.1918079853,1489456361.1942238808,       -0.7905273438,        0.7143554688,       -0.0122070312,        8.3465576172,       13.2904052734,       25.8941650391
1489456361.1945130825,1489456361.1969261169,       -0.7905273438,        0.7143554688,       -0.0122070312,        8.3465576172,       13.2904052734,       25.8941650391
1489456361.1972150803,1489456361.1996400356,       -0.7905273438,        0.7143554688,       -0.0122070312,       12.5732421875,       12.8631591797,       34.8815917969
1489456361.1999309063,1489456361.2023510933,       -0.7905273438,        0.7939453125,        0.0249023438,       12.5732421875,       12.8631591797,       34.8815917969
1489456361.2026410103,1489456361.2050499916,       -0.7666015625,        0.7939453125,        0.0249023438,       18.2189941406,       12.4969482422,       43.3654785156
1489456361.2053411007,1489456361.2077560425,       -0.7666015625,        0.7939453125,        0.0249023438,       18.2189941406,       12.4969482422,       43.3654785156
1489456361.2080459595,1489456361.2104730606,       -0.7666015625,        0.7939453125,        0.0249023438,       24.7192382812,       11.7797851562,       53.7567138672
1489456361.2107639313,1489456361.2131760120,       -0.7436523438,        0.7548828125,        0.0341796875,       24.7192382812,       11.7797851562,       53.7567138672
1489456361.2134680748,1489456361.2158849239,       -0.7436523438,        0.7548828125,        0.0341796875,       30.9448242188,       10.4827880859,       62.4237060547
1489456361.2161769867,1489456361.2185881138,       -0.7436523438,        0.7548828125,        0.0341796875,       30.9448242188,       10.4827880859,       62.4237060547
1489456361.2188880444,1489456361.2211809158,       -0.7436523438,        0.7548828125,        0.0341796875,       34.3475341797,        9.4757080078,       70.0225830078
1489456361.2214639187,1489456361.2237579823,       -0.7788085938,        0.6811523438,        0.0283203125,       34.3475341797,        9.4757080078,       70.0225830078
1489456361.2240390778,1489456361.2263290882,       -0.7788085938,        0.6811523438,        0.0283203125,       36.0412597656,       10.2691650391,       78.0792236328
1489456361.2266130447,1489456361.2289400101,       -0.7788085938,        0.6811523438,        0.0283203125,       36.0412597656,       10.2691650391,       78.0792236328
1489456361.2292339802,1489456361.2316460609,       -0.7788085938,        0.6811523438,        0.0283203125,       35.9497070312,       11.2915039062,       85.6170654297
1489456361.2319390774,1489456361.2343549728,       -0.7988281250,        0.6250000000,       -0.0053710938,       35.9497070312,       11.2915039062,       85.6170654297
1489456361.2346489429,1489456361.2370679379,       -0.7988281250,        0.6250000000,       -0.0053710938,       35.0494384766,       11.3677978516,       92.7581787109
1489456361.2373619080,1489456361.2397789955,       -0.7988281250,        0.6250000000,       -0.0053710938,       35.0494384766,       11.3677978516,       92.7581787109
1489456361.2400710583,1489456361.2424890995,       -0.7988281250,        0.5000000000,       -0.0009765625,       33.7524414062,       11.6119384766,      100.1129150391
1489456361.2427821159,1489456361.2451949120,       -0.8022460938,        0.5859375000,       -0.0009765625,       33.7524414062,       11.6119384766,      100.1129150391
1489456361.2454879284,1489456361.2479000092,       -0.8022460938,        0.5859375000,       -0.0009765625,       32.4249267578,       12.0391845703,      107.3150634766
1489456361.2481911182,1489456361.2506539822,       -0.8022460938,        0.5859375000,       -0.0009765625,       32.4249267578,       12.0391845703,      107.3150634766
1489456361.2509479523,1489456361.2533659935,       -0.8144531250,        0.5429687500,        0.0195312500,       31.0821533203,       11.3372802734,      112.9302978516
1489456361.2537651062,1489456361.2561829090,       -0.8144531250,        0.5429687500,        0.0195312500,       31.0821533203,       11.3372802734,      112.9302978516
1489456361.2564749718,1489456361.2589058876,       -0.8144531250,        0.5429687500,        0.0195312500,       29.1748046875,       10.5438232422,      117.8283691406
1489456361.2591969967,1489456361.2616109848,       -0.8144531250,        0.5429687500,        0.0195312500,       29.1748046875,       10.5438232422,      117.8283691406
1489456361.2619040012,1489456361.2643179893,       -0.8247070312,        0.4848632812,        0.0444335938,       27.0843505859,        8.9721679688,      122.1160888672
1489456361.2646079063,1489456361.2670168877,       -0.8247070312,        0.4848632812,        0.0444335938,       27.0843505859,        8.9721679688,      122.1160888672
1489456361.2673048973,1489456361.2696959972,       -0.8247070312,        0.4848632812,        0.0444335938,       25.4516601562,        6.3171386719,      125.4882812500
1489456361.2699780464,1489456361.2722709179,       -0.8247070312,        0.4848632812,        0.0444335938,       25.4516601562,        6.3171386719,      125.4882812500
1489456361.2725539207,1489456361.2748448849,       -0.8466796875,        0.4082031250,        0.0668945312,       25.3143310547,        2.7923583984,      127.1667480469
1489456361.2751269341,1489456361.2774190903,       -0.8466796875,        0.4082031250,        0.0668945312,       25.3143310547,        2.7923583984,      127.1667480469
1489456361.2777009010,1489456361.2800989151,       -0.8466796875,        0.4082031250,        0.0668945312,       25.3143310547,        0.9613037109,      128.1127929688
1489456361.2803900242,1489456361.2828059196,       -0.8466796875,        0.2832031250,        0.0541992188,       25.3448486328,        0.9613037109,      128.1127929688
1489456361.2830948830,1489456361.2855129242,       -0.8242187500,        0.3530273438,        0.0541992188,       29.2510986328,       -1.0223388672,      128.4484863281
1489456361.2858030796,1489456361.2882180214,       -0.8242187500,        0.3530273438,        0.0541992188,       27.9235839844,       -1.0223388672,      128.4484863281
1489456361.2885060310,1489456361.2909328938,       -0.8242187500,        0.3530273438,        0.0541992188,       27.9235839844,       -3.3721923828,      127.9449462891
1489456361.2912230492,1489456361.2936389446,       -0.8549804688,        0.2343750000,        0.0571289062,       30.4565429688,       -3.3721923828,      127.9449462891
1489456361.2939279079,1489456361.2963430882,       -0.8549804688,        0.2343750000,        0.0571289062,       30.4565429688,       -5.8898925781,      125.5340576172
1489456361.2966320515,1489456361.2990589142,       -0.8549804688,        0.2343750000,        0.0571289062,       30.3649902344,       -5.8898925781,      125.5340576172
1489456361.2993481159,1489456361.3017680645,       -0.8549804688,        0.2343750000,        0.0571289062,       30.3649902344,       -6.7443847656,      121.9177246094
1489456361.3020560741,1489456361.3044719696,       -0.8447265625,        0.1479492188,        0.0424804688,       29.9072265625,       -6.7443847656,      121.9177246094
1489456361.3047618866,1489456361.3071749210,       -0.8447265625,        0.1479492188,        0.0424804688,       29.9072265625,       -6.6070556641,      119.6746826172
1489456361.3074629307,1489456361.3098919392,       -0.8447265625,        0.1479492188,        0.0424804688,       32.6995849609,       -6.6070556641,      119.6746826172
1489456361.3101789951,1489456361.3125939369,       -0.8447265625,        0.1479492188,        0.0424804688,       32.6995849609,       -6.3934326172,      118.5455322266
1489456361.3128800392,1489456361.3152930737,       -0.8535156250,        0.1831054688,        0.0068359375,       36.5753173828,       -6.3934326172,      118.5455322266
1489456361.3155829906,1489456361.3179988861,       -0.8535156250,        0.1831054688,        0.0068359375,       36.5753173828,       -6.3934326172,      118.6828613281
1489456361.3183939457,1489456361.3207590580,       -0.8535156250,        0.1831054688,        0.0068359375,       39.2608642578,       -5.4168701172,      118.6828613281
1489456361.3210420609,1489456361.3233358860,       -0.8535156250,        0.1796875000,        0.0034179688,       39.2608642578,       -5.4168701172,      118.0267333984
1489456361.3236179352,1489456361.3259129524,       -0.8579101562,        0.1796875000,        0.0034179688,       41.5649414062,       -4.3945312500,      118.0267333984
1489456361.3261950016,1489456361.3284869194,       -0.8579101562,        0.1796875000,        0.0034179688,       41.5649414062,       -4.3945312500,      117.4621582031
1489456361.3287689686,1489456361.3311860561,       -0.8579101562,        0.1796875000,        0.0034179688,       43.3654785156,       -2.6092529297,      117.4621582031
1489456361.3314759731,1489456361.3338930607,       -0.8579101562,        0.1181640625,       -0.0209960938,       43.3654785156,       -2.6092529297,      117.3553466797
1489456361.3341820240,1489456361.3365969658,       -0.8637695312,        0.1181640625,       -0.0209960938,       43.1518554688,       -0.4272460938,      117.3553466797
1489456361.3368880749,1489456361.3393139839,       -0.8637695312,        0.1181640625,       -0.0209960938,       43.1518554688,       -0.4272460938,      118.1945800781
1489456361.3396039009,1489456361.3420200348,       -0.8637695312,        0.1181640625,       -0.0209960938,       42.2515869141,        1.1596679688,      118.1945800781
1489456361.3423099518,1489456361.3447229862,       -0.8442382812,        0.0805664062,       -0.0146484375,       42.2515869141,        1.1596679688,      118.1945800781
1489456361.3450129032,1489456361.3474268913,       -0.8442382812,        0.0805664062,       -0.0146484375,       40.8935546875,        2.6092529297,      118.2708740234
1489456361.3477160931,1489456361.3501451015,       -0.8442382812,        0.0805664062,       -0.0146484375,       40.8935546875,        2.6092529297,      118.2708740234
1489456361.3504331112,1489456361.3528480530,       -0.8442382812,        0.0805664062,       -0.0146484375,       39.7949218750,        3.9367675781,      117.1875000000
1489456361.3531370163,1489456361.3555490971,       -0.7968750000,        0.0649414062,       -0.0136718750,       39.7949218750,        3.9367675781,      113.2812500000
1489456361.3558359146,1489456361.3582510948,       -0.7968750000,        0.0649414062,       -0.0136718750,       38.2232666016,        5.7373046875,      115.5395507812
1489456361.3585410118,1489456361.3609631062,       -0.7968750000,        0.0649414062,       -0.0136718750,       38.2232666016,        5.7373046875,      115.5395507812
1489456361.3612530231,1489456361.3636689186,       -0.7968750000,        0.0649414062,        0.0048828125,       35.6292724609,        7.5378417969,      113.4643554688
1489456361.3639590740,1489456361.3663730621,       -0.7539062500,        0.0400390625,        0.0048828125,       35.6292724609,        7.5378417969,      109.5581054688
1489456361.3666629791,1489456361.3690779209,       -0.7539062500,        0.0400390625,        0.0048828125,       31.7687988281,        9.2010498047,      111.2976074219
1489456361.3693599701,1489456361.3716518879,       -0.7539062500,        0.0400390625,        0.0048828125,       31.7687988281,        9.2010498047,      111.2976074219
1489456361.3719339371,1489456361.3742249012,       -0.6289062500,        0.0883789062,        0.0097656250,       28.8543701172,       10.2996826172,      108.6730957031
1489456361.3745110035,1489456361.3768029213,       -0.7167968750,        0.0883789062,        0.0097656250,       28.8543701172,       10.2996826172,      108.6730957031
1489456361.3770880699,1489456361.3794560432,       -0.7167968750,        0.0883789062,        0.0097656250,       29.2205810547,       10.7269287109,      106.3232421875
1489456361.3797500134,1489456361.3821680546,       -0.7167968750,        0.0883789062,        0.0097656250,       29.2205810547,       10.7269287109,      106.3232421875
1489456361.3825700283,1489456361.3849899769,       -0.6821289062,        0.1093750000,        0.0371093750,       31.0363769531,        9.8876953125,      103.5614013672
1489456361.3852798939,1489456361.3876960278,       -0.6821289062,        0.1093750000,        0.0371093750,       31.0363769531,        9.8876953125,      103.5614013672
1489456361.3879868984,1489456361.3904490471,       -0.6821289062,        0.1093750000,        0.0371093750,       31.7382812500,        9.2163085938,       99.7619628906
1489456361.3907399178,1489456361.3931550980,       -0.6821289062,        0.1093750000,        0.0371093750,       31.7382812500,        9.2163085938,       99.7619628906
1489456361.3934459686,1489456361.3958609104,       -0.6821289062,        0.0126953125,        0.0498046875,       31.2805175781,        8.5449218750,       95.4132080078
1489456361.3961510658,1489456361.3985650539,       -0.6821289062,        0.0126953125,        0.0498046875,       31.2805175781,        8.5449218750,       95.4132080078
1489456361.3988630772,1489456361.4012849331,       -0.6821289062,        0.0126953125,        0.0498046875,       29.4189453125,        7.8582763672,       90.9423828125
1489456361.4015729427,1489456361.4039890766,       -0.6821289062,        0.0126953125,        0.0361328125,       29.4189453125,        7.8582763672,       90.9423828125
1489456361.4042770863,1489456361.4066960812,       -0.6777343750,       -0.0556640625,        0.0361328125,       27.3437500000,        7.2784423828,       85.9375000000
1489456361.4069819450,1489456361.4094390869,       -0.6777343750,       -0.0556640625,        0.0361328125,       27.3437500000,        7.2784423828,       85.9375000000
1489456361.4097270966,1489456361.4121379852,       -0.6777343750,       -0.0556640625,        0.0361328125,       25.5889892578,        6.3018798828,       80.9326171875
1489456361.4124259949,1489456361.4148409367,       -0.6533203125,       -0.0703125000,        0.0200195312,       25.5889892578,        6.3018798828,       80.9326171875
1489456361.4151299000,1489456361.4175469875,       -0.6533203125,       -0.0703125000,        0.0200195312,       22.5677490234,        4.9133300781,       76.1566162109
1489456361.4178359509,1489456361.4201939106,       -0.6533203125,       -0.0703125000,        0.0200195312,       22.5677490234,        4.9133300781,       76.1566162109
1489456361.4204759598,1489456361.4227669239,       -0.6533203125,       -0.0703125000,        0.0200195312,       20.0195312500,        4.1503906250,       71.9146728516
1489456361.4230489731,1489456361.4253430367,       -0.6157226562,       -0.0825195312,        0.0097656250,       20.0195312500,        4.1503906250,       71.9146728516
1489456361.4256250858,1489456361.4279179573,       -0.6157226562,       -0.0825195312,        0.0097656250,       16.8304443359,        3.3721923828,       66.8487548828
1489456361.4282000065,1489456361.4306349754,       -0.6157226562,       -0.0825195312,        0.0097656250,       16.8304443359,        3.3721923828,       66.8487548828
1489456361.4309260845,1489456361.4333410263,       -0.6157226562,       -0.0825195312,        0.0097656250,       14.6179199219,        2.5177001953,       61.5386962891
1489456361.4336318970,1489456361.4360470772,       -0.5947265625,       -0.0747070312,        0.0131835938,       14.6179199219,        2.5177001953,       61.5386962891
1489456361.4363338947,1489456361.4387478828,       -0.5947265625,       -0.0747070312,        0.0131835938,       13.3209228516,        1.4495849609,       55.9844970703
1489456361.4390850067,1489456361.4415030479,       -0.5947265625,       -0.0747070312,        0.0131835938,       13.3209228516,        1.4495849609,       55.9844970703
1489456361.4417901039,1489456361.4442059994,       -0.5947265625,       -0.0747070312,        0.0102539062,       11.9018554688,        0.0762939453,       50.9033203125
1489456361.4444949627,1489456361.4469110966,       -0.5981445312,       -0.0639648438,        0.0102539062,       11.9018554688,        0.0762939453,       50.9033203125
1489456361.4473090172,1489456361.4497349262,       -0.5981445312,       -0.0639648438,        0.0102539062,       10.0555419922,       -1.0681152344,       44.8303222656
1489456361.4500219822,1489456361.4524369240,       -0.5981445312,       -0.0639648438,        0.0102539062,       10.0555419922,       -1.0681152344,       44.8303222656
1489456361.4527249336,1489456361.4551389217,       -0.5981445312,       -0.0849609375,        0.0307617188,        7.4462890625,       -2.0904541016,       39.1082763672
1489456361.4554250240,1489456361.4578380585,       -0.6098632812,       -0.0849609375,        0.0307617188,        7.4462890625,       -2.0904541016,       39.1082763672
1489456361.4581239223,1489456361.4605500698,       -0.6098632812,       -0.0849609375,        0.0307617188,        5.4626464844,       -3.2196044922,       33.8439941406
1489456361.4608340263,1489456361.4632449150,       -0.6098632812,       -0.0849609375,        0.0307617188,        5.4626464844,       -3.2196044922,       33.8439941406
1489456361.4635291100,1489456361.4659419060,       -0.5947265625,        0.0024414062,        0.0117187500,        7.7362060547,       -4.3945312500,       29.4342041016
1489456361.4662280083,1489456361.4686460495,       -0.5947265625,        0.0024414062,        0.0117187500,        7.7362060547,       -4.3945312500,       29.4342041016
1489456361.4689409733,1489456361.4712290764,       -0.5947265625,        0.0024414062,        0.0117187500,       16.4489746094,       -5.7678222656,       24.7039794922
1489456361.4715108871,1489456361.4737999439,       -0.5947265625,        0.0024414062,        0.0117187500,       16.4489746094,       -5.7678222656,       24.7039794922
1489456361.4740829468,1489456361.4763729572,       -0.6010742188,        0.0073242188,        0.0380859375,       24.7802734375,       -8.3465576172,       15.4418945312
1489456361.4766559601,1489456361.4789619446,       -0.6010742188,        0.0073242188,        0.0380859375,       24.7802734375,       -8.3465576172,       15.4418945312
1489456361.4792521000,1489456361.4816679955,       -0.6010742188,        0.0073242188,        0.0380859375,       24.7802734375,      -11.0626220703,        4.5928955078
1489456361.4819569588,1489456361.4843649864,       -0.6010742188,        0.0073242188,        0.0380859375,       26.2145996094,      -11.0626220703,        4.5928955078
1489456361.4846520424,1489456361.4870650768,       -0.6166992188,       -0.2919921875,        0.0629882812,       26.2145996094,      -12.1917724609,       -2.0751953125
1489456361.4873530865,1489456361.4897720814,       -0.6166992188,       -0.2919921875,        0.0629882812,       25.4821777344,      -12.1917724609,       -2.0751953125
1489456361.4900610447,1489456361.4924728870,       -0.6166992188,       -0.2919921875,        0.0629882812,       25.4821777344,      -12.8479003906,       -6.1492919922
1489456361.4927599430,1489456361.4951760769,       -0.6166992188,       -0.2119140625,        0.0278320312,       25.8026123047,      -12.8479003906,       -6.1492919922
1489456361.4954640865,1489456361.4978790283,       -0.6049804688,       -0.2119140625,        0.0278320312,       29.7088623047,      -14.5416259766,      -10.7727050781
1489456361.4981710911,1489456361.5006299019,       -0.6049804688,       -0.2119140625,        0.0278320312,       28.1372070312,      -14.5416259766,      -10.7727050781
1489456361.5009241104,1489456361.5033409595,       -0.6049804688,       -0.2119140625,        0.0278320312,       32.0434570312,      -16.5863037109,      -18.5852050781
1489456361.5036339760,1489456361.5060501099,       -0.6098632812,       -0.2070312500,        0.0322265625,       31.7687988281,      -16.5863037109,      -18.5852050781
1489456361.5063428879,1489456361.5087549686,       -0.6098632812,       -0.2070312500,        0.0322265625,       35.6750488281,      -18.9666748047,      -27.7709960938
1489456361.5090980530,1489456361.5115089417,       -0.6098632812,       -0.2070312500,        0.0322265625,       36.3464355469,      -18.9666748047,      -27.7709960938
1489456361.5119099617,1489456361.5143229961,       -0.6098632812,       -0.2070312500,        0.0322265625,       40.2526855469,      -19.9584960938,      -37.4908447266
1489456361.5146160126,1489456361.5170300007,       -0.6401367188,       -0.3393554688,        0.0332031250,       40.2374267578,      -19.9584960938,      -37.4908447266
1489456361.5173220634,1489456361.5197091103,       -0.6401367188,       -0.3393554688,        0.0332031250,       40.2374267578,      -20.1721191406,      -46.2951660156
1489456361.5199930668,1489456361.5222859383,       -0.6401367188,       -0.3393554688,        0.0332031250,       42.8619384766,      -20.1721191406,      -46.2951660156
1489456361.5225710869,1489456361.5248589516,       -0.6401367188,       -0.3393554688,       -0.0917968750,       42.8619384766,      -20.8892822266,      -53.4515380859
1489456361.5251429081,1489456361.5274350643,       -0.6684570312,       -0.3588867188,       -0.0034179688,       43.7927246094,      -20.8892822266,      -53.4515380859
1489456361.5277190208,1489456361.5300838947,       -0.6684570312,       -0.3588867188,       -0.0034179688,       43.7927246094,      -20.8892822266,      -61.3555908203
1489456361.5303759575,1489456361.5327939987,       -0.6684570312,       -0.3588867188,       -0.0034179688,       44.0063476562,      -21.1334228516,      -61.3555908203
1489456361.5330879688,1489456361.5355069637,       -0.6684570312,       -0.3588867188,        0.0083007812,       44.0063476562,      -21.1334228516,      -68.8629150391
1489456361.5357999802,1489456361.5382161140,       -0.7363281250,       -0.3574218750,        0.0083007812,       42.2668457031,      -21.5454101562,      -68.8629150391
1489456361.5385088921,1489456361.5409359932,       -0.7363281250,       -0.3574218750,        0.0083007812,       42.2668457031,      -21.5454101562,      -72.0367431641
1489456361.5412290096,1489456361.5436420441,       -0.7363281250,       -0.3574218750,        0.0083007812,       33.7524414062,      -22.6745605469,      -72.0367431641
1489456361.5439350605,1489456361.5463490486,       -0.8471679688,       -0.0791015625,        0.0253906250,       33.7524414062,      -22.6745605469,      -71.8536376953
1489456361.5466399193,1489456361.5490651131,       -0.8471679688,       -0.0791015625,        0.0253906250,       19.3328857422,      -21.7590332031,      -71.8536376953
1489456361.5493559837,1489456361.5517721176,       -0.8471679688,       -0.0791015625,        0.0253906250,       19.3328857422,      -21.7590332031,      -67.8710937500
1489456361.5520639420,1489456361.5544779301,       -0.8471679688,       -0.0791015625,        0.0253906250,       10.1623535156,      -19.5007324219,      -67.8710937500
1489456361.5547699928,1489456361.5571858883,       -0.9433593750,        0.4677734375,        0.0278320312,       10.1623535156,      -19.5007324219,      -60.8673095703
1489456361.5574779510,1489456361.5599069595,       -0.9433593750,        0.4677734375,        0.0278320312,        6.5765380859,      -16.7083740234,      -60.8673095703
1489456361.5601949692,1489456361.5626049042,       -0.9433593750,        0.4677734375,        0.0278320312,        6.5765380859,      -16.7083740234,      -56.1370849609
1489456361.5628929138,1489456361.5653109550,       -0.9433593750,        0.4677734375,       -0.0971679688,        4.0740966797,      -14.6942138672,      -56.1370849609
1489456361.5656011105,1489456361.5680189133,       -0.9409179688,        0.5014648438,       -0.0009765625,        4.0740966797,      -14.6942138672,      -54.1992187500
1489456361.5683090687,1489456361.5706429482,       -0.9409179688,        0.5014648438,       -0.0009765625,        1.8310546875,      -12.8784179688,      -54.1992187500
1489456361.5709249973,1489456361.5732181072,       -0.9409179688,        0.5014648438,       -0.0009765625,        1.8310546875,      -12.8784179688,      -54.1992187500
1489456361.5735011101,1489456361.5757930279,       -0.9409179688,        0.2514648438,       -0.0161132812,        0.8239746094,      -11.4440917969,      -52.8106689453
1489456361.5761818886,1489456361.5784759521,       -0.8491210938,        0.3110351562,       -0.0161132812,        0.8239746094,      -11.4440917969,      -52.8106689453
1489456361.5787570477,1489456361.5811769962,       -0.8491210938,        0.3110351562,       -0.0161132812,        1.7089843750,      -10.8489990234,      -52.5817871094
1489456361.5814650059,1489456361.5838809013,       -0.8491210938,        0.3110351562,       -0.0161132812,        1.7089843750,      -10.8489990234,      -52.5817871094
1489456361.5841710567,1489456361.5865890980,       -0.8232421875,        0.0869140625,       -0.0488281250,        2.9449462891,      -10.6353759766,      -52.9022216797
1489456361.5868790150,1489456361.5893039703,       -0.8232421875,        0.0869140625,       -0.0488281250,        2.9449462891,      -10.6353759766,      -52.9022216797
1489456361.5895919800,1489456361.5920019150,       -0.8232421875,        0.0869140625,       -0.0488281250,        3.0670166016,      -10.2081298828,      -52.1850585938
1489456361.5922911167,1489456361.5947029591,       -0.8232421875,        0.0869140625,       -0.0488281250,        3.0670166016,      -10.2081298828,      -52.1850585938
1489456361.5949919224,1489456361.5974099636,       -0.8334960938,        0.0205078125,       -0.0327148438,        2.0904541016,       -9.5672607422,      -51.0711669922
1489456361.5976970196,1489456361.6001238823,       -0.8334960938,        0.0205078125,       -0.0327148438,        2.0904541016,       -9.5672607422,      -51.0711669922
1489456361.6004109383,1489456361.6028280258,       -0.8334960938,        0.0205078125,       -0.0327148438,       -0.5493164062,       -7.9040527344,      -49.5605468750
1489456361.6031129360,1489456361.6055290699,       -0.8334960938,        0.0205078125,       -0.0327148438,       -0.5493164062,       -7.9040527344,      -49.5605468750
1489456361.6058149338,1489456361.6082329750,       -0.8300781250,        0.0659179688,       -0.0175781250,       -3.1127929688,       -6.4697265625,      -47.5311279297
1489456361.6085169315,1489456361.6109418869,       -0.8300781250,        0.0659179688,       -0.0175781250,       -3.1127929688,       -6.4697265625,      -47.5311279297
1489456361.6112270355,1489456361.6136391163,       -0.8300781250,        0.0659179688,       -0.0175781250,       -5.5541992188,       -6.2408447266,      -45.3033447266
1489456361.6139249802,1489456361.6163430214,       -0.8300781250,        0.1909179688,       -0.0034179688,       -5.5541992188,       -6.2408447266,      -45.3033447266
1489456361.6166288853,1489456361.6190431118,       -0.8212890625,        0.1601562500,       -0.0034179688,       -6.0729980469,       -6.3934326172,      -43.6401367188
1489456361.6193211079,1489456361.6216158867,       -0.8212890625,        0.1601562500,       -0.0034179688,       -6.0729980469,       -6.3934326172,      -43.6401367188
1489456361.6218938828,1489456361.6241879463,       -0.8212890625,        0.1601562500,       -0.0034179688,       -5.6152343750,       -6.7596435547,      -43.5638427734
1489456361.6244649887,1489456361.6267590523,       -0.8212890625,        0.1997070312,        0.0185546875,       -5.6152343750,       -6.7596435547,      -43.5638427734
1489456361.6270360947,1489456361.6293659210,       -0.8032226562,        0.1997070312,        0.0185546875,       -4.6081542969,       -6.5917968750,      -43.4112548828
1489456361.6296520233,1489456361.6320669651,       -0.8032226562,        0.1997070312,        0.0185546875,       -4.6081542969,       -6.5917968750,      -43.4112548828
1489456361.6323540211,1489456361.6347720623,       -0.8032226562,        0.1997070312,        0.0185546875,       -3.4332275391,       -6.9122314453,      -43.7011718750
1489456361.6350569725,1489456361.6374731064,       -0.8105468750,        0.2041015625,        0.0170898438,       -3.4332275391,       -6.9122314453,      -43.7011718750
1489456361.6377580166,1489456361.6401739120,       -0.8105468750,        0.2041015625,        0.0170898438,       -2.8991699219,       -7.1868896484,      -43.0755615234
1489456361.6405670643,1489456361.6429820061,       -0.8105468750,        0.2041015625,        0.0170898438,       -2.8991699219,       -7.1868896484,      -43.0755615234
1489456361.6432681084,1489456361.6456840038,       -0.8105468750,        0.2041015625,        0.0170898438,       -2.8381347656,       -7.1716308594,      -42.2821044922
1489456361.6459701061,1489456361.6483840942,       -0.8115234375,        0.1552734375,        0.0073242188,       -2.8381347656,       -7.1716308594,      -42.2821044922
1489456361.6486699581,1489456361.6510970592,       -0.8115234375,        0.1552734375,        0.0073242188,       -2.7618408203,       -8.1024169922,      -41.4886474609
1489456361.6513829231,1489456361.6537990570,       -0.8115234375,        0.1552734375,        0.0073242188,       -2.7618408203,       -8.1024169922,      -41.4886474609
1489456361.6540839672,1489456361.6565010548,       -0.8115234375,        0.1552734375,        0.0209960938,       -1.9378662109,       -8.9874267578,      -39.9932861328
1489456361.6567869186,1489456361.6592459679,       -0.7939453125,        0.1435546875,        0.0209960938,       -1.9378662109,       -8.9874267578,      -39.9932861328
1489456361.6595320702,1489456361.6619410515,       -0.7939453125,        0.1435546875,        0.0209960938,        0.7324218750,       -9.6893310547,      -39.1387939453
1489456361.6622250080,1489456361.6646389961,       -0.7939453125,        0.1435546875,        0.0209960938,        0.7324218750,       -9.6893310547,      -39.1387939453
1489456361.6649250984,1489456361.6673390865,       -0.7832031250,        0.1313476562,        0.0307617188,        4.1656494141,       -9.9945068359,      -38.1622314453
1489456361.6676239967,1489456361.6699900627,       -0.7832031250,        0.1313476562,        0.0307617188,        4.1656494141,       -9.9945068359,      -38.1622314453
1489456361.6702690125,1489456361.6725630760,       -0.7832031250,        0.1313476562,        0.0307617188,        6.1187744141,      -10.4064941406,      -37.6281738281
1489456361.6728448868,1489456361.6751370430,       -0.7832031250,        0.1313476562,        0.0307617188,        6.1187744141,      -10.4064941406,      -37.6281738281
1489456361.6754169464,1489456361.6777079105,       -0.7749023438,        0.1137695312,        0.0395507812,        6.5307617188,      -10.7116699219,      -36.9262695312
1489456361.6779899597,1489456361.6803650856,       -0.7749023438,        0.1137695312,        0.0395507812,        6.5307617188,      -10.7116699219,      -36.9262695312
1489456361.6806550026,1489456361.6830730438,       -0.7749023438,        0.1137695312,        0.0395507812,        6.5307617188,      -10.5590820312,      -35.5529785156
1489456361.6833620071,1489456361.6857810020,       -0.7749023438,        0.1137695312,        0.0395507812,        6.8054199219,      -10.5590820312,      -35.5529785156
1489456361.6860709190,1489456361.6884810925,       -0.7641601562,        0.1259765625,        0.0507812500,        6.8054199219,      -10.6811523438,      -33.7066650391
1489456361.6887719631,1489456361.6912300587,       -0.7641601562,        0.1259765625,        0.0507812500,        6.6375732422,      -10.6811523438,      -33.7066650391
1489456361.6915180683,1489456361.6939330101,       -0.7641601562,        0.1259765625,        0.0507812500,        6.6375732422,      -10.3302001953,      -31.6009521484
1489456361.6942229271,1489456361.6966431141,       -0.7641601562,        0.1259765625,        0.0507812500,        5.5389404297,      -10.3302001953,      -31.6009521484
1489456361.6969308853,1489456361.6993520260,       -0.7558593750,        0.1289062500,        0.0473632812,        5.5389404297,      -10.7421875000,      -29.6325683594
1489456361.6996409893,1489456361.7020559311,       -0.7558593750,        0.1289062500,        0.0473632812,        4.3487548828,      -10.7421875000,      -29.6325683594
1489456361.7023460865,1489456361.7047588825,       -0.7558593750,        0.1289062500,        0.0473632812,        4.3487548828,      -10.0097656250,      -26.8402099609
1489456361.7051539421,1489456361.7075688839,       -0.7558593750,        0.0815429688,        0.0341796875,        4.9896240234,      -10.0097656250,      -26.8402099609
1489456361.7078590393,1489456361.7102890015,       -0.7519531250,        0.0815429688,        0.0341796875,        4.9896240234,       -9.4757080078,      -24.4903564453
1489456361.7105760574,1489456361.7129859924,       -0.7519531250,        0.0815429688,        0.0341796875,        4.3029785156,       -9.4757080078,      -24.4903564453
1489456361.7132730484,1489456361.7156879902,       -0.7519531250,        0.0815429688,        0.0341796875,        4.3029785156,       -9.1400146484,      -22.5677490234
1489456361.7159729004,1489456361.7183849812,       -0.7729492188,        0.0595703125,        0.0234375000,        4.1503906250,       -9.1400146484,      -22.5677490234
1489456361.7186698914,1489456361.7209839821,       -0.7729492188,        0.0595703125,        0.0234375000,        4.1503906250,       -8.3770751953,      -20.8587646484
1489456361.7212619781,1489456361.7235538960,       -0.7729492188,        0.0595703125,        0.0234375000,        4.0740966797,       -8.3770751953,      -20.8587646484
1489456361.7238330841,1489456361.7261240482,       -0.7729492188,        0.0595703125,        0.0234375000,        4.0740966797,       -8.3770751953,      -19.6228027344
1489456361.7264029980,1489456361.7286911011,       -0.7749023438,        0.1230468750,        0.0283203125,        3.1433105469,       -8.0413818359,      -19.6228027344
1489456361.7289779186,1489456361.7313930988,       -0.7749023438,        0.1230468750,        0.0283203125,        3.1433105469,       -8.0413818359,      -17.6239013672
1489456361.7316799164,1489456361.7340910435,       -0.7749023438,        0.1230468750,        0.0283203125,        2.0446777344,       -8.1481933594,      -17.6239013672
1489456361.7343780994,1489456361.7367908955,       -0.7749023438,        0.1230468750,        0.0283203125,        2.0446777344,       -8.1481933594,      -15.7470703125
1489456361.7370760441,1489456361.7395019531,       -0.7573242188,        0.1757812500,        0.0024414062,        2.0141601562,       -8.5906982422,      -15.7470703125
1489456361.7397880554,1489456361.7422010899,       -0.7573242188,        0.1757812500,        0.0024414062,        2.0141601562,       -8.5906982422,      -14.7705078125
1489456361.7424879074,1489456361.7449009418,       -0.7573242188,        0.1757812500,        0.0024414062,        2.0446777344,       -7.8277587891,      -14.7705078125
1489456361.7451879978,1489456361.7476000786,       -0.7573242188,        0.1757812500,       -0.0322265625,        2.0446777344,       -7.8277587891,      -13.3514404297
1489456361.7478859425,1489456361.7503070831,       -0.7416992188,        0.1674804688,       -0.0322265625,        2.7770996094,       -7.0495605469,      -13.3514404297
1489456361.7505919933,1489456361.7530810833,       -0.7416992188,        0.1674804688,       -0.0322265625,        2.7770996094,       -7.0495605469,      -12.1002197266
1489456361.7533600330,1489456361.7556560040,       -0.7416992188,        0.1674804688,       -0.0322265625,        2.8381347656,       -7.2174072266,      -12.1002197266
1489456361.7559340000,1489456361.7582299709,       -0.7246093750,        0.1435546875,       -0.0527343750,        2.8381347656,       -7.2174072266,      -12.1002197266
1489456361.7585089207,1489456361.7608931065,       -0.7246093750,        0.1435546875,       -0.0527343750,        2.2583007812,       -7.2631835938,      -10.6201171875
1489456361.7611730099,1489456361.7634658813,       -0.7246093750,        0.1435546875,       -0.0527343750,        2.2583007812,       -7.2631835938,      -10.6201171875
1489456361.7637450695,1489456361.7661559582,       -0.7246093750,        0.1435546875,       -0.0527343750,        1.8463134766,       -7.4615478516,       -9.0637207031
1489456361.7664299011,1489456361.7705481052,       -0.7250976562,        0.1308593750,       -0.0424804688,        1.8463134766,       -7.4615478516,       -9.0637207031
1489456361.7709391117,1489456361.7733659744,       -0.7250976562,        0.1308593750,       -0.0424804688,        1.0375976562,       -7.4005126953,       -7.3852539062
1489456361.7736480236,1489456361.7760629654,       -0.7250976562,        0.1308593750,       -0.0424804688,        0.4272460938,       -6.7443847656,       -5.9509277344
1489456361.7763450146,1489456361.7787609100,       -0.7333984375,        0.1357421875,       -0.0141601562,        0.4272460938,       -6.7443847656,       -5.9509277344
1489456361.7790958881,1489456361.7819049358,       -0.7333984375,        0.1357421875,       -0.0141601562,        0.5950927734,       -6.5307617188,       -4.8828125000
1489456361.7821829319,1489456361.7844710350,       -0.7333984375,        0.1357421875,       -0.0141601562,        0.5950927734,       -6.5307617188,       -4.8828125000
1489456361.7847459316,1489456361.7870349884,       -0.7333984375,        0.1357421875,       -0.0141601562,        1.4953613281,       -6.7901611328,       -3.6163330078
1489456361.7873098850,1489456361.7896590233,       -0.7275390625,        0.1196289062,        0.0102539062,        1.4953613281,       -6.7901611328,       -3.6163330078
1489456361.7899351120,1489456361.7922260761,       -0.7275390625,        0.1196289062,        0.0102539062,        0.9307861328,       -6.3629150391,       -2.1667480469
1489456361.7925009727,1489456361.7947890759,       -0.7275390625,        0.1196289062,        0.0102539062,        0.9307861328,       -6.3629150391,       -2.1667480469
1489456361.7950639725,1489456361.7973480225,       -0.7275390625,        0.1196289062,        0.0102539062,       -2.9754638672,       -6.0119628906,       -0.6256103516
1489456361.7976229191,1489456361.7999169827,       -0.7363281250,        0.1147460938,        0.0205078125,       -0.4272460938,       -6.0119628906,       -0.6256103516
1489456361.8001921177,1489456361.8024840355,       -0.7363281250,        0.1147460938,        0.0205078125,       -0.4272460938,       -6.0119628906,        0.4730224609
1489456361.8027589321,1489456361.8050479889,       -0.7363281250,        0.1147460938,        0.0205078125,       -1.4648437500,       -5.1116943359,        0.4730224609
1489456361.8053219318,1489456361.8076100349,       -0.7363281250,        0.1147460938,        0.0205078125,       -1.4648437500,       -5.1116943359,        1.5716552734
1489456361.8078830242,1489456361.8102180958,       -0.7377929688,        0.1308593750,        0.0151367188,       -1.9683837891,       -4.6691894531,        1.5716552734
1489456361.8104920387,1489456361.8127861023,       -0.7377929688,        0.1308593750,        0.0151367188,       -1.9683837891,       -4.6691894531,        1.5716552734
1489456361.8130590916,1489456361.8153460026,       -0.7377929688,        0.1308593750,        0.0151367188,       -2.3956298828,       -4.4403076172,        3.4179687500
1489456361.8156189919,1489456361.8178999424,       -0.7377929688,        0.1308593750,        0.0385742188,       -2.3956298828,       -4.4403076172,        3.4179687500
1489456361.8181729317,1489456361.8204710484,       -0.7280273438,        0.1469726562,        0.0385742188,       -2.5482177734,       -3.8604736328,        4.4708251953
1489456361.8207468987,1489456361.8230440617,       -0.7280273438,        0.1469726562,        0.0385742188,       -2.5482177734,       -3.8604736328,        4.4708251953
1489456361.8233160973,1489456361.8256120682,       -0.7280273438,        0.1469726562,        0.0385742188,       -2.1972656250,       -2.9144287109,        5.1422119141
1489456361.8258869648,1489456361.8281779289,       -0.7280273438,        0.0219726562,        0.0283203125,       -2.1972656250,       -2.9144287109,        5.1422119141
1489456361.8284530640,1489456361.8309009075,       -0.7338867188,        0.1191406250,        0.0283203125,       -2.1667480469,       -2.3498535156,        5.9509277344
1489456361.8311760426,1489456361.8334710598,       -0.7338867188,        0.1191406250,        0.0283203125,       -2.1667480469,       -2.3498535156,        5.9509277344
1489456361.8337430954,1489456361.8360419273,       -0.7338867188,        0.1191406250,        0.0283203125,       -1.9378662109,       -2.0446777344,        6.6528320312
1489456361.8364338875,1489456361.8387250900,       -0.8588867188,        0.1328125000,        0.0419921875,       -1.9378662109,       -2.0446777344,        6.6528320312
1489456361.8391809464,1489456361.8415958881,       -0.7529296875,        0.1328125000,        0.0419921875,       -1.9073486328,       -1.6632080078,        7.5683593750
1489456361.8418760300,1489456361.8442919254,       -0.7529296875,        0.1328125000,        0.0419921875,       -1.9073486328,       -1.6632080078,        7.5683593750
1489456361.8445720673,1489456361.8469889164,       -0.7529296875,        0.1328125000,        0.0419921875,       -1.8615722656,       -1.3885498047,        8.6364746094
1489456361.8472690582,1489456361.8496999741,       -0.7250976562,        0.1733398438,        0.0366210938,       -1.8615722656,       -1.3885498047,        8.6364746094
1489456361.8499801159,1489456361.8523979187,       -0.7250976562,        0.1733398438,        0.0366210938,       -1.6021728516,       -1.6174316406,        9.2010498047
1489456361.8526799679,1489456361.8550980091,       -0.7250976562,        0.1733398438,        0.0366210938,       -1.6021728516,       -1.6174316406,        9.2010498047
1489456361.8553791046,1489456361.8577940464,       -0.7250976562,        0.1733398438,        0.0366210938,       -0.6103515625,       -1.1291503906,        9.6893310547
1489456361.8580760956,1489456361.8605020046,       -0.7182617188,        0.1752929688,        0.0200195312,       -0.6103515625,       -1.1291503906,        9.6893310547
1489456361.8607850075,1489456361.8632040024,       -0.7182617188,        0.1752929688,        0.0200195312,       -0.1373291016,       -0.7781982422,       10.4827880859
1489456361.8634901047,1489456361.8659050465,       -0.7182617188,        0.1752929688,        0.0200195312,       -0.1373291016,       -0.7781982422,       10.4827880859
1489456361.8661930561,1489456361.8686110973,       -0.7182617188,        0.1752929688,       -0.0034179688,       -0.0305175781,       -0.9613037109,       11.1694335938
1489456361.8689069748,1489456361.8711988926,       -0.7270507812,        0.1713867188,       -0.0034179688,       -0.0305175781,       -0.9613037109,       11.1694335938
1489456361.8714790344,1489456361.8737750053,       -0.7270507812,        0.1713867188,       -0.0034179688,       -0.3814697266,       -0.9613037109,       11.7340087891
1489456361.8740539551,1489456361.8763489723,       -0.7270507812,        0.1713867188,       -0.0034179688,       -0.3814697266,       -0.9613037109,       11.7340087891
1489456361.8766310215,1489456361.8789520264,       -0.7270507812,        0.1606445312,        0.0073242188,       -0.3814697266,       -0.4119873047,       12.8021240234
1489456361.8792409897,1489456361.8816568851,       -0.7255859375,        0.1606445312,        0.0073242188,       -0.5187988281,       -0.4119873047,       12.8021240234
1489456361.8819448948,1489456361.8843679428,       -0.7255859375,        0.1606445312,        0.0073242188,       -0.5187988281,       -0.5340576172,       14.1143798828
1489456361.8846569061,1489456361.8870759010,       -0.7255859375,        0.1606445312,        0.0073242188,       -0.9918212891,       -0.5340576172,       14.1143798828
1489456361.8873639107,1489456361.8898320198,       -0.7290039062,        0.1499023438,       -0.0024414062,       -0.9918212891,       -0.5493164062,       15.8233642578
1489456361.8901178837,1489456361.8925349712,       -0.7290039062,        0.1499023438,       -0.0024414062,       -2.2583007812,       -0.5493164062,       15.8233642578
1489456361.8928220272,1489456361.8953199387,       -0.7290039062,        0.1499023438,       -0.0024414062,       -2.2583007812,       -0.4272460938,       17.2119140625
1489456361.8956089020,1489456361.8980360031,       -0.7290039062,        0.1499023438,       -0.0024414062,       -2.3040771484,       -0.4272460938,       17.2119140625
1489456361.8983240128,1489456361.9007520676,       -0.7324218750,        0.1401367188,        0.0063476562,       -2.3040771484,       -0.2899169922,       18.5852050781
1489456361.9011600018,1489456361.9035730362,       -0.7324218750,        0.1401367188,        0.0063476562,       -2.4871826172,       -0.2899169922,       18.5852050781
1489456361.9038600922,1489456361.9062819481,       -0.7324218750,        0.1401367188,        0.0063476562,       -2.4871826172,       -0.4272460938,       19.7601318359
1489456361.9065699577,1489456361.9090399742,       -0.7324218750,        0.1401367188,        0.0048828125,       -2.6245117188,       -0.4272460938,       19.7601318359
1489456361.9093270302,1489456361.9117419720,       -0.7309570312,        0.1591796875,        0.0048828125,       -2.6245117188,        0.0457763672,       21.7590332031
1489456361.9120280743,1489456361.9144508839,       -0.7309570312,        0.1591796875,        0.0048828125,       -2.7008056641,        0.0457763672,       21.7590332031
1489456361.9147369862,1489456361.9171528816,       -0.7309570312,        0.1591796875,        0.0048828125,       -2.7008056641,        0.0457763672,       23.4680175781
