time_stamp before, time_stamp after, Acceleration x, Acceleration y, Acceleration z, Gyro x, Gyro y, Gyro z
1489455940.0210459232,1489455940.0329411030,       -0.7124023438,        0.1855468750,        0.0576171875,       11.7034912109,       -6.9427490234,        4.7149658203
1489455940.0332520008,1489455940.0368208885,       -0.7124023438,        0.1855468750,        0.0576171875,       11.2304687500,       -6.9427490234,        4.7149658203
1489455940.0371239185,1489455940.0396580696,       -0.7148437500,        0.1694335938,        0.0693359375,        8.7432861328,       -6.6680908203,        4.9438476562
1489455940.0399379730,1489455940.0423169136,       -0.7148437500,        0.1694335938,        0.0693359375,        8.7432861328,       -6.6680908203,        4.9438476562
1489455940.0425949097,1489455940.0455811024,       -0.7148437500,        0.1694335938,        0.0693359375,        6.7749023438,       -6.5155029297,        5.8288574219
1489455940.0458569527,1489455940.0481379032,       -0.7148437500,        0.1694335938,        0.0800781250,        6.7749023438,       -6.5155029297,        6.3781738281
1489455940.0484120846,1489455940.0507860184,       -0.7084960938,        0.1835937500,        0.0800781250,        5.4931640625,       -6.2713623047,        6.3781738281
1489455940.0510580540,1489455940.0533308983,       -0.7084960938,        0.1835937500,        0.0800781250,        5.4931640625,       -6.2713623047,        6.3781738281
1489455940.0536019802,1489455940.0558860302,       -0.7084960938,        0.1835937500,        0.0800781250,        5.6152343750,       -6.3323974609,        6.8969726562
1489455940.0561580658,1489455940.0584468842,       -0.7084960938,        0.1835937500,        0.0776367188,        5.6152343750,       -6.3323974609,        6.8969726562
1489455940.0587170124,1489455940.0610079765,       -0.7070312500,        0.1757812500,        0.0776367188,        6.2866210938,       -5.8898925781,        7.4768066406
1489455940.0612790585,1489455940.0635640621,       -0.7070312500,        0.1757812500,        0.0776367188,        6.2866210938,       -5.8898925781,        7.4768066406
1489455940.0638349056,1489455940.0661189556,       -0.7070312500,        0.1757812500,        0.0776367188,        7.2021484375,       -5.1422119141,        8.7432861328
1489455940.0663900375,1489455940.0686709881,       -0.7070312500,        0.1757812500,        0.0815429688,        7.2021484375,       -5.1422119141,        8.7432861328
1489455940.0689411163,1489455940.0712239742,       -0.7133789062,        0.1567382812,        0.0815429688,        7.2479248047,       -4.6386718750,        9.9639892578
1489455940.0714950562,1489455940.0737791061,       -0.7133789062,        0.1567382812,        0.0815429688,        7.2479248047,       -4.6386718750,        9.9639892578
1489455940.0740499496,1489455940.0763349533,       -0.7133789062,        0.1567382812,        0.0815429688,        8.0566406250,       -4.2572021484,       11.0931396484
1489455940.0766150951,1489455940.0790300369,       -0.7133789062,        0.1826171875,        0.0830078125,        8.0566406250,       -4.2572021484,       11.0931396484
1489455940.0793259144,1489455940.0816209316,       -0.7119140625,        0.1826171875,        0.0830078125,        8.6669921875,       -4.6844482422,       11.6271972656
1489455940.0819010735,1489455940.0841879845,       -0.7119140625,        0.1826171875,        0.0830078125,        8.6669921875,       -4.6844482422,       11.6271972656
1489455940.0844669342,1489455940.0867578983,       -0.7119140625,        0.1826171875,        0.0830078125,        8.6669921875,       -4.6844482422,       11.5966796875
1489455940.0870380402,1489455940.0893919468,       -0.7119140625,        0.2099609375,        0.0600585938,        9.2620849609,       -4.6844482422,       11.5966796875
1489455940.0896708965,1489455940.0919599533,       -0.6962890625,        0.2099609375,        0.0600585938,        9.2620849609,       -4.6844482422,       12.1459960938
1489455940.0922400951,1489455940.0945279598,       -0.6962890625,        0.2099609375,        0.0600585938,       10.6048583984,       -4.5318603516,       12.1459960938
1489455940.0949659348,1489455940.0972568989,       -0.6962890625,        0.2099609375,        0.0600585938,       10.6048583984,       -4.5318603516,       12.2680664062
1489455940.0975399017,1489455940.1000299454,       -0.6918945312,        0.2084960938,        0.0566406250,       11.5966796875,       -4.1198730469,       12.2680664062
1489455940.1003189087,1489455940.1027209759,       -0.6918945312,        0.2084960938,        0.0566406250,       11.5966796875,       -4.1198730469,       12.2985839844
1489455940.1030080318,1489455940.1054069996,       -0.6918945312,        0.2084960938,        0.0566406250,       11.8103027344,       -4.0740966797,       12.2985839844
1489455940.1056981087,1489455940.1080999374,       -0.6918945312,        0.2084960938,        0.0566406250,       11.8103027344,       -4.0740966797,       12.1154785156
1489455940.1083869934,1489455940.1108319759,       -0.7133789062,        0.1987304688,        0.0756835938,       11.7797851562,       -4.6844482422,       12.1154785156
1489455940.1111190319,1489455940.1135230064,       -0.7133789062,        0.1987304688,        0.0756835938,       11.7797851562,       -4.6844482422,       12.2680664062
1489455940.1138110161,1489455940.1162090302,       -0.7133789062,        0.1987304688,        0.0756835938,       12.5885009766,       -4.8065185547,       12.2680664062
1489455940.1164970398,1489455940.1189150810,       -0.7133789062,        0.1987304688,        0.0634765625,       12.5885009766,       -4.8065185547,       12.7410888672
1489455940.1192018986,1489455940.1216020584,       -0.7124023438,        0.1933593750,        0.0634765625,       12.6037597656,       -4.6081542969,       12.7410888672
1489455940.1218891144,1489455940.1242930889,       -0.7124023438,        0.1933593750,        0.0634765625,       12.6037597656,       -4.6081542969,       13.5803222656
1489455940.1245789528,1489455940.1269750595,       -0.7124023438,        0.1933593750,        0.0634765625,       12.7258300781,       -4.0435791016,       13.5803222656
1489455940.1272630692,1489455940.1296780109,       -0.7124023438,        0.1855468750,        0.0527343750,       12.7258300781,       -4.0435791016,       14.8925781250
1489455940.1299650669,1489455940.1323640347,       -0.7089843750,        0.1855468750,        0.0527343750,       12.0697021484,       -3.7078857422,       14.8925781250
1489455940.1326510906,1489455940.1350491047,       -0.7089843750,        0.1855468750,        0.0527343750,       12.0697021484,       -3.7078857422,       18.7988281250
1489455940.1353371143,1489455940.1377370358,       -0.7089843750,        0.1855468750,        0.0527343750,       10.9405517578,       -3.9215087891,       16.2048339844
1489455940.1380240917,1489455940.1404340267,       -0.7045898438,        0.1972656250,        0.0566406250,       10.9405517578,       -3.9215087891,       16.2048339844
1489455940.1407220364,1489455940.1431229115,       -0.7045898438,        0.1972656250,        0.0566406250,       10.2386474609,       -3.8146972656,       17.6696777344
1489455940.1434090137,1489455940.1458079815,       -0.7045898438,        0.1972656250,        0.0566406250,       10.2386474609,       -3.8146972656,       21.5759277344
1489455940.1460950375,1489455940.1484980583,       -0.7045898438,        0.1972656250,        0.0566406250,       10.0708007812,       -3.6926269531,       19.9737548828
1489455940.1488230228,1489455940.1512041092,       -0.7114257812,        0.1625976562,        0.0766601562,       10.0708007812,       -3.6926269531,       19.9737548828
1489455940.1514909267,1489455940.1539480686,       -0.7114257812,        0.1625976562,        0.0766601562,        9.0484619141,       -3.3569335938,       21.0723876953
1489455940.1542348862,1489455940.1567420959,       -0.7114257812,        0.1625976562,        0.0766601562,        9.0484619141,       -3.3569335938,       21.0723876953
1489455940.1570301056,1489455940.1594569683,       -0.7114257812,        0.1625976562,        0.1186523438,        8.7585449219,       -2.8381347656,       21.6522216797
1489455940.1598560810,1489455940.1622729301,       -0.7470703125,        0.1406250000,        0.1186523438,        8.7585449219,       -2.8381347656,       21.6522216797
1489455940.1625590324,1489455940.1649820805,       -0.7470703125,        0.1406250000,        0.1186523438,        9.1247558594,       -2.5482177734,       22.5219726562
1489455940.1652669907,1489455940.1676819324,       -0.7470703125,        0.1406250000,        0.1186523438,        9.1247558594,       -2.5482177734,       22.5219726562
1489455940.1679658890,1489455940.1703510284,       -0.7421875000,        0.1899414062,        0.0952148438,        9.6893310547,       -2.7008056641,       23.3306884766
1489455940.1706290245,1489455940.1729199886,       -0.7421875000,        0.1899414062,        0.0952148438,        9.6893310547,       -2.7008056641,       23.3306884766
1489455940.1731989384,1489455940.1754879951,       -0.7421875000,        0.1899414062,        0.0952148438,       10.8184814453,       -2.3803710938,       24.0325927734
1489455940.1757719517,1489455940.1780679226,       -0.7421875000,        0.1899414062,        0.0952148438,       10.8184814453,       -2.3803710938,       24.0325927734
1489455940.1783499718,1489455940.1807200909,       -0.7553710938,        0.1655273438,        0.0898437500,       11.8255615234,       -1.4953613281,       24.6887207031
1489455940.1810069084,1489455940.1833839417,       -0.7553710938,        0.1655273438,        0.0898437500,       11.8255615234,       -1.4953613281,       24.6887207031
1489455940.1836700439,1489455940.1860580444,       -0.7553710938,        0.1655273438,        0.0898437500,       11.8713378906,       -1.0681152344,       25.1464843750
1489455940.1863439083,1489455940.1887259483,       -0.7553710938,        0.1655273438,        0.0898437500,       11.8713378906,       -1.0681152344,       25.1464843750
1489455940.1891059875,1489455940.1914050579,       -0.7470703125,        0.1928710938,        0.0810546875,       12.0086669922,       -1.2054443359,       26.2756347656
1489455940.1916871071,1489455940.1939799786,       -0.7470703125,        0.1928710938,        0.0810546875,       12.0086669922,       -1.2054443359,       26.2756347656
1489455940.1942639351,1489455940.1965548992,       -0.7470703125,        0.1928710938,        0.0810546875,       13.3666992188,       -1.2359619141,       27.1759033203
1489455940.1968379021,1489455940.1993520260,       -0.7470703125,        0.1928710938,        0.0810546875,       13.3666992188,       -1.2359619141,       27.1759033203
1489455940.1996340752,1489455940.2019259930,       -0.7299804688,        0.2216796875,        0.0761718750,       14.9841308594,       -0.9460449219,       27.4047851562
1489455940.2022089958,1489455940.2044999599,       -0.7299804688,        0.2216796875,        0.0761718750,       14.9841308594,       -0.9460449219,       27.4047851562
1489455940.2047829628,1489455940.2070820332,       -0.7299804688,        0.2216796875,        0.0761718750,       16.7388916016,       -1.4648437500,       28.4118652344
1489455940.2073650360,1489455940.2098701000,       -0.7299804688,        0.2216796875,        0.0644531250,       16.7388916016,       -1.4648437500,       28.4118652344
1489455940.2101600170,1489455940.2125730515,       -0.7324218750,        0.2104492188,        0.0644531250,       17.2424316406,       -1.4038085938,       29.3579101562
1489455940.2128629684,1489455940.2152609825,       -0.7324218750,        0.2104492188,        0.0644531250,       17.2424316406,       -1.4038085938,       29.3579101562
1489455940.2155480385,1489455940.2179489136,       -0.7324218750,        0.2104492188,        0.0644531250,       17.8375244141,       -0.6408691406,       30.7617187500
1489455940.2182369232,1489455940.2205770016,       -0.7324218750,        0.2001953125,        0.0737304688,       17.8375244141,       -0.6408691406,       30.7617187500
1489455940.2208600044,1489455940.2231490612,       -0.7329101562,        0.2001953125,        0.0737304688,       18.0969238281,       -0.4577636719,       32.5317382812
1489455940.2235438824,1489455940.2258360386,       -0.7329101562,        0.2001953125,        0.0737304688,       18.0969238281,       -0.4577636719,       32.5317382812
1489455940.2261168957,1489455940.2284131050,       -0.7329101562,        0.2001953125,        0.0737304688,       18.2800292969,       -0.1678466797,       34.1186523438
1489455940.2286949158,1489455940.2310979366,       -0.7231445312,        0.2133789062,        0.0830078125,       18.2800292969,       -0.1678466797,       34.1186523438
1489455940.2313880920,1489455940.2337989807,       -0.7231445312,        0.2133789062,        0.0830078125,       18.2800292969,        0.3967285156,       35.9497070312
1489455940.2340879440,1489455940.2364890575,       -0.7231445312,        0.2133789062,        0.0830078125,       18.9514160156,        0.3967285156,       35.9497070312
1489455940.2367770672,1489455940.2393870354,       -0.7231445312,        0.2133789062,        0.0830078125,       18.9514160156,        1.0681152344,       37.7502441406
1489455940.2396719456,1489455940.2419641018,       -0.7167968750,        0.2202148438,        0.0742187500,       19.4244384766,        1.0681152344,       37.7502441406
1489455940.2422459126,1489455940.2445399761,       -0.7167968750,        0.2202148438,        0.0742187500,       19.4244384766,        1.7242431641,       39.0777587891
1489455940.2448229790,1489455940.2471079826,       -0.7167968750,        0.2202148438,        0.0742187500,       19.5159912109,        1.7242431641,       39.0777587891
1489455940.2473900318,1489455940.2498419285,       -0.7167968750,        0.2202148438,        0.0742187500,       19.5159912109,        1.7242431641,       40.6188964844
1489455940.2501289845,1489455940.2525091171,       -0.7192382812,        0.2197265625,        0.0795898438,       19.8364257812,        2.0599365234,       40.6188964844
1489455940.2527940273,1489455940.2552599907,       -0.7192382812,        0.2197265625,        0.0795898438,       19.8364257812,        2.0599365234,       42.0837402344
1489455940.2555480003,1489455940.2579379082,       -0.7192382812,        0.2197265625,        0.0795898438,       19.3328857422,        2.3193359375,       42.0837402344
1489455940.2594408989,1489455940.2617421150,       -0.7192382812,        0.2089843750,        0.0874023438,       19.0277099609,        3.0364990234,       43.3654785156
1489455940.2620260715,1489455940.2643170357,       -0.7192382812,        0.2089843750,        0.0874023438,       19.0277099609,        3.0364990234,       43.3654785156
1489455940.2645990849,1489455940.2668869495,       -0.7192382812,        0.2089843750,        0.0874023438,       18.6004638672,        3.4179687500,       44.6166992188
1489455940.2671680450,1489455940.2694671154,       -0.7192382812,        0.2089843750,        0.0874023438,       18.6004638672,        3.4179687500,       44.6166992188
1489455940.2697479725,1489455940.2720339298,       -0.7324218750,        0.2182617188,        0.1025390625,       17.5781250000,        4.0893554688,       46.2036132812
1489455940.2723159790,1489455940.2745990753,       -0.7324218750,        0.2182617188,        0.1025390625,       17.5781250000,        4.0893554688,       46.2036132812
1489455940.2748820782,1489455940.2771749496,       -0.7324218750,        0.2182617188,        0.1025390625,       17.5781250000,        4.8217773438,       46.9512939453
1489455940.2774550915,1489455940.2797970772,       -0.7324218750,        0.2182617188,        0.1025390625,       17.5628662109,        4.8217773438,       46.9512939453
1489455940.2800779343,1489455940.2823770046,       -0.7382812500,        0.2470703125,        0.0878906250,       17.5628662109,        4.8217773438,       47.2412109375
1489455940.2826569080,1489455940.2849500179,       -0.7382812500,        0.2470703125,        0.0878906250,       17.8222656250,        4.6081542969,       47.2412109375
1489455940.2852311134,1489455940.2875180244,       -0.7382812500,        0.2470703125,        0.0878906250,       17.8222656250,        4.6081542969,       47.9125976562
1489455940.2879099846,1489455940.2902159691,       -0.7382812500,        0.2470703125,        0.0878906250,       17.8680419922,        4.1961669922,       47.9125976562
1489455940.2904970646,1489455940.2927858829,       -0.7451171875,        0.2465820312,        0.0859375000,       17.8680419922,        4.1961669922,       47.9125976562
1489455940.2930669785,1489455940.2953619957,       -0.7451171875,        0.2465820312,        0.0859375000,       18.0358886719,        3.9978027344,       48.1719970703
1489455940.2956430912,1489455940.2979381084,       -0.7451171875,        0.2465820312,        0.0859375000,       18.0358886719,        3.9978027344,       48.1719970703
1489455940.2982199192,1489455940.3005928993,       -0.7451171875,        0.2465820312,        0.0708007812,       18.6462402344,        4.2114257812,       48.1109619141
1489455940.3008749485,1489455940.3031699657,       -0.7329101562,        0.2690429688,        0.0708007812,       18.6462402344,        4.2114257812,       48.1109619141
1489455940.3034529686,1489455940.3057410717,       -0.7329101562,        0.2690429688,        0.0708007812,       19.9737548828,        4.0435791016,       48.2025146484
1489455940.3060240746,1489455940.3083100319,       -0.7329101562,        0.2690429688,        0.0708007812,       19.9737548828,        4.0435791016,       48.2025146484
1489455940.3085908890,1489455940.3110580444,       -0.7329101562,        0.2822265625,        0.0600585938,       21.3317871094,        4.0588378906,       48.7365722656
1489455940.3113389015,1489455940.3136270046,       -0.7338867188,        0.2822265625,        0.0600585938,       21.3317871094,        4.0588378906,       48.7365722656
1489455940.3139069080,1489455940.3162009716,       -0.7338867188,        0.2822265625,        0.0600585938,       21.2554931641,        4.0435791016,       48.8586425781
1489455940.3164811134,1489455940.3187749386,       -0.7338867188,        0.2822265625,        0.0600585938,       21.2554931641,        4.0435791016,       48.8586425781
1489455940.3192300797,1489455940.3215138912,       -0.7338867188,        0.2778320312,        0.0600585938,       22.0336914062,        4.3487548828,       48.9196777344
1489455940.3217968941,1489455940.3240919113,       -0.7290039062,        0.2778320312,        0.0600585938,       22.0336914062,        4.3487548828,       48.9196777344
1489455940.3243720531,1489455940.3266689777,       -0.7290039062,        0.2778320312,        0.0600585938,       22.3846435547,        4.8370361328,       49.3774414062
1489455940.3269510269,1489455940.3292601109,       -0.7290039062,        0.2778320312,        0.0600585938,       22.3846435547,        4.8370361328,       49.3774414062
1489455940.3295431137,1489455940.3318378925,       -0.7436523438,        0.2773437500,        0.0561523438,       22.3846435547,        5.1574707031,       49.1180419922
1489455940.3321199417,1489455940.3344089985,       -0.7436523438,        0.2773437500,        0.0561523438,       22.1557617188,        5.1574707031,       49.1180419922
1489455940.3346910477,1489455940.3369789124,       -0.7436523438,        0.2773437500,        0.0561523438,       22.1557617188,        5.5236816406,       49.8962402344
1489455940.3372609615,1489455940.3396549225,       -0.7436523438,        0.2773437500,        0.0561523438,       21.6979980469,        5.5236816406,       49.8962402344
1489455940.3399438858,1489455940.3424160480,       -0.7612304688,        0.2851562500,        0.0239257812,       21.6979980469,        6.1950683594,       50.9033203125
1489455940.3427019119,1489455940.3449978828,       -0.7612304688,        0.2851562500,        0.0239257812,       20.6298828125,        6.1950683594,       50.9033203125
1489455940.3452789783,1489455940.3475680351,       -0.7612304688,        0.2851562500,        0.0239257812,       20.6298828125,        6.1950683594,       51.8646240234
1489455940.3478488922,1489455940.3503201008,       -0.7612304688,        0.2851562500,        0.0239257812,       19.9890136719,        6.4697265625,       51.8646240234
1489455940.3507120609,1489455940.3530070782,       -0.7724609375,        0.2939453125,        0.0161132812,       19.9890136719,        6.4697265625,       52.5360107422
1489455940.3532900810,1489455940.3561720848,       -0.7724609375,        0.2939453125,        0.0161132812,       18.9056396484,        6.8359375000,       52.5360107422
1489455940.3564569950,1489455940.3587501049,       -0.7724609375,        0.2939453125,        0.0161132812,       18.9056396484,        6.7443847656,       53.4362792969
1489455940.3591179848,1489455940.3614020348,       -0.7724609375,        0.2939453125,        0.0156250000,       18.0816650391,        6.7443847656,       53.4362792969
1489455940.3616828918,1489455940.3639678955,       -0.7617187500,        0.2958984375,        0.0156250000,       18.0816650391,        6.7443847656,       54.0161132812
1489455940.3642489910,1489455940.3665390015,       -0.7617187500,        0.2958984375,        0.0156250000,       17.5323486328,        6.0882568359,       54.0161132812
1489455940.3668200970,1489455940.3691120148,       -0.7617187500,        0.2958984375,        0.0156250000,       17.5323486328,        6.0882568359,       57.9223632812
1489455940.3693940639,1489455940.3716890812,       -0.7617187500,        0.3041992188,        0.0043945312,       17.3645019531,        5.6152343750,       54.7332763672
1489455940.3719730377,1489455940.3742589951,       -0.7705078125,        0.3041992188,        0.0043945312,       17.3645019531,        5.6152343750,       54.7332763672
1489455940.3745429516,1489455940.3768301010,       -0.7705078125,        0.3041992188,        0.0043945312,       16.6931152344,        5.1116943359,       55.3436279297
1489455940.3771109581,1489455940.3794450760,       -0.7705078125,        0.3041992188,        0.0043945312,       16.6931152344,        5.1116943359,       55.3436279297
1489455940.3797268867,1489455940.3820199966,       -0.7705078125,        0.3125000000,       -0.0073242188,       16.5252685547,        5.4626464844,       55.4199218750
1489455940.3823029995,1489455940.3845920563,       -0.7812500000,        0.3125000000,       -0.0073242188,       16.5252685547,        5.4626464844,       55.4199218750
1489455940.3848729134,1489455940.3871679306,       -0.7812500000,        0.3125000000,       -0.0073242188,       16.3269042969,        5.4931640625,       56.3659667969
1489455940.3874499798,1489455940.3897869587,       -0.7812500000,        0.3125000000,       -0.0073242188,       16.3269042969,        5.4931640625,       56.3659667969
1489455940.3900680542,1489455940.3923571110,       -0.7768554688,        0.3125000000,        0.0043945312,       16.1590576172,        5.7830810547,       56.9152832031
1489455940.3926379681,1489455940.3949251175,       -0.7768554688,        0.3125000000,        0.0043945312,       16.1590576172,        5.7830810547,       56.9152832031
1489455940.3952078819,1489455940.3974919319,       -0.7768554688,        0.3125000000,        0.0043945312,       15.2587890625,        6.1798095703,       58.2580566406
1489455940.3977739811,1489455940.4001450539,       -0.7768554688,        0.3125000000,        0.0043945312,       15.2587890625,        6.1798095703,       58.2580566406
1489455940.4004271030,1489455940.4027249813,       -0.7880859375,        0.3041992188,        0.0205078125,       14.6789550781,        6.6986083984,       59.3109130859
1489455940.4030079842,1489455940.4053039551,       -0.7880859375,        0.3041992188,        0.0205078125,       14.6789550781,        6.6986083984,       59.3109130859
1489455940.4055869579,1489455940.4078810215,       -0.7880859375,        0.3041992188,        0.0205078125,       14.6789550781,        7.4005126953,       60.6079101562
1489455940.4081640244,1489455940.4106390476,       -0.7880859375,        0.3041992188,        0.0205078125,       13.7023925781,        7.4005126953,       60.6079101562
1489455940.4109289646,1489455940.4133439064,       -0.8208007812,        0.2905273438,        0.0292968750,       13.7023925781,        8.4228515625,       61.9964599609
1489455940.4137349129,1489455940.4161550999,       -0.8208007812,        0.2905273438,        0.0292968750,       11.6577148438,        8.4228515625,       61.9964599609
1489455940.4164450169,1489455940.4188749790,       -0.8208007812,        0.2905273438,        0.0292968750,       11.6577148438,        8.6822509766,       64.3920898438
1489455940.4191660881,1489455940.4215779305,       -0.8208007812,        0.2905273438,        0.0292968750,       10.1013183594,        8.6822509766,       64.3920898438
1489455940.4218668938,1489455940.4242789745,       -0.8081054688,        0.3061523438,        0.0449218750,       10.1013183594,        9.5214843750,       66.7877197266
1489455940.4245679379,1489455940.4269840717,       -0.8081054688,        0.3061523438,        0.0449218750,        8.8348388672,        9.5214843750,       66.7877197266
1489455940.4272680283,1489455940.4296898842,       -0.8081054688,        0.3061523438,        0.0449218750,        8.8348388672,        9.8724365234,       69.1833496094
1489455940.4299759865,1489455940.4323871136,       -0.8081054688,        0.2978515625,        0.0595703125,        7.3089599609,        9.8724365234,       69.1833496094
1489455940.4326739311,1489455940.4350810051,       -0.8271484375,        0.2978515625,        0.0595703125,        7.3089599609,       10.5438232422,       71.2585449219
1489455940.4353680611,1489455940.4377849102,       -0.8271484375,        0.2978515625,        0.0595703125,        6.2866210938,       10.5438232422,       71.2585449219
1489455940.4380741119,1489455940.4404189587,       -0.8271484375,        0.2978515625,        0.0595703125,        6.2866210938,       10.7421875000,       73.3489990234
1489455940.4406991005,1489455940.4431459904,       -0.8559570312,        0.2783203125,        0.0834960938,        5.4779052734,       10.7421875000,       73.3489990234
1489455940.4434280396,1489455940.4457221031,       -0.8559570312,        0.2783203125,        0.0834960938,        5.4779052734,       10.7421875000,       75.4699707031
1489455940.4460029602,1489455940.4482929707,       -0.8559570312,        0.2783203125,        0.0834960938,        4.4555664062,       11.1694335938,       75.4699707031
1489455940.4485740662,1489455940.4510281086,       -0.8559570312,        0.2783203125,        0.0834960938,        4.4555664062,       11.1694335938,       77.7587890625
1489455940.4513170719,1489455940.4536979198,       -0.8818359375,        0.2954101562,        0.1127929688,        4.4708251953,       11.2152099609,       77.7587890625
1489455940.4539849758,1489455940.4566969872,       -0.8818359375,        0.2954101562,        0.1127929688,        4.4708251953,       11.2152099609,       80.2307128906
1489455940.4569818974,1489455940.4593639374,       -0.8818359375,        0.2954101562,        0.1127929688,        5.7983398438,       10.8184814453,       80.2307128906
1489455940.4596469402,1489455940.4619379044,       -0.8818359375,        0.2954101562,        0.2377929688,        5.7983398438,       10.8184814453,       82.7178955078
1489455940.4622189999,1489455940.4645109177,       -0.8935546875,        0.2817382812,        0.1337890625,        6.6833496094,        9.9029541016,       82.7178955078
1489455940.4647879601,1489455940.4670779705,       -0.8935546875,        0.2817382812,        0.1337890625,        6.6833496094,        9.9029541016,       82.7178955078
1489455940.4673569202,1489455940.4696590900,       -0.8935546875,        0.2817382812,        0.1337890625,        8.3007812500,        8.2397460938,       85.6323242188
1489455940.4699370861,1489455940.4722299576,       -0.8935546875,        0.2817382812,        0.1293945312,        8.3007812500,        8.2397460938,       85.6323242188
1489455940.4725100994,1489455940.4747979641,       -0.9228515625,        0.2641601562,        0.1293945312,       10.0402832031,        7.0037841797,       87.7685546875
1489455940.4750790596,1489455940.4773709774,       -0.9228515625,        0.2641601562,        0.1293945312,       10.0402832031,        7.0037841797,       87.7685546875
1489455940.4776520729,1489455940.4799880981,       -0.9228515625,        0.2641601562,        0.1293945312,       11.9781494141,        5.6457519531,       90.1336669922
1489455940.4803779125,1489455940.4826679230,       -0.9228515625,        0.2783203125,        0.0971679688,       11.9781494141,        5.6457519531,       90.1336669922
1489455940.4829490185,1489455940.4852399826,       -0.9594726562,        0.2783203125,        0.0971679688,       14.0228271484,        3.8452148438,       92.9565429688
1489455940.4855220318,1489455940.4878060818,       -0.9594726562,        0.2783203125,        0.0971679688,       14.0228271484,        3.8452148438,       92.9565429688
1489455940.4880869389,1489455940.4904119968,       -0.9594726562,        0.2783203125,        0.0971679688,       17.4560546875,        1.7852783203,       95.1080322266
1489455940.4906940460,1489455940.4929869175,       -0.9594726562,        0.2612304688,        0.0908203125,       17.4560546875,        1.7852783203,       95.1080322266
1489455940.4932689667,1489455940.4955570698,       -0.9863281250,        0.2612304688,        0.0908203125,       21.2707519531,        0.2136230469,       98.0224609375
1489455940.4958410263,1489455940.4981300831,       -0.9863281250,        0.2612304688,        0.0908203125,       21.2707519531,        0.2136230469,       98.0224609375
1489455940.4984149933,1489455940.5008618832,       -0.9863281250,        0.2612304688,        0.0908203125,       23.9257812500,       -2.2277832031,      100.2960205078
1489455940.5011439323,1489455940.5034289360,       -1.0097656250,        0.2402343750,        0.0815429688,       23.9257812500,       -2.2277832031,      100.2960205078
1489455940.5037100315,1489455940.5060079098,       -1.0097656250,        0.2402343750,        0.0815429688,       27.8320312500,       -4.8065185547,      102.6916503906
1489455940.5062909126,1489455940.5085790157,       -1.0097656250,        0.2402343750,        0.0815429688,       27.6031494141,       -4.8065185547,      102.6916503906
1489455940.5089540482,1489455940.5112419128,       -1.0097656250,        0.2402343750,        0.0815429688,       27.6031494141,       -7.7514648438,      103.6224365234
1489455940.5115249157,1489455940.5138170719,       -1.0488281250,        0.2309570312,        0.0839843750,       31.4788818359,       -7.7514648438,      103.6224365234
1489455940.5140979290,1489455940.5163850784,       -1.0488281250,        0.2309570312,        0.0839843750,       31.4788818359,       -7.7514648438,      104.8278808594
1489455940.5166649818,1489455940.5189599991,       -1.0488281250,        0.2309570312,        0.0839843750,       34.6221923828,      -11.0931396484,      104.8278808594
1489455940.5192461014,1489455940.5215361118,       -1.0488281250,        0.2309570312,        0.0839843750,       34.6221923828,      -11.0931396484,      108.7341308594
1489455940.5218200684,1489455940.5241060257,       -1.0717773438,        0.2416992188,        0.0581054688,       37.9943847656,      -13.8397216797,      107.0709228516
1489455940.5243890285,1489455940.5266819000,       -1.0717773438,        0.2416992188,        0.0581054688,       37.9943847656,      -13.8397216797,      107.0709228516
1489455940.5269649029,1489455940.5292930603,       -1.0717773438,        0.2416992188,        0.0581054688,       43.1365966797,      -16.7541503906,      108.5968017578
1489455940.5295848846,1489455940.5320010185,       -1.0717773438,        0.2416992188,        0.0581054688,       43.1365966797,      -16.7541503906,      108.5968017578
1489455940.5322909355,1489455940.5347120762,       -1.0688476562,        0.2255859375,        0.0913085938,       53.3905029297,      -20.6146240234,      107.9864501953
1489455940.5350050926,1489455940.5374190807,       -1.0688476562,        0.2255859375,        0.0913085938,       53.3905029297,      -20.6146240234,      107.9864501953
1489455940.5377099514,1489455940.5400800705,       -1.0688476562,        0.2255859375,        0.0913085938,       62.6525878906,      -24.1699218750,      108.6120605469
1489455940.5403659344,1489455940.5426590443,       -1.0688476562,        0.2255859375,        0.0913085938,       62.6525878906,      -24.1699218750,      108.6120605469
1489455940.5430560112,1489455940.5453751087,       -1.0957031250,        0.2485351562,        0.0600585938,       72.3419189453,      -26.8249511719,      110.1684570312
1489455940.5456609726,1489455940.5479578972,       -1.0957031250,        0.2485351562,        0.0600585938,       72.3419189453,      -26.8249511719,      110.1684570312
1489455940.5482420921,1489455940.5507869720,       -1.0957031250,        0.2485351562,        0.0600585938,       82.8704833984,      -28.4729003906,      110.9466552734
1489455940.5510799885,1489455940.5534710884,       -1.0957031250,        0.2807617188,        0.0712890625,       82.8704833984,      -28.4729003906,      110.9466552734
1489455940.5537619591,1489455940.5568239689,       -1.1127929688,        0.2807617188,        0.0712890625,       92.2088623047,      -29.6783447266,      111.4349365234
1489455940.5571110249,1489455940.5594708920,       -1.1127929688,        0.2807617188,        0.0712890625,       92.2088623047,      -29.6783447266,      111.4349365234
1489455940.5597560406,1489455940.5620529652,       -1.1127929688,        0.2807617188,        0.0712890625,      102.2033691406,      -29.2053222656,      111.6027832031
1489455940.5623359680,1489455940.5646231174,       -1.1347656250,        0.2553710938,        0.1108398438,      102.2033691406,      -29.2053222656,      111.6027832031
1489455940.5649070740,1489455940.5671949387,       -1.1347656250,        0.2553710938,        0.1108398438,      103.9428710938,      -28.0609130859,      109.7106933594
1489455940.5674819946,1489455940.5698239803,       -1.1347656250,        0.2553710938,        0.1108398438,      103.9428710938,      -28.0609130859,      109.7106933594
1489455940.5701100826,1489455940.5723969936,       -1.1347656250,        0.2553710938,        0.1108398438,       94.8181152344,      -28.8391113281,      105.0415039062
1489455940.5726850033,1489455940.5749809742,       -1.1010742188,        0.0795898438,        0.1767578125,       94.8181152344,      -28.8391113281,      105.0415039062
1489455940.5752649307,1489455940.5775499344,       -1.1010742188,        0.0795898438,        0.1767578125,       90.5761718750,      -28.1982421875,       99.7314453125
1489455940.5778338909,1489455940.5801720619,       -1.1010742188,        0.0795898438,        0.1767578125,       90.5761718750,      -28.1982421875,       99.7314453125
1489455940.5804541111,1489455940.5827488899,       -1.1010742188,        0.0795898438,        0.1767578125,       93.0938720703,      -27.0080566406,       96.8322753906
1489455940.5830318928,1489455940.5853230953,       -1.0327148438,        0.1601562500,        0.1879882812,       93.0938720703,      -27.0080566406,       96.8322753906
1489455940.5856060982,1489455940.5878899097,       -1.0327148438,        0.1601562500,        0.1879882812,       95.8251953125,      -25.5737304688,       97.0611572266
1489455940.5881741047,1489455940.5904710293,       -1.0327148438,        0.1601562500,        0.1879882812,       95.8251953125,      -25.5737304688,       97.0611572266
1489455940.5907549858,1489455940.5930430889,       -1.0327148438,        0.1601562500,        0.1879882812,       99.7314453125,      -23.3154296875,       98.5870361328
1489455940.5933260918,1489455940.5956249237,       -0.9008789062,        0.2851562500,        0.2124023438,      100.2960205078,      -23.3154296875,       98.5870361328
1489455940.5959100723,1489455940.5981979370,       -0.9008789062,        0.2851562500,        0.2124023438,      100.2960205078,      -23.3154296875,      100.3570556641
1489455940.5984840393,1489455940.6009030342,       -0.9008789062,        0.2851562500,        0.2124023438,      103.4698486328,      -21.8505859375,      100.3570556641
1489455940.6011888981,1489455940.6034879684,       -0.9008789062,        0.2851562500,        0.2353515625,      103.4698486328,      -21.8505859375,      101.3031005859
1489455940.6037719250,1489455940.6060650349,       -0.8520507812,        0.3764648438,        0.2353515625,      103.4088134766,      -20.8435058594,      101.3031005859
1489455940.6064589024,1489455940.6087539196,       -0.8520507812,        0.3764648438,        0.2353515625,      103.4088134766,      -20.8435058594,      101.0589599609
1489455940.6092140675,1489455940.6116330624,       -0.8520507812,        0.3764648438,        0.2353515625,      103.5156250000,      -20.6756591797,      101.0589599609
1489455940.6119248867,1489455940.6143400669,       -0.8520507812,        0.3706054688,        0.2612304688,      103.5156250000,      -20.6756591797,      100.3875732422
1489455940.6146330833,1489455940.6170520782,       -0.8125000000,        0.3706054688,        0.2612304688,      100.2197265625,      -21.8200683594,      100.3875732422
1489455940.6173429489,1489455940.6197609901,       -0.8125000000,        0.3706054688,        0.2612304688,      100.2197265625,      -21.8200683594,       97.5341796875
1489455940.6200520992,1489455940.6224648952,       -0.8125000000,        0.3706054688,        0.2612304688,       94.3298339844,      -23.3001708984,       97.5341796875
1489455940.6227569580,1489455940.6251769066,       -0.6552734375,        0.3129882812,        0.2509765625,       94.3298339844,      -23.3001708984,       93.1091308594
1489455940.6254689693,1489455940.6278860569,       -0.6552734375,        0.3129882812,        0.2509765625,       95.5047607422,      -25.6500244141,       93.1091308594
1489455940.6281778812,1489455940.6306359768,       -0.6552734375,        0.3129882812,        0.2509765625,       95.5047607422,      -25.6500244141,       87.0056152344
1489455940.6309289932,1489455940.6333520412,       -0.6552734375,        0.3129882812,        0.2509765625,      103.1951904297,      -26.7028808594,       87.0056152344
1489455940.6336450577,1489455940.6360590458,       -0.5361328125,        0.1625976562,        0.1958007812,      103.1951904297,      -26.7028808594,       78.6132812500
1489455940.6363520622,1489455940.6387689114,       -0.5361328125,        0.1625976562,        0.1958007812,      112.4572753906,      -27.3590087891,       78.6132812500
1489455940.6391038895,1489455940.6413929462,       -0.5361328125,        0.1625976562,        0.1958007812,      112.4572753906,      -27.3590087891,       69.0002441406
1489455940.6416769028,1489455940.6439669132,       -0.5361328125,       -0.0874023438,        0.1572265625,      114.5629882812,      -28.9459228516,       69.0002441406
1489455940.6442530155,1489455940.6465539932,       -0.4824218750,       -0.0224609375,        0.1572265625,      114.5629882812,      -28.9459228516,       69.0002441406
1489455940.6468389034,1489455940.6491599083,       -0.4824218750,       -0.0224609375,        0.1572265625,      112.2894287109,      -35.3240966797,       57.6324462891
1489455940.6494541168,1489455940.6518709660,       -0.4824218750,       -0.0224609375,        0.1572265625,      112.2894287109,      -35.3240966797,       57.6324462891
1489455940.6521630287,1489455940.6545770168,       -0.4824218750,       -0.1933593750,        0.1557617188,      112.0605468750,      -41.4581298828,       43.8385009766
1489455940.6548690796,1489455940.6572840214,       -0.4438476562,       -0.1933593750,        0.1557617188,      112.0605468750,      -41.4581298828,       43.8385009766
1489455940.6575770378,1489455940.6600489616,       -0.4438476562,       -0.1933593750,        0.1557617188,      111.2976074219,      -43.2281494141,       27.8930664062
1489455940.6603400707,1489455940.6627550125,       -0.4438476562,       -0.1933593750,        0.1557617188,      111.2976074219,      -43.2281494141,       27.8930664062
1489455940.6630480289,1489455940.6655480862,       -0.4541015625,       -0.3344726562,        0.0415039062,      108.3679199219,      -41.5039062500,       12.9547119141
1489455940.6658411026,1489455940.6682629585,       -0.4541015625,       -0.3344726562,        0.0415039062,      108.3679199219,      -41.5039062500,       12.9547119141
1489455940.6685569286,1489455940.6709749699,       -0.4541015625,       -0.3344726562,        0.0415039062,      103.7445068359,      -39.7644042969,        1.9683837891
1489455940.6713728905,1489455940.6737899780,       -0.4541015625,       -0.3344726562,        0.0415039062,      103.7445068359,      -39.7644042969,        1.9683837891
1489455940.6740789413,1489455940.6764950752,       -0.4013671875,       -0.3271484375,       -0.0380859375,       96.0693359375,      -39.1235351562,       -6.2408447266
1489455940.6767849922,1489455940.6792430878,       -0.4013671875,       -0.3271484375,       -0.0380859375,       96.0693359375,      -39.1235351562,       -6.2408447266
1489455940.6795330048,1489455940.6819450855,       -0.4013671875,       -0.3271484375,       -0.0380859375,       86.8225097656,      -38.7420654297,      -14.5874023438
1489455940.6822381020,1489455940.6846530437,       -0.4013671875,       -0.2841796875,       -0.0966796875,       86.8225097656,      -38.7420654297,      -14.5874023438
1489455940.6849451065,1489455940.6873619556,       -0.3681640625,       -0.2841796875,       -0.0966796875,       76.0345458984,      -38.1927490234,      -23.5290527344
1489455940.6876530647,1489455940.6900188923,       -0.3681640625,       -0.2841796875,       -0.0966796875,       76.0345458984,      -38.1927490234,      -23.5290527344
1489455940.6903030872,1489455940.6925919056,       -0.3681640625,       -0.2841796875,       -0.0966796875,       63.6749267578,      -37.0025634766,      -31.6467285156
1489455940.6928780079,1489455940.6951661110,       -0.3374023438,       -0.1552734375,       -0.1298828125,       63.6749267578,      -37.0025634766,      -31.6467285156
1489455940.6954500675,1489455940.6977419853,       -0.3374023438,       -0.1552734375,       -0.1298828125,       53.0242919922,      -36.1480712891,      -38.0706787109
1489455940.6980259418,1489455940.7003729343,       -0.3374023438,       -0.1552734375,       -0.1298828125,       53.0242919922,      -36.1480712891,      -38.0706787109
1489455940.7006580830,1489455940.7029490471,       -0.3374023438,       -0.1552734375,       -0.1298828125,       44.6166992188,      -36.5753173828,      -44.8760986328
1489455940.7032330036,1489455940.7055261135,       -0.3134765625,       -0.0590820312,       -0.1142578125,       44.6166992188,      -36.5753173828,      -44.8760986328
1489455940.7058100700,1489455940.7081038952,       -0.3134765625,       -0.0590820312,       -0.1142578125,       37.6892089844,      -37.2314453125,      -52.1087646484
1489455940.7083880901,1489455940.7108390331,       -0.3134765625,       -0.0590820312,       -0.1142578125,       37.6892089844,      -37.2314453125,      -52.1087646484
1489455940.7111239433,1489455940.7134189606,       -0.3134765625,       -0.0590820312,       -0.1142578125,       31.0058593750,      -38.3911132812,      -60.6384277344
1489455940.7137029171,1489455940.7159960270,       -0.3427734375,       -0.0219726562,       -0.0854492188,       31.0058593750,      -38.3911132812,      -60.6384277344
1489455940.7162790298,1489455940.7185750008,       -0.3427734375,       -0.0219726562,       -0.0854492188,       24.0936279297,      -39.6575927734,      -69.2291259766
1489455940.7189540863,1489455940.7213699818,       -0.3427734375,       -0.0219726562,       -0.0854492188,       24.0936279297,      -39.6575927734,      -69.2291259766
1489455940.7216629982,1489455940.7240779400,       -0.3427734375,       -0.0219726562,       -0.0854492188,       17.5018310547,      -40.9545898438,      -78.2165527344
1489455940.7243700027,1489455940.7267839909,       -0.3818359375,       -0.0288085938,       -0.0717773438,       17.5018310547,      -40.9545898438,      -78.2165527344
1489455940.7270760536,1489455940.7294991016,       -0.3818359375,       -0.0288085938,       -0.0717773438,       11.0321044922,      -42.2515869141,      -87.2192382812
1489455940.7297909260,1489455940.7322020531,       -0.3818359375,       -0.0288085938,       -0.0717773438,       11.0321044922,      -42.2515869141,      -87.2192382812
1489455940.7324960232,1489455940.7349109650,       -0.3818359375,       -0.0288085938,       -0.0786132812,        2.7923583984,      -43.6096191406,      -96.1151123047
1489455940.7353110313,1489455940.7377290726,       -0.3959960938,       -0.0522460938,       -0.0786132812,        2.7923583984,      -43.6096191406,      -96.1151123047
1489455940.7380180359,1489455940.7403659821,       -0.3959960938,       -0.0522460938,       -0.0786132812,       -4.5928955078,      -43.8537597656,     -104.0039062500
1489455940.7406470776,1489455940.7429389954,       -0.3959960938,       -0.0522460938,       -0.0786132812,       -4.5928955078,      -43.8537597656,     -104.0039062500
1489455940.7432210445,1489455940.7455170155,       -0.3959960938,       -0.0493164062,       -0.0942382812,      -12.4053955078,      -44.6166992188,     -110.8245849609
1489455940.7458009720,1489455940.7480919361,       -0.4296875000,       -0.0493164062,       -0.0942382812,      -12.6342773438,      -44.6166992188,     -110.8245849609
1489455940.7483770847,1489455940.7507760525,       -0.4296875000,       -0.0493164062,       -0.0942382812,      -12.6342773438,      -44.9829101562,     -116.9738769531
1489455940.7510709763,1489455940.7534859180,       -0.4296875000,       -0.0493164062,       -0.0942382812,      -20.5688476562,      -44.9829101562,     -116.9738769531
1489455940.7537770271,1489455940.7561941147,       -0.4687500000,        0.0073242188,       -0.1181640625,      -20.5688476562,      -44.8913574219,     -122.6806640625
1489455940.7564880848,1489455940.7589089870,       -0.4687500000,        0.0073242188,       -0.1181640625,      -27.7252197266,      -44.8913574219,     -122.6806640625
1489455940.7592020035,1489455940.7616178989,       -0.4687500000,        0.0073242188,       -0.1181640625,      -27.7252197266,      -44.7235107422,     -127.6855468750
1489455940.7619121075,1489455940.7643270493,       -0.4687500000,        0.0073242188,       -0.1181640625,      -32.9437255859,      -44.7235107422,     -127.6855468750
1489455940.7646219730,1489455940.7670309544,       -0.5219726562,        0.0786132812,       -0.1079101562,      -32.9437255859,      -44.7235107422,     -133.2244873047
1489455940.7673230171,1489455940.7697451115,       -0.5219726562,        0.0786132812,       -0.1079101562,      -37.5366210938,      -44.4030761719,     -133.2244873047
1489455940.7700369358,1489455940.7724509239,       -0.5219726562,        0.0786132812,       -0.1079101562,      -37.5366210938,      -44.4030761719,     -138.8244628906
1489455940.7727429867,1489455940.7751579285,       -0.5219726562,        0.0786132812,       -0.1196289062,      -39.6270751953,      -43.3044433594,     -138.8244628906
1489455940.7754499912,1489455940.7778649330,       -0.5478515625,        0.1352539062,       -0.1196289062,      -39.6270751953,      -39.3981933594,     -143.8903808594
1489455940.7781560421,1489455940.7805719376,       -0.5478515625,        0.1352539062,       -0.1196289062,      -41.3360595703,      -42.4041748047,     -143.8903808594
1489455940.7808649540,1489455940.7832820415,       -0.5478515625,        0.1352539062,       -0.1196289062,      -41.3360595703,      -42.4041748047,     -148.9105224609
1489455940.7835741043,1489455940.7859869003,       -0.5478515625,        0.1708984375,       -0.1064453125,      -42.6940917969,      -41.9311523438,     -148.9105224609
1489455940.7862799168,1489455940.7886960506,       -0.5834960938,        0.1708984375,       -0.1064453125,      -42.6940917969,      -41.9311523438,     -153.9001464844
1489455940.7889819145,1489455940.7912740707,       -0.5834960938,        0.1708984375,       -0.1064453125,      -43.1671142578,      -41.2139892578,     -153.9001464844
1489455940.7915608883,1489455940.7938539982,       -0.5834960938,        0.1708984375,       -0.1064453125,      -43.1671142578,      -41.2139892578,     -158.7524414062
1489455940.7941379547,1489455940.7964270115,       -0.6303710938,        0.2177734375,       -0.1005859375,      -43.3654785156,      -40.8782958984,     -158.7524414062
1489455940.7967109680,1489455940.7990570068,       -0.6303710938,        0.2177734375,       -0.1005859375,      -43.3654785156,      -40.8782958984,     -162.6586914062
1489455940.7994570732,1489455940.8018701077,       -0.6303710938,        0.2177734375,       -0.1005859375,      -42.3431396484,      -40.0848388672,     -163.5284423828
1489455940.8021619320,1489455940.8045759201,       -0.6303710938,        0.2177734375,       -0.1005859375,      -42.3431396484,      -40.0848388672,     -167.4346923828
1489455940.8048679829,1489455940.8072841167,       -0.6704101562,        0.2866210938,       -0.0874023438,      -39.6270751953,      -39.3981933594,     -167.3889160156
1489455940.8075780869,1489455940.8100430965,       -0.6704101562,        0.2866210938,       -0.0874023438,      -39.6270751953,      -39.3981933594,     -171.2951660156
1489455940.8103349209,1489455940.8127489090,       -0.6704101562,        0.2866210938,       -0.0874023438,      -37.0330810547,      -38.6657714844,     -171.4630126953
1489455940.8130440712,1489455940.8154580593,       -0.6704101562,        0.2866210938,       -0.1020507812,      -37.0330810547,      -38.6657714844,     -175.3692626953
1489455940.8157498837,1489455940.8181660175,       -0.7109375000,        0.3432617188,       -0.1020507812,      -33.6303710938,      -36.9567871094,     -175.3387451172
1489455940.8184599876,1489455940.8208780289,       -0.7109375000,        0.3432617188,       -0.1020507812,      -33.6303710938,      -36.9567871094,     -179.2449951172
1489455940.8211710453,1489455940.8235850334,       -0.7109375000,        0.3432617188,       -0.1020507812,      -29.8919677734,      -36.4532470703,     -178.9093017578
1489455940.8238770962,1489455940.8262948990,       -0.7109375000,        0.3618164062,       -0.1186523438,      -29.8919677734,      -36.4532470703,     -182.8155517578
1489455940.8265879154,1489455940.8290450573,       -0.7446289062,        0.3618164062,       -0.1186523438,      -26.0467529297,      -35.9191894531,     -181.5185546875
1489455940.8293368816,1489455940.8317511082,       -0.7446289062,        0.3618164062,       -0.1186523438,      -26.0467529297,      -35.9191894531,     -185.4248046875
1489455940.8320438862,1489455940.8344590664,       -0.7446289062,        0.3618164062,       -0.1186523438,      -22.7966308594,      -35.8123779297,     -184.1125488281
1489455940.8347508907,1489455940.8371720314,       -0.7695312500,        0.3759765625,       -0.1313476562,      -22.7966308594,      -35.8123779297,     -184.1125488281
1489455940.8374629021,1489455940.8398358822,       -0.7695312500,        0.3759765625,       -0.1313476562,      -20.9503173828,      -35.5224609375,     -186.7218017578
1489455940.8401210308,1489455940.8424129486,       -0.7695312500,        0.3759765625,       -0.1313476562,      -20.9503173828,      -35.5224609375,     -186.7218017578
1489455940.8426969051,1489455940.8449840546,       -0.7695312500,        0.3759765625,       -0.1313476562,      -19.1802978516,      -34.8205566406,     -188.9343261719
1489455940.8452670574,1489455940.8475658894,       -0.8051757812,        0.3706054688,       -0.1420898438,      -19.1802978516,      -34.8205566406,     -188.9343261719
1489455940.8478500843,1489455940.8502728939,       -0.8051757812,        0.3706054688,       -0.1420898438,      -18.6462402344,      -33.7982177734,     -190.5822753906
1489455940.8505640030,1489455940.8530540466,       -0.8051757812,        0.3706054688,       -0.1420898438,      -18.6462402344,      -33.7982177734,     -190.5822753906
1489455940.8533570766,1489455940.8556590080,       -0.8051757812,        0.3706054688,       -0.1420898438,      -19.4091796875,      -33.4320068359,     -192.3065185547
1489455940.8559451103,1489455940.8582410812,       -0.8496093750,        0.3569335938,       -0.1533203125,      -19.4091796875,      -33.4320068359,     -192.3065185547
1489455940.8585240841,1489455940.8609819412,       -0.8496093750,        0.3569335938,       -0.1533203125,      -20.6298828125,      -32.3638916016,     -193.4509277344
1489455940.8612749577,1489455940.8636600971,       -0.8496093750,        0.3569335938,       -0.1533203125,      -20.6298828125,      -32.3638916016,     -193.4509277344
1489455940.8641428947,1489455940.8665280342,       -0.8496093750,        0.3334960938,       -0.1547851562,      -23.1475830078,      -30.9600830078,     -193.4356689453
1489455940.8668189049,1489455940.8698010445,       -0.8730468750,        0.3334960938,       -0.1547851562,      -23.1475830078,      -30.9600830078,     -193.4356689453
1489455940.8700881004,1489455940.8723769188,       -0.8730468750,        0.3334960938,       -0.1547851562,      -26.9927978516,      -29.6630859375,     -193.2983398438
1489455940.8726639748,1489455940.8749608994,       -0.8730468750,        0.3334960938,       -0.1547851562,      -26.9927978516,      -29.6630859375,     -193.2983398438
1489455940.8752460480,1489455940.8775329590,       -0.8964843750,        0.3173828125,       -0.1557617188,      -33.1268310547,      -27.3895263672,     -192.7185058594
1489455940.8778190613,1489455940.8801140785,       -0.8964843750,        0.3173828125,       -0.1557617188,      -33.1268310547,      -27.3895263672,     -192.7185058594
1489455940.8803989887,1489455940.8826839924,       -0.8964843750,        0.3173828125,       -0.1557617188,      -40.4052734375,      -26.0925292969,     -192.1386718750
1489455940.8829679489,1489455940.8852550983,       -0.8964843750,        0.3173828125,       -0.1557617188,      -40.4052734375,      -26.0925292969,     -192.1386718750
1489455940.8855390549,1489455940.8878331184,       -0.9130859375,        0.3066406250,       -0.1494140625,      -47.6989746094,      -24.2614746094,     -191.5740966797
1489455940.8881170750,1489455940.8904099464,       -0.9130859375,        0.3066406250,       -0.1494140625,      -47.6989746094,      -24.2614746094,     -191.5740966797
1489455940.8906950951,1489455940.8929839134,       -0.9130859375,        0.3066406250,       -0.1494140625,      -55.0994873047,      -22.7966308594,     -191.7266845703
1489455940.8932681084,1489455940.8955640793,       -0.9130859375,        0.3066406250,       -0.1494140625,      -55.0994873047,      -22.7966308594,     -191.7266845703
1489455940.8958489895,1489455940.8981339931,       -0.9208984375,        0.3046875000,       -0.1503906250,      -62.5457763672,      -21.1486816406,     -192.5201416016
1489455940.8984169960,1489455940.9007558823,       -0.9208984375,        0.3046875000,       -0.1503906250,      -62.5457763672,      -21.1486816406,     -192.5201416016
1489455940.9010388851,1489455940.9033269882,       -0.9208984375,        0.3046875000,       -0.1503906250,      -66.4520263672,      -19.7448730469,     -192.5811767578
1489455940.9036109447,1489455940.9058949947,       -0.9208984375,        0.3046875000,       -0.1503906250,      -69.5800781250,      -19.7448730469,     -192.5811767578
1489455940.9061820507,1489455940.9084730148,       -0.9267578125,        0.3120117188,       -0.1425781250,      -69.5800781250,      -15.8386230469,     -192.5964355469
1489455940.9087579250,1489455940.9110519886,       -0.9267578125,        0.3120117188,       -0.1425781250,      -75.5157470703,      -17.8375244141,     -192.5964355469
1489455940.9113380909,1489455940.9136290550,       -0.9267578125,        0.3120117188,       -0.1425781250,      -75.5157470703,      -17.8375244141,     -192.8710937500
1489455940.9139130116,1489455940.9162158966,       -0.9267578125,        0.3120117188,       -0.1425781250,      -81.5429687500,      -15.5487060547,     -192.8710937500
1489455940.9165000916,1489455940.9189560413,       -0.9355468750,        0.3037109375,       -0.1333007812,      -81.5429687500,      -15.5487060547,     -192.8710937500
1489455940.9192409515,1489455940.9215440750,       -0.9355468750,        0.3037109375,       -0.1333007812,      -86.6394042969,      -13.5803222656,     -193.2983398438
1489455940.9218280315,1489455940.9241230488,       -0.9355468750,        0.3037109375,       -0.1333007812,      -86.6394042969,      -13.5803222656,     -193.2983398438
1489455940.9244070053,1489455940.9267039299,       -0.9355468750,        0.3037109375,       -0.1015625000,      -91.2780761719,      -11.5814208984,     -194.4122314453
1489455940.9271020889,1489455940.9295740128,       -0.9614257812,        0.2910156250,       -0.1015625000,      -91.2780761719,      -11.5814208984,     -194.4122314453
1489455940.9298698902,1489455940.9322829247,       -0.9614257812,        0.2910156250,       -0.1015625000,      -96.2982177734,       -8.9263916016,     -194.9615478516
1489455940.9325730801,1489455940.9349870682,       -0.9614257812,        0.2910156250,       -0.1015625000,      -96.2982177734,       -8.9263916016,     -194.9615478516
1489455940.9352769852,1489455940.9376950264,       -0.9863281250,        0.2895507812,       -0.0869140625,     -101.1505126953,       -7.3699951172,     -195.2819824219
1489455940.9379849434,1489455940.9403638840,       -0.9863281250,        0.2895507812,       -0.0869140625,     -101.1505126953,       -7.3699951172,     -195.2819824219
1489455940.9406499863,1489455940.9429450035,       -0.9863281250,        0.2895507812,       -0.0869140625,     -106.0180664062,       -4.9591064453,     -194.8852539062
1489455940.9432289600,1489455940.9455189705,       -0.9863281250,        0.2895507812,       -0.0869140625,     -106.0180664062,       -4.9591064453,     -194.8852539062
1489455940.9458010197,1489455940.9480929375,       -0.9970703125,        0.3046875000,       -0.0732421875,     -110.3668212891,       -2.0904541016,     -194.3511962891
1489455940.9483768940,1489455940.9507839680,       -0.9970703125,        0.3046875000,       -0.0732421875,     -110.3668212891,       -2.0904541016,     -194.3511962891
1489455940.9510750771,1489455940.9534919262,       -0.9970703125,        0.3046875000,       -0.0732421875,     -112.6861572266,       -0.0610351562,     -193.0389404297
1489455940.9537820816,1489455940.9562358856,       -0.9970703125,        0.3046875000,       -0.0732421875,     -112.6861572266,       -0.0610351562,     -193.0389404297
1489455940.9565210342,1489455940.9589719772,       -1.0083007812,        0.3203125000,       -0.0556640625,     -113.4033203125,        1.3275146484,     -192.5506591797
1489455940.9592630863,1489455940.9616398811,       -1.0083007812,        0.3203125000,       -0.0556640625,     -113.4033203125,        1.3275146484,     -192.5506591797
1489455940.9619278908,1489455940.9643130302,       -1.0083007812,        0.3203125000,       -0.0556640625,     -112.8387451172,        3.0975341797,     -193.2678222656
1489455940.9646580219,1489455940.9672880173,       -1.0083007812,        0.3203125000,       -0.0395507812,     -112.8387451172,        3.0975341797,     -193.2678222656
1489455940.9675800800,1489455940.9700429440,       -1.0224609375,        0.3071289062,       -0.0395507812,     -111.4654541016,        5.7067871094,     -193.7255859375
1489455940.9703350067,1489455940.9727499485,       -1.0224609375,        0.3071289062,       -0.0395507812,     -111.4654541016,        5.7067871094,     -193.7255859375
1489455940.9730410576,1489455940.9754579067,       -1.0224609375,        0.3071289062,       -0.0395507812,     -109.3444824219,        7.3242187500,     -193.6187744141
1489455940.9757471085,1489455940.9781589508,       -1.0405273438,        0.2846679688,       -0.0180664062,     -109.3444824219,        7.3242187500,     -193.6187744141
1489455940.9784479141,1489455940.9808740616,       -1.0405273438,        0.2846679688,       -0.0180664062,     -107.7117919922,        8.2244873047,     -192.2454833984
1489455940.9811630249,1489455940.9835770130,       -1.0405273438,        0.2846679688,       -0.0180664062,     -107.7117919922,        8.2244873047,     -192.2454833984
1489455940.9838659763,1489455940.9862830639,       -1.0405273438,        0.2846679688,       -0.0180664062,     -105.6976318359,        9.6740722656,     -190.4602050781
1489455940.9865729809,1489455940.9890251160,       -1.0659179688,        0.2827148438,       -0.0009765625,     -105.6976318359,        9.6740722656,     -190.4602050781
1489455940.9893081188,1489455940.9916028976,       -1.0659179688,        0.2827148438,       -0.0009765625,     -102.9510498047,       11.8408203125,     -187.9882812500
1489455940.9920101166,1489455940.9943029881,       -1.0659179688,        0.2827148438,       -0.0009765625,     -102.9510498047,       11.8408203125,     -187.9882812500
1489455940.9945900440,1489455940.9968791008,       -1.0659179688,        0.2827148438,        0.1240234375,     -101.8524169922,       13.1988525391,     -185.3027343750
1489455940.9971659184,1489455940.9994699955,       -1.0605468750,        0.2758789062,        0.0258789062,     -101.8524169922,       13.1988525391,     -185.3027343750
1489455940.9997549057,1489455941.0020530224,       -1.0605468750,        0.2758789062,        0.0258789062,     -100.7690429688,       13.3972167969,     -181.7626953125
1489455941.0023388863,1489455941.0046360493,       -1.0605468750,        0.2758789062,        0.0258789062,     -100.7690429688,       13.3972167969,     -181.7626953125
1489455941.0049231052,1489455941.0072190762,       -1.0605468750,        0.2758789062,        0.0097656250,      -98.8922119141,       15.2282714844,     -178.8024902344
1489455941.0075080395,1489455941.0099399090,       -1.0615234375,        0.2587890625,        0.0097656250,      -98.8922119141,       15.2282714844,     -178.8024902344
1489455941.0102260113,1489455941.0125169754,       -1.0615234375,        0.2587890625,        0.0097656250,      -96.7102050781,       17.7764892578,     -175.5981445312
1489455941.0128030777,1489455941.0150949955,       -1.0615234375,        0.2587890625,        0.0097656250,      -96.7102050781,       17.7764892578,     -175.5981445312
1489455941.0153810978,1489455941.0176720619,       -1.0615234375,        0.2534179688,       -0.0107421875,      -96.7102050781,       20.6298828125,     -172.1496582031
1489455941.0179569721,1489455941.0204401016,       -1.0673828125,        0.2534179688,       -0.0107421875,      -94.8333740234,       20.6298828125,     -172.1496582031
1489455941.0207359791,1489455941.0231490135,       -1.0673828125,        0.2534179688,       -0.0107421875,      -94.8333740234,       22.7508544922,     -168.4875488281
1489455941.0234429836,1489455941.0258541107,       -1.0673828125,        0.2534179688,       -0.0107421875,      -94.3450927734,       22.7508544922,     -168.4875488281
1489455941.0261459351,1489455941.0285639763,       -1.0693359375,        0.2480468750,       -0.0039062500,      -90.4388427734,       24.2919921875,     -164.4592285156
1489455941.0288679600,1489455941.0312819481,       -1.0693359375,        0.2480468750,       -0.0039062500,      -93.3837890625,       24.2919921875,     -164.4592285156
1489455941.0315749645,1489455941.0339899063,       -1.0693359375,        0.2480468750,       -0.0039062500,      -93.3837890625,       25.1007080078,     -159.5916748047
1489455941.0342841148,1489455941.0367009640,       -1.0693359375,        0.2480468750,       -0.0039062500,      -91.5069580078,       25.1007080078,     -159.5916748047
1489455941.0369958878,1489455941.0394189358,       -1.0439453125,        0.2739257812,        0.0200195312,      -91.5069580078,       26.1535644531,     -154.5715332031
1489455941.0397050381,1489455941.0419979095,       -1.0439453125,        0.2739257812,        0.0200195312,      -90.5761718750,       26.1535644531,     -154.5715332031
1489455941.0422830582,1489455941.0445790291,       -1.0439453125,        0.2739257812,        0.0200195312,      -90.5761718750,       30.0598144531,     -149.5056152344
1489455941.0448629856,1489455941.0471580029,       -1.0439453125,        0.2739257812,        0.0200195312,      -89.5538330078,       27.5878906250,     -149.5056152344
1489455941.0474429131,1489455941.0498518944,       -0.9853515625,        0.2885742188,        0.0288085938,      -89.5538330078,       27.5878906250,     -144.4702148438
1489455941.0501449108,1489455941.0525610447,       -0.9853515625,        0.2885742188,        0.0288085938,      -88.1042480469,       28.1372070312,     -144.4702148438
1489455941.0528550148,1489455941.0552659035,       -0.9853515625,        0.2885742188,        0.0288085938,      -88.1042480469,       28.1372070312,     -139.6179199219
1489455941.0556681156,1489455941.0581319332,       -0.9853515625,        0.2885742188,        0.0610351562,      -85.7696533203,       27.2979736328,     -139.6179199219
1489455941.0584189892,1489455941.0609469414,       -0.9150390625,        0.3222656250,        0.0610351562,      -85.7696533203,       27.2979736328,     -133.8958740234
1489455941.0612380505,1489455941.0636270046,       -0.9150390625,        0.3222656250,        0.0610351562,      -82.4279785156,       26.7486572266,     -133.8958740234
1489455941.0639181137,1489455941.0668570995,       -0.9150390625,        0.3222656250,        0.0610351562,      -77.3773193359,       25.7568359375,     -128.2806396484
1489455941.0671439171,1489455941.0694770813,       -0.8159179688,        0.3701171875,        0.0981445312,      -77.3773193359,       25.7568359375,     -128.2806396484
1489455941.0697619915,1489455941.0720589161,       -0.8159179688,        0.3701171875,        0.0981445312,      -73.4710693359,       22.7813720703,     -122.3754882812
1489455941.0723450184,1489455941.0746300220,       -0.8159179688,        0.3701171875,        0.0981445312,      -72.2656250000,       22.7813720703,     -122.3754882812
1489455941.0749149323,1489455941.0772049427,       -0.8159179688,        0.3701171875,        0.0981445312,      -72.2656250000,       18.8751220703,     -115.9973144531
1489455941.0774900913,1489455941.0798690319,       -0.7319335938,        0.3989257812,        0.1215820312,      -66.9555664062,       19.0582275391,     -115.9973144531
1489455941.0801548958,1489455941.0824449062,       -0.7319335938,        0.3989257812,        0.1215820312,      -66.9555664062,       19.0582275391,     -109.2681884766
1489455941.0827300549,1489455941.0850210190,       -0.7319335938,        0.3989257812,        0.1215820312,      -61.5539550781,       15.9912109375,     -109.2681884766
1489455941.0853068829,1489455941.0875918865,       -0.7319335938,        0.3989257812,        0.1215820312,      -61.5539550781,       15.9912109375,     -105.3619384766
1489455941.0878770351,1489455941.0902230740,       -0.6757812500,        0.4077148438,        0.1699218750,      -56.4880371094,       11.8560791016,     -102.7984619141
1489455941.0905098915,1489455941.0927979946,       -0.6757812500,        0.4077148438,        0.1699218750,      -56.4880371094,       11.8560791016,     -102.7984619141
1489455941.0930819511,1489455941.0953710079,       -0.6757812500,        0.4077148438,        0.1699218750,      -50.4150390625,        8.0108642578,      -96.2677001953
1489455941.0956521034,1489455941.0979449749,       -0.6757812500,        0.4077148438,        0.1699218750,      -50.4150390625,        8.0108642578,      -96.2677001953
1489455941.0982270241,1489455941.1005830765,       -0.6640625000,        0.4516601562,        0.1518554688,      -42.5415039062,        4.0130615234,      -88.7298583984
1489455941.1008648872,1489455941.1031529903,       -0.6640625000,        0.4516601562,        0.1518554688,      -42.5415039062,        4.0130615234,      -88.7298583984
1489455941.1034350395,1489455941.1057291031,       -0.6640625000,        0.4516601562,        0.1518554688,      -33.8897705078,        0.7629394531,      -80.5664062500
1489455941.1060109138,1489455941.1083040237,       -0.6640625000,        0.4516601562,        0.1459960938,      -33.8897705078,        0.7629394531,      -80.5664062500
1489455941.1085860729,1489455941.1110489368,       -0.6435546875,        0.5151367188,        0.1459960938,      -24.3682861328,       -1.9531250000,      -72.3876953125
1489455941.1113319397,1489455941.1136319637,       -0.6435546875,        0.5151367188,        0.1459960938,      -24.3682861328,       -1.9531250000,      -72.3876953125
1489455941.1139121056,1489455941.1162049770,       -0.6435546875,        0.5151367188,        0.1459960938,      -13.8397216797,       -4.6844482422,      -64.1784667969
1489455941.1164870262,1489455941.1187849045,       -0.6435546875,        0.5458984375,        0.1323242188,      -13.8397216797,       -4.6844482422,      -64.1784667969
1489455941.1193299294,1489455941.1217479706,       -0.6645507812,        0.5458984375,        0.1323242188,       -3.4484863281,       -6.5765380859,      -55.2215576172
1489455941.1220319271,1489455941.1244449615,       -0.6645507812,        0.5458984375,        0.1323242188,       -3.4484863281,       -6.5765380859,      -55.2215576172
1489455941.1247301102,1489455941.1271519661,       -0.6645507812,        0.5458984375,        0.1323242188,        6.4544677734,       -7.6751708984,      -45.4101562500
1489455941.1274359226,1489455941.1298110485,       -0.6611328125,        0.5253906250,        0.1103515625,        6.4544677734,       -7.6751708984,      -45.4101562500
1489455941.1300890446,1489455941.1323809624,       -0.6611328125,        0.5253906250,        0.1103515625,       15.0299072266,       -7.7362060547,      -35.6445312500
1489455941.1326639652,1489455941.1349630356,       -0.6611328125,        0.5253906250,        0.1103515625,       15.0299072266,       -7.7362060547,      -35.6445312500
1489455941.1352429390,1489455941.1375339031,       -0.6611328125,        0.5253906250,        0.1103515625,       21.6064453125,       -7.0343017578,      -25.3906250000
1489455941.1378149986,1489455941.1402308941,       -0.6708984375,        0.4721679688,        0.0673828125,       21.6064453125,       -7.0343017578,      -25.3906250000
1489455941.1405189037,1489455941.1429340839,       -0.6708984375,        0.4721679688,        0.0673828125,       25.5126953125,       -5.9814453125,      -15.8386230469
1489455941.1432230473,1489455941.1456389427,       -0.6708984375,        0.4721679688,        0.0673828125,       25.4821777344,       -5.9814453125,      -15.8386230469
1489455941.1459250450,1489455941.1483449936,       -0.6708984375,        0.4721679688,        0.0673828125,       29.3884277344,       -3.8604736328,       -5.6304931641
1489455941.1486289501,1489455941.1510539055,       -0.6835937500,        0.4340820312,        0.0346679688,       27.8015136719,       -3.8604736328,       -5.6304931641
1489455941.1513409615,1489455941.1537549496,       -0.6835937500,        0.4340820312,        0.0346679688,       27.8015136719,       -1.3732910156,        3.8299560547
1489455941.1540400982,1489455941.1564600468,       -0.6835937500,        0.4340820312,        0.0346679688,       28.1524658203,       -1.3732910156,        3.8299560547
1489455941.1567440033,1489455941.1591598988,       -0.6835937500,        0.4179687500,        0.0219726562,       24.2462158203,        0.3814697266,       14.0686035156
1489455941.1594491005,1489455941.1618690491,       -0.6909179688,        0.4179687500,        0.0219726562,       27.1301269531,        0.3814697266,       14.0686035156
1489455941.1621580124,1489455941.1645729542,       -0.6909179688,        0.4179687500,        0.0219726562,       27.1301269531,        1.7852783203,       24.5819091797
1489455941.1648631096,1489455941.1672749519,       -0.6909179688,        0.4179687500,        0.0219726562,       25.0701904297,        1.7852783203,       24.5819091797
1489455941.1675620079,1489455941.1700289249,       -0.7045898438,        0.4272460938,        0.0351562500,       25.0701904297,        3.2348632812,       34.7595214844
1489455941.1703190804,1489455941.1727321148,       -0.7045898438,        0.4272460938,        0.0351562500,       22.0336914062,        3.2348632812,       34.7595214844
1489455941.1730198860,1489455941.1755840778,       -0.7045898438,        0.4272460938,        0.0351562500,       22.0336914062,        4.1351318359,       45.2423095703
1489455941.1758739948,1489455941.1782970428,       -0.7045898438,        0.4272460938,        0.0351562500,       19.7296142578,        4.1351318359,       45.2423095703
1489455941.1785869598,1489455941.1809320450,       -0.7143554688,        0.4492187500,        0.0458984375,       15.8233642578,        4.0893554688,       55.1605224609
1489455941.1812150478,1489455941.1835050583,       -0.7143554688,        0.4492187500,        0.0458984375,       16.3879394531,        4.0893554688,       55.1605224609
1489455941.1837871075,1489455941.1860780716,       -0.7143554688,        0.4492187500,        0.0458984375,       16.3879394531,        4.0893554688,       64.2700195312
1489455941.1864650249,1489455941.1887609959,       -0.7143554688,        0.4492187500,        0.0458984375,       12.6800537109,        4.2266845703,       64.2700195312
1489455941.1891090870,1489455941.1915268898,       -0.7026367188,        0.4555664062,        0.0708007812,       12.6800537109,        4.2266845703,       73.2574462891
1489455941.1918160915,1489455941.1942288876,       -0.7026367188,        0.4555664062,        0.0708007812,        8.4381103516,        4.1503906250,       73.2574462891
1489455941.1945149899,1489455941.1969280243,       -0.7026367188,        0.4555664062,        0.0708007812,        8.4381103516,        4.1503906250,       82.0922851562
1489455941.1972169876,1489455941.1996409893,       -0.7026367188,        0.4687500000,        0.1245117188,        4.0130615234,        3.9825439453,       82.0922851562
1489455941.1999258995,1489455941.2023410797,       -0.6840820312,        0.4687500000,        0.1245117188,        4.0130615234,        3.9825439453,       90.5151367188
1489455941.2026259899,1489455941.2050380707,       -0.6840820312,        0.4687500000,        0.1245117188,        1.4190673828,        2.7618408203,       90.5151367188
1489455941.2053239346,1489455941.2077360153,       -0.6840820312,        0.4687500000,        0.1245117188,        1.4190673828,        2.7618408203,       99.0142822266
1489455941.2080221176,1489455941.2103669643,       -0.6684570312,        0.4916992188,        0.1416015625,       -0.1678466797,        1.3580322266,       99.0142822266
1489455941.2106480598,1489455941.2129390240,       -0.6684570312,        0.4916992188,        0.1416015625,       -0.1678466797,        1.3580322266,      104.7668457031
1489455941.2132189274,1489455941.2155039310,       -0.6684570312,        0.4916992188,        0.1416015625,       -2.1362304688,       -0.7019042969,      104.7668457031
1489455941.2157831192,1489455941.2180750370,       -0.6684570312,        0.4916992188,        0.1416015625,       -2.1362304688,       -0.7019042969,      104.7668457031
1489455941.2183530331,1489455941.2207698822,       -0.7915039062,        0.1611328125,        0.0659179688,       -2.1362304688,       -2.8076171875,       98.0072021484
1489455941.2210500240,1489455941.2233440876,       -0.7915039062,        0.1611328125,        0.0659179688,       -2.1362304688,       -2.8076171875,       98.0072021484
1489455941.2236208916,1489455941.2259159088,       -0.7915039062,        0.1611328125,        0.0659179688,      -15.2587890625,       -0.2288818359,      101.9134521484
1489455941.2261979580,1489455941.2284970284,       -0.7915039062,        0.1611328125,        0.0659179688,      -15.2587890625,       -0.2288818359,      101.9134521484
1489455941.2287790775,1489455941.2313520908,       -0.8593750000,       -0.2612304688,       -0.0712890625,      -22.2015380859,        3.2958984375,      106.7657470703
1489455941.2316429615,1489455941.2340559959,       -0.8593750000,       -0.2612304688,       -0.0712890625,      -22.2015380859,        3.2958984375,      106.7657470703
1489455941.2343471050,1489455941.2367630005,       -0.8593750000,       -0.2612304688,       -0.0712890625,      -24.5056152344,        5.2490234375,       99.7009277344
1489455941.2370529175,1489455941.2394769192,       -0.8593750000,       -0.2612304688,       -0.0800781250,      -24.5056152344,        5.2490234375,       99.7009277344
1489455941.2397658825,1489455941.2421810627,       -0.9965820312,       -0.9467773438,       -0.0800781250,      -36.2243652344,        4.5623779297,       95.1995849609
1489455941.2424700260,1489455941.2448880672,       -0.9965820312,       -0.9467773438,       -0.0800781250,      -36.2243652344,        4.5623779297,       95.1995849609
1489455941.2451798916,1489455941.2475929260,       -0.9965820312,       -0.9467773438,       -0.0800781250,      -46.9818115234,       -0.7629394531,       95.7489013672
1489455941.2478840351,1489455941.2503139973,       -1.1215820312,       -0.8808593750,        0.0214843750,      -46.9818115234,       -0.7629394531,       95.7489013672
1489455941.2507131100,1489455941.2531230450,       -1.0131835938,       -0.8808593750,        0.0214843750,      -53.4210205078,       -6.9122314453,       99.4873046875
1489455941.2534110546,1489455941.2558228970,       -1.0131835938,       -0.8808593750,        0.0214843750,      -53.4210205078,       -6.9122314453,       99.4873046875
1489455941.2561120987,1489455941.2585279942,       -1.0131835938,       -0.8808593750,        0.0214843750,      -56.6101074219,       -7.5378417969,      107.6507568359
1489455941.2588269711,1489455941.2611200809,       -1.0737304688,       -0.1542968750,       -0.0424804688,      -56.6101074219,       -7.5378417969,      107.6507568359
1489455941.2614040375,1489455941.2637290955,       -1.0737304688,       -0.1542968750,       -0.0424804688,      -59.7381591797,       -6.9122314453,      119.4458007812
1489455941.2640140057,1489455941.2663049698,       -1.0737304688,       -0.1542968750,       -0.0424804688,      -59.7381591797,       -6.9122314453,      119.4458007812
1489455941.2665851116,1489455941.2689089775,       -1.0737304688,       -0.1542968750,       -0.0424804688,      -64.7125244141,       -5.3863525391,      130.3863525391
1489455941.2692050934,1489455941.2715940475,       -1.0942382812,        0.4814453125,        0.0024414062,      -64.7125244141,       -5.3863525391,      130.3863525391
1489455941.2718811035,1489455941.2742569447,       -1.0942382812,        0.4814453125,        0.0024414062,      -66.1468505859,       -6.1187744141,      137.0697021484
1489455941.2746489048,1489455941.2770268917,       -1.0942382812,        0.4814453125,        0.0024414062,      -66.1468505859,       -6.1187744141,      137.0697021484
1489455941.2773139477,1489455941.2802920341,       -1.0942382812,        0.4814453125,        0.0024414062,      -64.9566650391,      -11.1389160156,      136.5051269531
1489455941.2805819511,1489455941.2828729153,       -1.0073242188,        0.4467773438,        0.1123046875,      -64.9566650391,      -11.1389160156,      136.5051269531
1489455941.2831590176,1489455941.2854480743,       -1.0073242188,        0.4467773438,        0.1123046875,      -62.9882812500,      -18.5241699219,      132.8277587891
1489455941.2857298851,1489455941.2880210876,       -1.0073242188,        0.4467773438,        0.1123046875,      -62.9882812500,      -18.5241699219,      132.8277587891
1489455941.2883050442,1489455941.2908310890,       -0.7573242188,        0.2265625000,        0.0058593750,      -58.0291748047,      -25.6500244141,      127.7770996094
1489455941.2911159992,1489455941.2934060097,       -0.8500976562,        0.2265625000,        0.0058593750,      -58.0291748047,      -25.6500244141,      127.7770996094
1489455941.2936921120,1489455941.2959830761,       -0.8500976562,        0.2265625000,        0.0058593750,      -47.8668212891,      -27.3742675781,      123.3062744141
1489455941.2962689400,1489455941.2985579967,       -0.8500976562,        0.2265625000,        0.0058593750,      -47.8668212891,      -27.3742675781,      123.3062744141
1489455941.2988619804,1489455941.3011538982,       -0.7763671875,        0.2075195312,       -0.2158203125,      -38.1317138672,      -25.5584716797,      118.9880371094
1489455941.3014400005,1489455941.3037350178,       -0.7763671875,        0.2075195312,       -0.2158203125,      -38.1317138672,      -25.5584716797,      118.9880371094
1489455941.3040199280,1489455941.3063130379,       -0.7763671875,        0.2075195312,       -0.2158203125,      -32.5622558594,      -24.1699218750,      115.2801513672
1489455941.3065979481,1489455941.3088939190,       -0.7763671875,        0.2075195312,       -0.2158203125,      -32.5622558594,      -24.1699218750,      115.2801513672
1489455941.3091790676,1489455941.3114759922,       -0.7612304688,        0.1850585938,       -0.1762695312,      -32.5622558594,      -26.4739990234,      111.2060546875
1489455941.3117630482,1489455941.3140499592,       -0.7612304688,        0.1850585938,       -0.1762695312,      -30.0445556641,      -26.4739990234,      111.2060546875
1489455941.3144419193,1489455941.3167340755,       -0.7612304688,        0.1850585938,       -0.1762695312,      -30.0445556641,      -30.3802490234,      107.4218750000
1489455941.3170180321,1489455941.3193099499,       -0.7612304688,        0.1850585938,       -0.1762695312,      -26.5350341797,      -30.2886962891,      107.4218750000
1489455941.3195939064,1489455941.3218839169,       -0.7338867188,        0.1083984375,       -0.0219726562,      -26.5350341797,      -30.2886962891,      104.0496826172
1489455941.3221690655,1489455941.3244609833,       -0.7338867188,        0.1083984375,       -0.0219726562,      -21.8048095703,      -31.9519042969,      104.0496826172
1489455941.3247470856,1489455941.3270380497,       -0.7338867188,        0.1083984375,       -0.0219726562,      -21.8048095703,      -31.9519042969,      100.1434326172
1489455941.3273239136,1489455941.3297569752,       -0.7338867188,        0.1083984375,       -0.0219726562,      -18.5394287109,      -32.5775146484,      100.8911132812
1489455941.3300440311,1489455941.3323359489,       -0.7426757812,        0.1367187500,        0.0683593750,      -18.5394287109,      -32.5775146484,      100.8911132812
1489455941.3326220512,1489455941.3349120617,       -0.7426757812,        0.1367187500,        0.0683593750,      -19.7601318359,      -33.7066650391,       97.3968505859
1489455941.3351991177,1489455941.3374950886,       -0.7426757812,        0.1367187500,        0.0683593750,      -19.7601318359,      -33.7066650391,       97.3968505859
1489455941.3377809525,1489455941.3401629925,       -0.7426757812,        0.1367187500,        0.0683593750,      -23.8800048828,      -35.3240966797,       93.5363769531
1489455941.3404500484,1489455941.3427329063,       -0.7392578125,        0.1386718750,        0.1137695312,      -23.8800048828,      -35.3240966797,       93.5363769531
1489455941.3430171013,1489455941.3453130722,       -0.7392578125,        0.1386718750,        0.1137695312,      -29.4799804688,      -36.0412597656,       89.4165039062
1489455941.3455979824,1489455941.3478879929,       -0.7392578125,        0.1386718750,        0.1137695312,      -29.4799804688,      -36.0412597656,       89.4165039062
1489455941.3481719494,1489455941.3504700661,       -0.7392578125,        0.1386718750,        0.2114257812,      -34.1339111328,      -36.4990234375,       86.6699218750
1489455941.3507540226,1489455941.3530509472,       -0.8061523438,        0.3178710938,        0.2114257812,      -34.1339111328,      -36.4990234375,       86.6699218750
1489455941.3533349037,1489455941.3556230068,       -0.8061523438,        0.3178710938,        0.2114257812,      -34.0576171875,      -37.6434326172,       90.7440185547
1489455941.3559060097,1489455941.3581988811,       -0.8061523438,        0.3178710938,        0.2114257812,      -34.0576171875,      -37.6434326172,       90.7440185547
1489455941.3584818840,1489455941.3607809544,       -0.8061523438,        0.6928710938,        0.2133789062,      -31.5704345703,      -36.7431640625,       96.5728759766
1489455941.3610670567,1489455941.3633511066,       -0.9282226562,        0.6972656250,        0.2133789062,      -31.5704345703,      -36.7431640625,       96.5728759766
1489455941.3636379242,1489455941.3660368919,       -0.9282226562,        0.6972656250,        0.2133789062,      -15.9454345703,      -30.7922363281,       90.3625488281
1489455941.3663220406,1489455941.3686070442,       -0.9282226562,        0.6972656250,        0.2133789062,      -19.2108154297,      -30.7922363281,       90.3625488281
1489455941.3690838814,1489455941.3713839054,       -0.8032226562,        0.4355468750,        0.0449218750,      -19.2108154297,      -23.9868164062,       77.6214599609
1489455941.3716709614,1489455941.3739640713,       -0.7998046875,        0.4355468750,        0.0449218750,       -1.4343261719,      -23.9868164062,       77.6214599609
1489455941.3747739792,1489455941.3778610229,       -0.7998046875,        0.4355468750,        0.0449218750,        3.3111572266,      -23.8800048828,       67.8100585938
1489455941.3782579899,1489455941.3806068897,       -0.7998046875,        0.4355468750,       -0.0800781250,        3.3111572266,      -23.8800048828,       67.8100585938
1489455941.3808889389,1489455941.3831799030,       -0.6850585938,        0.2358398438,       -0.0283203125,       -2.8076171875,      -25.8789062500,       61.1877441406
1489455941.3834629059,1489455941.3857479095,       -0.6850585938,        0.2358398438,       -0.0283203125,       -2.8076171875,      -25.8789062500,       61.1877441406
1489455941.3860290051,1489455941.3883240223,       -0.6850585938,        0.2358398438,       -0.0283203125,       -0.8850097656,      -26.4739990234,       56.2133789062
1489455941.3886070251,1489455941.3909409046,       -0.6850585938,        0.2358398438,       -0.0410156250,       -0.8850097656,      -26.4739990234,       56.2133789062
1489455941.3912250996,1489455941.3935189247,       -0.6914062500,        0.2036132812,       -0.0410156250,        7.2021484375,      -25.2380371094,       51.1016845703
1489455941.3938028812,1489455941.3960919380,       -0.6914062500,        0.2036132812,       -0.0410156250,        7.2021484375,      -25.2380371094,       51.1016845703
1489455941.3963749409,1489455941.3986649513,       -0.6914062500,        0.2036132812,       -0.0410156250,       15.0146484375,      -24.1088867188,       43.8842773438
1489455941.3989489079,1489455941.4012439251,       -0.6914062500,        0.3286132812,       -0.0029296875,       13.8549804688,      -24.1088867188,       43.8842773438
1489455941.4015300274,1489455941.4038190842,       -0.7084960938,        0.2978515625,       -0.0029296875,       13.8549804688,      -24.1088867188,       36.0565185547
1489455941.4041049480,1489455941.4063980579,       -0.7084960938,        0.2978515625,       -0.0029296875,       22.6898193359,      -23.6206054688,       36.0565185547
1489455941.4066820145,1489455941.4090209007,       -0.7084960938,        0.2978515625,       -0.0029296875,       22.6898193359,      -23.6206054688,       28.6865234375
1489455941.4093060493,1489455941.4115939140,       -0.7084960938,        0.2070312500,        0.0112304688,       31.7077636719,      -23.6968994141,       28.6865234375
1489455941.4118781090,1489455941.4141728878,       -0.7207031250,        0.2070312500,        0.0112304688,       31.7077636719,      -23.6968994141,       20.8740234375
1489455941.4144570827,1489455941.4167490005,       -0.7207031250,        0.2070312500,        0.0112304688,       38.4826660156,      -24.2767333984,       23.1323242188
1489455941.4170329571,1489455941.4194018841,       -0.7207031250,        0.2070312500,        0.0112304688,       38.4826660156,      -24.2767333984,       23.1323242188
1489455941.4196879864,1489455941.4219820499,       -0.7397460938,        0.1489257812,       -0.0078125000,       41.9616699219,      -24.3835449219,       19.4854736328
1489455941.4222660065,1489455941.4245569706,       -0.7397460938,        0.1489257812,       -0.0078125000,       41.9616699219,      -24.3835449219,       19.4854736328
1489455941.4248430729,1489455941.4271309376,       -0.7397460938,        0.1489257812,       -0.0078125000,       40.7562255859,      -24.8260498047,       17.3034667969
1489455941.4274160862,1489455941.4298141003,       -0.7397460938,        0.1489257812,       -0.0078125000,       40.7562255859,      -24.8260498047,       17.3034667969
1489455941.4301021099,1489455941.4323968887,       -0.7465820312,        0.1113281250,       -0.0185546875,       36.4379882812,      -25.5279541016,       15.8843994141
1489455941.4326829910,1489455941.4349789619,       -0.7465820312,        0.1113281250,       -0.0185546875,       36.4379882812,      -25.5279541016,       15.8843994141
1489455941.4352650642,1489455941.4375550747,       -0.7465820312,        0.1113281250,       -0.0185546875,       29.5715332031,      -26.0009765625,       15.9149169922
1489455941.4378399849,1489455941.4401819706,       -0.7465820312,        0.1113281250,       -0.0185546875,       29.5715332031,      -26.0009765625,       15.9149169922
1489455941.4405820370,1489455941.4428799152,       -0.7348632812,        0.0693359375,        0.0083007812,       22.7661132812,      -26.4587402344,       15.8081054688
1489455941.4431669712,1489455941.4454550743,       -0.7348632812,        0.0693359375,        0.0083007812,       22.7661132812,      -26.4587402344,       15.8081054688
1489455941.4457409382,1489455941.4480299950,       -0.7348632812,        0.0693359375,        0.0083007812,       17.2729492188,      -26.9470214844,       16.3574218750
1489455941.4483149052,1489455941.4506149292,       -0.7348632812,        0.0693359375,        0.0083007812,       17.2729492188,      -26.9470214844,       16.3574218750
1489455941.4509000778,1489455941.4531888962,       -0.7421875000,        0.0483398438,        0.0151367188,        9.4604492188,      -27.0690917969,       17.4560546875
1489455941.4534709454,1489455941.4557669163,       -0.7421875000,        0.0483398438,        0.0151367188,       11.6577148438,      -27.0690917969,       17.4560546875
1489455941.4560520649,1489455941.4583399296,       -0.7421875000,        0.0483398438,        0.0151367188,       11.6577148438,      -30.9753417969,       18.1884765625
1489455941.4586250782,1489455941.4610950947,       -0.7421875000,        0.0483398438,        0.0151367188,        6.7291259766,      -27.7252197266,       18.1884765625
1489455941.4613831043,1489455941.4638071060,       -0.7407226562,        0.0634765625,        0.0410156250,        6.7291259766,      -27.7252197266,       19.2718505859
1489455941.4640970230,1489455941.4665169716,       -0.7407226562,        0.0634765625,        0.0410156250,        2.3193359375,      -27.8320312500,       19.2718505859
1489455941.4668059349,1489455941.4692349434,       -0.7407226562,        0.0634765625,        0.0410156250,        2.3193359375,      -23.9257812500,       19.8669433594
1489455941.4695229530,1489455941.4719419479,       -0.7407226562,        0.0634765625,        0.0712890625,        0.0457763672,      -27.0080566406,       19.8669433594
1489455941.4722321033,1489455941.4746499062,       -0.7241210938,        0.0878906250,        0.0712890625,        0.0457763672,      -27.0080566406,       19.6838378906
1489455941.4749379158,1489455941.4773581028,       -0.7241210938,        0.0878906250,        0.0712890625,       -0.2593994141,      -25.8789062500,       19.6838378906
1489455941.4776480198,1489455941.4800770283,       -0.7241210938,        0.0878906250,        0.0712890625,       -0.2593994141,      -25.8789062500,       19.0887451172
1489455941.4803669453,1489455941.4827818871,       -0.7172851562,        0.1142578125,        0.0869140625,        0.3204345703,      -24.5208740234,       19.0887451172
1489455941.4830720425,1489455941.4855580330,       -0.7172851562,        0.1142578125,        0.0869140625,        0.3204345703,      -20.6146240234,       18.3410644531
1489455941.4858500957,1489455941.4882659912,       -0.7172851562,        0.1142578125,        0.0869140625,        0.6866455078,      -23.4375000000,       18.3410644531
1489455941.4885580540,1489455941.4909749031,       -0.7172851562,        0.1142578125,        0.0869140625,        0.6866455078,      -23.4375000000,       17.6391601562
1489455941.4912641048,1489455941.4936840534,       -0.7207031250,        0.1201171875,        0.0878906250,        0.6256103516,      -21.8200683594,       17.6391601562
1489455941.4939739704,1489455941.4963901043,       -0.7207031250,        0.1201171875,        0.0878906250,        0.6256103516,      -21.8200683594,       16.9982910156
1489455941.4966809750,1489455941.4991040230,       -0.7207031250,        0.1201171875,        0.0878906250,        2.8228759766,      -21.1639404297,       16.9982910156
1489455941.4993870258,1489455941.5016839504,       -0.7207031250,        0.1201171875,        0.0878906250,        2.8228759766,      -21.1639404297,       16.1895751953
1489455941.5019669533,1489455941.5042550564,       -0.7148437500,        0.1220703125,        0.1010742188,        6.7291259766,      -20.5535888672,       16.1895751953
1489455941.5046579838,1489455941.5069499016,       -0.7148437500,        0.1220703125,        0.1010742188,        6.7291259766,      -20.5535888672,       14.8315429688
1489455941.5072340965,1489455941.5095739365,       -0.7148437500,        0.1220703125,        0.1010742188,       11.5203857422,      -19.9127197266,       14.8315429688
1489455941.5098659992,1489455941.5122830868,       -0.7148437500,        0.1220703125,        0.1025390625,       11.5203857422,      -19.9127197266,       14.8315429688
1489455941.5125749111,1489455941.5149919987,       -0.7021484375,        0.1220703125,        0.1025390625,       17.4102783203,      -19.0429687500,       14.4042968750
1489455941.5152831078,1489455941.5177040100,       -0.7021484375,        0.1220703125,        0.1025390625,       17.4102783203,      -19.0429687500,       14.4042968750
1489455941.5179960728,1489455941.5203719139,       -0.7021484375,        0.1220703125,        0.1025390625,       23.3306884766,      -18.4631347656,       14.0533447266
1489455941.5206599236,1489455941.5229508877,       -0.7011718750,        0.1220703125,        0.0693359375,       23.3306884766,      -18.4631347656,       14.0533447266
1489455941.5232360363,1489455941.5255320072,       -0.7011718750,        0.1220703125,        0.0693359375,       29.4647216797,      -17.3339843750,       14.0686035156
1489455941.5258169174,1489455941.5281069279,       -0.7011718750,        0.1220703125,        0.0693359375,       29.4647216797,      -17.3339843750,       14.0686035156
1489455941.5283920765,1489455941.5308430195,       -0.7011718750,        0.1220703125,        0.0693359375,       34.3933105469,      -16.8762207031,       13.8397216797
1489455941.5311300755,1489455941.5334219933,       -0.7172851562,        0.1240234375,        0.0595703125,       34.3933105469,      -16.8762207031,       13.8397216797
1489455941.5337069035,1489455941.5360000134,       -0.7172851562,        0.1240234375,        0.0595703125,       37.1856689453,      -16.8304443359,       14.2974853516
1489455941.5362849236,1489455941.5385808945,       -0.7172851562,        0.1240234375,        0.0595703125,       37.1856689453,      -16.8304443359,       14.2974853516
1489455941.5389521122,1489455941.5413639545,       -0.7172851562,        0.1240234375,        0.0595703125,       38.2690429688,      -16.9830322266,       15.1824951172
1489455941.5416579247,1489455941.5440759659,       -0.7221679688,        0.0908203125,        0.0781250000,       38.2690429688,      -16.9830322266,       15.1824951172
1489455941.5443670750,1489455941.5467789173,       -0.7221679688,        0.0908203125,        0.0781250000,       40.5120849609,      -17.6391601562,       15.8691406250
1489455941.5470719337,1489455941.5494658947,       -0.7221679688,        0.0908203125,        0.0781250000,       40.5120849609,      -17.6391601562,       15.8691406250
1489455941.5497500896,1489455941.5520439148,       -0.7221679688,        0.0908203125,        0.0781250000,       45.6695556641,      -16.6778564453,       17.3797607422
1489455941.5523281097,1489455941.5546228886,       -0.7333984375,        0.0717773438,        0.0751953125,       45.6695556641,      -16.6778564453,       17.3797607422
1489455941.5549049377,1489455941.5571970940,       -0.7333984375,        0.0717773438,        0.0751953125,       49.4689941406,      -16.3574218750,       19.8669433594
1489455941.5574829578,1489455941.5598659515,       -0.7333984375,        0.0717773438,        0.0751953125,       49.4689941406,      -16.3574218750,       19.8669433594
1489455941.5601561069,1489455941.5625669956,       -0.7333984375,        0.0717773438,        0.0268554688,       47.1038818359,      -15.7775878906,       21.4996337891
1489455941.5628581047,1489455941.5652720928,       -0.7568359375,        0.0317382812,        0.0268554688,       47.1038818359,      -15.7775878906,       21.4996337891
1489455941.5655629635,1489455941.5679750443,       -0.7568359375,        0.0317382812,        0.0268554688,       40.6951904297,      -16.0217285156,       24.0173339844
1489455941.5683739185,1489455941.5708529949,       -0.7568359375,        0.0317382812,        0.0268554688,       40.6951904297,      -16.0217285156,       24.0173339844
1489455941.5711390972,1489455941.5734300613,       -0.7421875000,        0.0556640625,        0.0126953125,       32.6385498047,      -17.3339843750,       25.8331298828
1489455941.5737149715,1489455941.5760149956,       -0.7421875000,        0.0556640625,        0.0126953125,       32.6385498047,      -17.3339843750,       25.8331298828
1489455941.5762999058,1489455941.5785930157,       -0.7421875000,        0.0556640625,        0.0126953125,       26.6265869141,      -17.9290771484,       28.7017822266
1489455941.5789890289,1489455941.5813710690,       -0.7421875000,        0.0556640625,        0.0126953125,       26.6265869141,      -17.9290771484,       28.7017822266
1489455941.5816600323,1489455941.5840420723,       -0.7255859375,        0.1152343750,        0.0371093750,       23.1475830078,      -18.3715820312,       30.4870605469
1489455941.5844368935,1489455941.5868170261,       -0.7255859375,        0.1152343750,        0.0371093750,       23.1475830078,      -18.3715820312,       30.4870605469
1489455941.5871090889,1489455941.5904390812,       -0.7255859375,        0.1152343750,        0.0371093750,       22.5219726562,      -18.5394287109,       30.9143066406
1489455941.5907258987,1489455941.5930171013,       -0.7255859375,        0.1152343750,        0.0541992188,       22.5219726562,      -18.5394287109,       30.9143066406
1489455941.5933029652,1489455941.5955920219,       -0.7216796875,        0.1225585938,        0.0541992188,       22.2015380859,      -17.8375244141,       31.7535400391
1489455941.5958759785,1489455941.5981619358,       -0.7216796875,        0.1225585938,        0.0541992188,       22.2015380859,      -17.8375244141,       31.7535400391
1489455941.5984480381,1489455941.6007990837,       -0.7216796875,        0.1225585938,        0.0541992188,       22.8118896484,      -16.8762207031,       33.0352783203
1489455941.6010859013,1489455941.6033699512,       -0.7216796875,        0.1245117188,        0.0771484375,       22.8118896484,      -16.8762207031,       33.0352783203
1489455941.6036539078,1489455941.6059410572,       -0.7236328125,        0.1245117188,        0.0771484375,       24.4903564453,      -16.0980224609,       33.7677001953
1489455941.6062259674,1489455941.6085150242,       -0.7236328125,        0.1245117188,        0.0771484375,       24.4903564453,      -16.0980224609,       33.7677001953
1489455941.6088480949,1489455941.6111440659,       -0.7236328125,        0.1245117188,        0.0771484375,       26.8859863281,      -15.4724121094,       33.9508056641
1489455941.6114289761,1489455941.6137170792,       -0.7231445312,        0.1547851562,        0.0966796875,       26.8859863281,      -15.4724121094,       33.9508056641
1489455941.6140019894,1489455941.6162850857,       -0.7231445312,        0.1547851562,        0.0966796875,       26.8859863281,      -14.6179199219,       33.9355468750
1489455941.6165690422,1489455941.6188840866,       -0.7231445312,        0.1547851562,        0.0966796875,       29.9072265625,      -14.6179199219,       33.9355468750
1489455941.6191680431,1489455941.6214559078,       -0.7231445312,        0.1547851562,        0.0966796875,       29.9072265625,      -14.6179199219,       33.8134765625
1489455941.6217401028,1489455941.6240289211,       -0.7163085938,        0.1669921875,        0.0957031250,       32.6538085938,      -13.5040283203,       33.8134765625
1489455941.6243150234,1489455941.6266050339,       -0.7163085938,        0.1669921875,        0.0957031250,       32.6538085938,      -13.5040283203,       33.8134765625
1489455941.6268920898,1489455941.6292319298,       -0.7163085938,        0.1669921875,        0.0957031250,       34.6069335938,      -12.5122070312,       33.8592529297
1489455941.6295170784,1489455941.6318049431,       -0.7163085938,        0.1669921875,        0.0957031250,       34.6069335938,      -12.5122070312,       33.8592529297
1489455941.6322000027,1489455941.6344869137,       -0.7231445312,        0.1464843750,        0.0991210938,       35.1562500000,      -11.7034912109,       34.6527099609
1489455941.6347720623,1489455941.6370630264,       -0.7231445312,        0.1464843750,        0.0991210938,       35.1562500000,      -11.7034912109,       34.6527099609
1489455941.6373469830,1489455941.6397531033,       -0.7231445312,        0.1464843750,        0.0991210938,       33.5998535156,      -10.9863281250,       36.0107421875
1489455941.6400399208,1489455941.6423349380,       -0.7231445312,        0.1464843750,        0.0991210938,       33.5998535156,      -10.9863281250,       36.0107421875
1489455941.6426210403,1489455941.6449089050,       -0.7363281250,        0.1269531250,        0.0864257812,       31.9976806641,      -10.1013183594,       36.3006591797
1489455941.6451940536,1489455941.6474881172,       -0.7363281250,        0.1269531250,        0.0864257812,       31.9976806641,      -10.1013183594,       36.3006591797
1489455941.6477730274,1489455941.6502459049,       -0.7363281250,        0.1269531250,        0.0864257812,       30.6091308594,       -9.0942382812,       38.4826660156
1489455941.6505360603,1489455941.6529390812,       -0.7363281250,        0.1269531250,        0.0864257812,       30.6091308594,       -9.0942382812,       38.4826660156
1489455941.6532270908,1489455941.6556310654,       -0.7436523438,        0.1113281250,        0.0649414062,       28.5949707031,       -8.6975097656,       40.8477783203
1489455941.6559209824,1489455941.6583240032,       -0.7436523438,        0.1113281250,        0.0649414062,       28.5949707031,       -8.6975097656,       40.8477783203
1489455941.6586139202,1489455941.6610078812,       -0.7436523438,        0.1113281250,        0.0649414062,       26.4739990234,       -8.5601806641,       41.7785644531
1489455941.6612970829,1489455941.6636838913,       -0.7436523438,        0.1113281250,        0.0561523438,       26.4739990234,       -8.5601806641,       41.7785644531
1489455941.6639928818,1489455941.6663639545,       -0.7670898438,        0.0776367188,        0.0561523438,       23.8342285156,       -8.5449218750,       42.2821044922
1489455941.6666500568,1489455941.6690700054,       -0.7670898438,        0.0776367188,        0.0561523438,       23.8342285156,       -8.5449218750,       42.2821044922
1489455941.6693639755,1489455941.6717560291,       -0.7670898438,        0.0776367188,        0.0561523438,       21.0113525391,       -8.1939697266,       44.2657470703
1489455941.6720709801,1489455941.6744599342,       -0.7631835938,        0.1123046875,        0.0566406250,       21.0113525391,       -8.1939697266,       44.2657470703
1489455941.6756989956,1489455941.6779899597,       -0.7631835938,        0.1123046875,        0.0566406250,       18.7377929688,       -7.8277587891,       46.7376708984
1489455941.6782729626,1489455941.6805961132,       -0.7631835938,        0.1123046875,        0.0566406250,       18.7377929688,       -7.8277587891,       46.7376708984
1489455941.6808779240,1489455941.6831688881,       -0.7631835938,        0.1123046875,        0.0566406250,       16.9219970703,       -8.1176757812,       47.9278564453
1489455941.6834530830,1489455941.6857450008,       -0.7456054688,        0.1425781250,        0.0634765625,       16.9219970703,       -8.1176757812,       47.9278564453
1489455941.6860260963,1489455941.6883139610,       -0.7456054688,        0.1425781250,        0.0634765625,       16.6625976562,       -7.7514648438,       48.1719970703
1489455941.6885960102,1489455941.6909420490,       -0.7456054688,        0.1425781250,        0.0634765625,       16.6625976562,       -7.7514648438,       48.1719970703
1489455941.6912269592,1489455941.6935160160,       -0.7456054688,        0.1425781250,        0.0634765625,       16.7236328125,       -7.2479248047,       48.6297607422
1489455941.6937990189,1489455941.6960909367,       -0.7358398438,        0.1713867188,        0.0625000000,       16.7236328125,       -7.2479248047,       48.6297607422
1489455941.6964919567,1489455941.6987819672,       -0.7358398438,        0.1713867188,        0.0625000000,       16.8457031250,       -7.7056884766,       48.8586425781
1489455941.6991360188,1489455941.7014238834,       -0.7358398438,        0.1713867188,        0.0625000000,       16.8457031250,       -7.7056884766,       48.8586425781
1489455941.7017059326,1489455941.7039909363,       -0.7358398438,        0.1713867188,        0.0664062500,       17.4560546875,       -7.8582763672,       49.4079589844
1489455941.7042720318,1489455941.7065570354,       -0.7280273438,        0.1909179688,        0.0664062500,       17.4560546875,       -7.8582763672,       49.4079589844
1489455941.7068378925,1489455941.7092769146,       -0.7280273438,        0.1909179688,        0.0664062500,       18.3410644531,       -7.3699951172,       49.6368408203
1489455941.7095611095,1489455941.7118549347,       -0.7280273438,        0.1909179688,        0.0664062500,       18.3410644531,       -7.3699951172,       49.6368408203
1489455941.7121369839,1489455941.7144250870,       -0.7280273438,        0.1982421875,        0.0727539062,       18.3410644531,       -6.8054199219,       49.1790771484
1489455941.7147080898,1489455941.7169959545,       -0.7275390625,        0.1982421875,        0.0727539062,       19.2260742188,       -6.8054199219,       49.1790771484
1489455941.7172760963,1489455941.7196331024,       -0.7275390625,        0.1982421875,        0.0727539062,       19.2260742188,       -6.8054199219,       49.1638183594
1489455941.7199149132,1489455941.7221980095,       -0.7275390625,        0.1982421875,        0.0727539062,       20.4162597656,       -5.9204101562,       49.1638183594
1489455941.7224800587,1489455941.7247679234,       -0.7304687500,        0.1894531250,        0.1000976562,       20.4162597656,       -5.9204101562,       48.6755371094
1489455941.7250509262,1489455941.7273390293,       -0.7304687500,        0.1894531250,        0.1000976562,       21.3775634766,       -5.4168701172,       48.6755371094
1489455941.7276210785,1489455941.7299818993,       -0.7304687500,        0.1894531250,        0.1000976562,       21.3775634766,       -5.4168701172,       48.6755371094
1489455941.7302730083,1489455941.7326929569,       -0.7304687500,        0.1894531250,        0.1000976562,       22.0642089844,       -5.1422119141,       49.9267578125
1489455941.7329819202,1489455941.7353999615,       -0.7250976562,        0.1982421875,        0.0878906250,       22.0642089844,       -5.1422119141,       49.9267578125
1489455941.7356889248,1489455941.7381110191,       -0.7250976562,        0.1982421875,        0.0878906250,       22.6898193359,       -4.7607421875,       50.7049560547
1489455941.7383999825,1489455941.7408630848,       -0.7250976562,        0.1982421875,        0.0878906250,       22.6898193359,       -4.7607421875,       54.6112060547
1489455941.7411530018,1489455941.7435729504,       -0.7250976562,        0.1982421875,        0.0878906250,       22.6287841797,       -4.0435791016,       51.3305664062
1489455941.7438609600,1489455941.7462799549,       -0.7299804688,        0.2114257812,        0.0756835938,       22.6287841797,       -4.0435791016,       51.3305664062
1489455941.7465701103,1489455941.7490539551,       -0.7299804688,        0.2114257812,        0.0756835938,       22.6593017578,       -3.3264160156,       52.0935058594
1489455941.7493360043,1489455941.7516310215,       -0.7299804688,        0.2114257812,        0.0756835938,       22.6593017578,       -3.3264160156,       52.0935058594
1489455941.7519121170,1489455941.7542049885,       -0.7299804688,        0.2114257812,        0.0947265625,       22.1099853516,       -3.2806396484,       52.7496337891
1489455941.7544879913,1489455941.7567830086,       -0.7309570312,        0.1918945312,        0.0947265625,       22.1099853516,       -3.2806396484,       52.7496337891
1489455941.7570679188,1489455941.7594079971,       -0.7309570312,        0.1918945312,        0.0947265625,       22.0794677734,       -3.4637451172,       55.1910400391
1489455941.7597908974,1489455941.7620871067,       -0.7309570312,        0.1918945312,        0.0947265625,       22.0794677734,       -3.4637451172,       55.1910400391
1489455941.7623689175,1489455941.7646598816,       -0.7309570312,        0.2084960938,        0.0859375000,       21.8963623047,       -2.9754638672,       55.3741455078
1489455941.7649428844,1489455941.7672400475,       -0.7270507812,        0.2084960938,        0.0859375000,       21.8963623047,       -2.9754638672,       55.3741455078
1489455941.7675230503,1489455941.7699429989,       -0.7270507812,        0.2084960938,        0.0859375000,       22.6745605469,       -2.8991699219,       55.6945800781
1489455941.7702250481,1489455941.7725200653,       -0.7270507812,        0.2084960938,        0.0859375000,       22.6745605469,       -2.8991699219,       55.6945800781
1489455941.7728009224,1489455941.7752070427,       -0.7270507812,        0.2143554688,        0.0712890625,       23.4222412109,       -3.0670166016,       56.9458007812
1489455941.7754890919,1489455941.7777841091,       -0.7460937500,        0.2143554688,        0.0712890625,       23.4222412109,       -3.0670166016,       56.9458007812
1489455941.7780671120,1489455941.7805969715,       -0.7460937500,        0.2143554688,        0.0712890625,       23.4680175781,       -3.2043457031,       58.4411621094
1489455941.7808809280,1489455941.7831709385,       -0.7460937500,        0.2143554688,        0.0712890625,       23.4680175781,       -3.2043457031,       58.4411621094
1489455941.7834529877,1489455941.7857489586,       -0.7456054688,        0.2001953125,        0.0727539062,       21.9268798828,       -2.9754638672,       60.1348876953
1489455941.7860319614,1489455941.7883260250,       -0.7456054688,        0.2001953125,        0.0727539062,       21.9268798828,       -2.9754638672,       60.1348876953
1489455941.7886080742,1489455941.7911570072,       -0.7456054688,        0.2001953125,        0.0727539062,       20.2331542969,       -3.1127929688,       61.2945556641
1489455941.7914450169,1489455941.7938320637,       -0.7456054688,        0.2001953125,        0.0727539062,       20.2331542969,       -3.1127929688,       61.2945556641
1489455941.7946960926,1489455941.7971179485,       -0.7480468750,        0.2270507812,        0.0644531250,       19.1955566406,       -3.3569335938,       62.4237060547
1489455941.7974100113,1489455941.7998449802,       -0.7480468750,        0.2270507812,        0.0644531250,       19.1955566406,       -3.3569335938,       62.4237060547
1489455941.8001339436,1489455941.8025460243,       -0.7480468750,        0.2270507812,        0.0644531250,       19.3023681641,       -3.4179687500,       63.0340576172
1489455941.8028349876,1489455941.8052508831,       -0.7480468750,        0.2514648438,        0.0512695312,       19.3023681641,       -3.4179687500,       63.0340576172
1489455941.8055388927,1489455941.8079619408,       -0.7353515625,        0.2514648438,        0.0512695312,       20.0958251953,       -3.8146972656,       63.4765625000
1489455941.8082520962,1489455941.8106811047,       -0.7353515625,        0.2514648438,        0.0512695312,       20.0958251953,       -3.8146972656,       63.4765625000
1489455941.8109691143,1489455941.8133859634,       -0.7353515625,        0.2514648438,        0.0512695312,       21.5911865234,       -3.4027099609,       64.2089843750
1489455941.8136739731,1489455941.8160951138,       -0.7412109375,        0.2734375000,        0.0693359375,       21.5911865234,       -3.4027099609,       64.2089843750
1489455941.8163840771,1489455941.8188440800,       -0.7412109375,        0.2734375000,        0.0693359375,       22.7813720703,       -3.2196044922,       64.6972656250
1489455941.8191339970,1489455941.8215610981,       -0.7412109375,        0.2734375000,        0.0693359375,       22.7813720703,       -3.2196044922,       64.6972656250
1489455941.8218510151,1489455941.8242659569,       -0.7412109375,        0.2734375000,        0.0693359375,       24.1851806641,       -3.1890869141,       64.7277832031
1489455941.8245549202,1489455941.8269720078,       -0.7446289062,        0.2729492188,        0.0815429688,       24.1851806641,       -3.1890869141,       64.7277832031
1489455941.8273680210,1489455941.8297829628,       -0.7446289062,        0.2729492188,        0.0815429688,       25.1617431641,       -3.2196044922,       65.4602050781
1489455941.8300659657,1489455941.8323540688,       -0.7446289062,        0.2729492188,        0.0815429688,       25.1617431641,       -3.2196044922,       65.4602050781
1489455941.8326349258,1489455941.8349320889,       -0.7446289062,        0.2729492188,        0.0561523438,       25.2990722656,       -3.0822753906,       66.2536621094
1489455941.8352119923,1489455941.8375060558,       -0.7597656250,        0.2700195312,        0.0561523438,       25.2990722656,       -3.0822753906,       66.2536621094
1489455941.8377900124,1489455941.8401310444,       -0.7597656250,        0.2700195312,        0.0561523438,       25.1770019531,       -2.4414062500,       67.2607421875
1489455941.8404159546,1489455941.8427100182,       -0.7597656250,        0.2700195312,        0.0561523438,       25.1770019531,       -2.4414062500,       67.2607421875
1489455941.8429920673,1489455941.8452858925,       -0.7597656250,        0.2700195312,        0.0590820312,       24.7344970703,       -1.8768310547,       68.6645507812
1489455941.8455669880,1489455941.8478629589,       -0.7749023438,        0.2729492188,        0.0590820312,       24.7344970703,       -1.8768310547,       68.6645507812
1489455941.8481440544,1489455941.8506979942,       -0.7749023438,        0.2729492188,        0.0590820312,       24.7344970703,       -1.6937255859,       69.8242187500
1489455941.8509879112,1489455941.8534040451,       -0.7749023438,        0.2729492188,        0.0590820312,       24.8413085938,       -1.6937255859,       69.8242187500
1489455941.8536920547,1489455941.8561060429,       -0.7768554688,        0.2822265625,        0.0253906250,       24.8413085938,       -1.6632080078,       71.0601806641
1489455941.8563969135,1489455941.8588490486,       -0.7768554688,        0.2822265625,        0.0253906250,       23.5595703125,       -1.6632080078,       71.0601806641
1489455941.8591399193,1489455941.8615560532,       -0.7768554688,        0.2822265625,        0.0253906250,       19.6533203125,       -1.4953613281,       72.1130371094
1489455941.8618459702,1489455941.8642699718,       -0.7768554688,        0.2822265625,        0.0253906250,       22.0336914062,       -1.4953613281,       72.1130371094
1489455941.8645579815,1489455941.8669710159,       -0.7954101562,        0.2817382812,        0.0039062500,       22.0336914062,       -0.0457763672,       73.0895996094
1489455941.8672630787,1489455941.8696880341,       -0.7954101562,        0.2817382812,        0.0039062500,       20.2178955078,       -0.0457763672,       73.0895996094
1489455941.8699789047,1489455941.8723950386,       -0.7954101562,        0.2817382812,        0.0039062500,       16.3116455078,        1.5869140625,       73.8983154297
1489455941.8726840019,1489455941.8750960827,       -0.7954101562,        0.2817382812,        0.0039062500,       18.2952880859,        1.5869140625,       73.8983154297
1489455941.8753829002,1489455941.8778660297,       -0.8203125000,        0.2841796875,        0.0009765625,       15.6402587891,        3.6926269531,       74.8443603516
1489455941.8781499863,1489455941.8805480003,       -0.8203125000,        0.2841796875,        0.0009765625,       15.6402587891,        3.6926269531,       74.8443603516
1489455941.8808329105,1489455941.8831260204,       -0.8203125000,        0.2841796875,        0.0009765625,       11.7340087891,        4.1351318359,       76.7669677734
1489455941.8834080696,1489455941.8859930038,       -0.8203125000,        0.2841796875,        0.0307617188,       13.4277343750,        4.1351318359,       76.7669677734
1489455941.8862779140,1489455941.8885660172,       -0.8110351562,        0.2871093750,        0.0307617188,       13.4277343750,        4.2724609375,       78.5369873047
1489455941.8889019489,1489455941.8911869526,       -0.8110351562,        0.2871093750,        0.0307617188,       11.9323730469,        4.2724609375,       78.5369873047
1489455941.8915901184,1489455941.8938789368,       -0.8110351562,        0.2871093750,        0.0307617188,       11.9323730469,        3.9062500000,       80.0933837891
1489455941.8941619396,1489455941.8964500427,       -0.8090820312,        0.2949218750,        0.0585937500,       11.6577148438,        3.9062500000,       80.0933837891
1489455941.8967330456,1489455941.8990740776,       -0.8090820312,        0.2949218750,        0.0585937500,       11.6577148438,        3.9062500000,       81.7565917969
1489455941.8993558884,1489455941.9016458988,       -0.8090820312,        0.2949218750,        0.0585937500,       11.4746093750,        3.7384033203,       81.7565917969
1489455941.9019279480,1489455941.9042119980,       -0.8090820312,        0.2949218750,        0.0585937500,       11.4746093750,        3.7384033203,       85.6628417969
1489455941.9044950008,1489455941.9067869186,       -0.8310546875,        0.3168945312,        0.0493164062,       11.4593505859,        3.7078857422,       82.9162597656
