time_stamp before, Acceleration x, Acceleration y, Acceleration z, Gyro x, Gyro y, Gyro z
1494035646.0132570267,       -0.9399414062,        0.3500976562,        0.2138671875,       -5.3405761719,       -9.5825195312,       -4.0740966797
1494035646.0268669128,       -1.0097656250,        0.4121093750,        0.0551757812,       -7.2631835938,       -6.0577392578,       -5.6610107422
1494035646.0296089649,       -1.0097656250,        0.4121093750,        0.0551757812,       -7.2631835938,       -6.0577392578,       -5.6610107422
1494035646.0322880745,       -1.0097656250,        0.4121093750,        0.0551757812,       -6.2561035156,       -1.8157958984,       -6.9885253906
1494035646.0353128910,       -1.0097656250,        0.4121093750,       -0.0698242188,       -6.2561035156,       -1.8157958984,       -6.3323974609
1494035646.0379879475,       -0.9267578125,        0.3041992188,       -0.0839843750,      -10.9710693359,        3.2348632812,       -6.3323974609
1494035646.0406689644,       -0.9267578125,        0.3041992188,       -0.0839843750,      -10.9710693359,        3.2348632812,       -6.2561035156
1494035646.0434079170,       -0.9267578125,        0.3041992188,       -0.0839843750,      -13.7176513672,        7.0190429688,       -6.2561035156
1494035646.0460848808,       -0.9267578125,        0.3789062500,       -0.0502929688,      -13.7176513672,        7.0190429688,       -6.2561035156
1494035646.0487658978,       -0.8295898438,        0.3789062500,       -0.0502929688,      -14.5263671875,        8.6059570312,       -7.6751708984
1494035646.0514469147,       -0.8295898438,        0.3789062500,       -0.0502929688,      -14.5263671875,        8.6059570312,      -11.5814208984
1494035646.0541470051,       -0.8295898438,        0.3789062500,       -0.0502929688,      -12.7105712891,        8.3312988281,      -10.4980468750
1494035646.0568389893,       -0.7719726562,        0.3867187500,        0.0214843750,      -12.7105712891,        8.3312988281,      -14.4042968750
1494035646.0595269203,       -0.7719726562,        0.3867187500,        0.0214843750,       -8.7280273438,        7.2174072266,      -13.5498046875
1494035646.0622129440,       -0.7719726562,        0.3867187500,        0.0214843750,       -8.7280273438,        7.2174072266,      -13.5498046875
1494035646.0648279190,       -0.7719726562,        0.3867187500,        0.0214843750,       -6.5765380859,        5.7983398438,      -17.4102783203
1494035646.0673720837,       -0.6982421875,        0.4121093750,        0.0908203125,       -6.5765380859,        5.7983398438,      -17.4102783203
1494035646.0699179173,       -0.6982421875,        0.4121093750,        0.0908203125,       -5.2490234375,        4.7149658203,      -22.5219726562
1494035646.0724599361,       -0.6982421875,        0.4121093750,        0.0908203125,       -5.2490234375,        4.7149658203,      -22.5219726562
1494035646.0750279427,       -0.6982421875,        0.4121093750,        0.0908203125,       -7.1563720703,        3.6773681641,      -27.4200439453
1494035646.0775868893,       -0.7187500000,        0.3779296875,        0.0380859375,       -7.1563720703,        3.6773681641,      -27.4200439453
1494035646.0801460743,       -0.7187500000,        0.3779296875,        0.0380859375,       -7.2937011719,        2.2125244141,      -30.2276611328
1494035646.0826990604,       -0.7187500000,        0.3779296875,        0.0380859375,       -7.2937011719,        2.2125244141,      -30.2276611328
1494035646.0853590965,       -0.7187500000,        0.3779296875,        0.0380859375,       -5.4016113281,        1.0681152344,      -31.4178466797
1494035646.0879170895,       -0.6113281250,        0.3955078125,        0.0288085938,       -5.4016113281,        1.0681152344,      -31.4178466797
1494035646.0904710293,       -0.6113281250,        0.3955078125,        0.0288085938,       -5.4016113281,        1.0833740234,      -33.0657958984
1494035646.0930199623,       -0.6113281250,        0.3955078125,        0.0288085938,       -5.2185058594,        1.0833740234,      -33.0657958984
1494035646.0958139896,       -0.6113281250,        0.3955078125,        0.0288085938,       -5.2185058594,        1.2664794922,      -35.7208251953
1494035646.0986459255,       -0.5112304688,        0.3876953125,        0.0268554688,       -7.2631835938,        1.2664794922,      -35.7208251953
1494035646.1013209820,       -0.5112304688,        0.3876953125,        0.0268554688,      -11.1694335938,        2.0141601562,      -39.3829345703
1494035646.1040019989,       -0.5112304688,        0.3876953125,        0.0268554688,       -8.6212158203,        2.0141601562,      -39.3829345703
1494035646.1066520214,       -0.5112304688,        0.4145507812,       -0.1020507812,       -8.6212158203,        3.1127929688,      -41.0461425781
1494035646.1093571186,       -0.4057617188,        0.4145507812,       -0.1020507812,      -11.0778808594,        3.1127929688,      -41.0461425781
1494035646.1120550632,       -0.4057617188,        0.4145507812,       -0.1020507812,      -11.0778808594,        4.8828125000,      -43.1365966797
1494035646.1146929264,       -0.4057617188,        0.4145507812,       -0.1020507812,       -9.0026855469,        4.8828125000,      -43.1365966797
1494035646.1172509193,       -0.4169921875,        0.4223632812,       -0.0708007812,       -9.0026855469,        4.8828125000,      -46.4172363281
1494035646.1198070049,       -0.4169921875,        0.4223632812,       -0.0708007812,       -4.0893554688,        6.4544677734,      -46.4172363281
1494035646.1223568916,       -0.4169921875,        0.4223632812,       -0.0708007812,       -4.0893554688,        6.4544677734,      -50.3234863281
1494035646.1249198914,       -0.4169921875,        0.4223632812,       -0.0708007812,       -0.9460449219,        7.7514648438,      -48.8586425781
1494035646.1274750233,       -0.5498046875,        0.3286132812,       -0.0073242188,       -0.9460449219,        7.7514648438,      -48.8586425781
1494035646.1300339699,       -0.5498046875,        0.3286132812,       -0.0073242188,        0.7934570312,        7.7514648438,      -48.7518310547
1494035646.1325941086,       -0.5498046875,        0.3286132812,       -0.0073242188,        0.7934570312,        7.7514648438,      -48.7518310547
1494035646.1353189945,       -0.5498046875,        0.3286132812,       -0.0073242188,        3.7231445312,        5.8441162109,      -48.2330322266
1494035646.1380059719,       -0.5883789062,        0.2216796875,        0.0473632812,        3.7231445312,        5.8441162109,      -48.2330322266
1494035646.1406960487,       -0.5883789062,        0.2216796875,        0.0473632812,        7.6446533203,        4.6691894531,      -47.8057861328
1494035646.1434340477,       -0.5883789062,        0.2216796875,        0.0473632812,        7.6446533203,        4.6691894531,      -47.8057861328
1494035646.1461288929,       -0.5883789062,        0.2216796875,        0.0473632812,       11.7187500000,        3.8909912109,      -48.1109619141
1494035646.1488931179,       -0.7250976562,        0.1850585938,        0.0683593750,       11.7187500000,        3.8909912109,      -48.1109619141
1494035646.1516070366,       -0.7250976562,        0.1850585938,        0.0683593750,       16.6625976562,        2.6092529297,      -47.5769042969
1494035646.1543080807,       -0.7250976562,        0.1850585938,        0.0683593750,       16.6625976562,        2.6092529297,      -47.5769042969
1494035646.1570050716,       -0.7250976562,        0.1088867188,        0.0317382812,       19.9432373047,        1.1444091797,      -44.8913574219
1494035646.1597020626,       -0.8461914062,        0.1088867188,        0.0317382812,       19.9432373047,        1.1444091797,      -44.8913574219
1494035646.1624009609,       -0.8461914062,        0.1088867188,        0.0317382812,       21.4691162109,       -0.0762939453,      -40.9545898438
1494035646.1650209427,       -0.8461914062,        0.1088867188,        0.0317382812,       21.4691162109,       -0.0762939453,      -40.9545898438
1494035646.1675729752,       -0.8579101562,        0.0922851562,       -0.0244140625,       21.2402343750,       -0.5187988281,      -36.0717773438
1494035646.1702430248,       -0.8579101562,        0.0922851562,       -0.0244140625,       21.2402343750,       -0.5187988281,      -36.0717773438
1494035646.1728079319,       -0.8579101562,        0.0922851562,       -0.0244140625,       18.7530517578,       -0.0305175781,      -30.4718017578
1494035646.1755321026,       -0.8579101562,        0.0922851562,       -0.0244140625,       18.7530517578,       -0.0305175781,      -30.4718017578
1494035646.1782300472,       -0.8750000000,        0.0346679688,       -0.0498046875,       15.7318115234,        0.5645751953,      -23.9562988281
1494035646.1809339523,       -0.8750000000,        0.0346679688,       -0.0498046875,       15.7318115234,        0.5645751953,      -23.9562988281
1494035646.1836519241,       -0.8750000000,        0.0346679688,       -0.0498046875,       13.6718750000,        1.5106201172,      -18.8446044922
1494035646.1862111092,       -0.8750000000,        0.0346679688,       -0.0498046875,       13.6718750000,        1.5106201172,      -18.8446044922
1494035646.1887660027,       -0.8642578125,        0.0800781250,       -0.0927734375,       10.8184814453,        2.0599365234,      -13.2141113281
1494035646.1913270950,       -0.8642578125,        0.0800781250,       -0.0927734375,       10.8184814453,        2.0599365234,      -13.2141113281
1494035646.1939899921,       -0.8642578125,        0.0800781250,       -0.0927734375,       10.8184814453,        2.5634765625,       -7.5836181641
1494035646.1965470314,       -0.8642578125,        0.0800781250,       -0.0927734375,        8.6212158203,        2.5634765625,       -7.5836181641
1494035646.1990959644,       -0.8173828125,        0.1875000000,       -0.0429687500,        8.6212158203,        2.5634765625,       -2.9907226562
1494035646.2016510963,       -0.8173828125,        0.1875000000,       -0.0429687500,        7.8430175781,        2.8228759766,       -2.9907226562
1494035646.2043919563,       -0.8173828125,        0.1875000000,       -0.0429687500,        7.8430175781,        2.8228759766,        1.2207031250
1494035646.2070829868,       -0.8173828125,        0.1875000000,        0.0014648438,        9.4604492188,        1.3580322266,        1.2207031250
1494035646.2097730637,       -0.7299804688,        0.2241210938,        0.0014648438,        9.4604492188,        1.3580322266,        4.7302246094
1494035646.2124609947,       -0.7299804688,        0.2241210938,        0.0014648438,       12.4053955078,        0.0000000000,        4.7302246094
1494035646.2150740623,       -0.7299804688,        0.2241210938,        0.0014648438,       12.4053955078,        0.0000000000,        6.6528320312
1494035646.2176270485,       -0.7299804688,        0.2363281250,        0.0170898438,       14.8925781250,       -0.3662109375,        6.6528320312
1494035646.2201809883,       -0.7104492188,        0.2363281250,        0.0170898438,       14.8925781250,       -0.3662109375,        6.6528320312
1494035646.2227320671,       -0.7104492188,        0.2363281250,        0.0170898438,       16.0522460938,       -0.9307861328,        7.9193115234
1494035646.2254059315,       -0.7104492188,        0.2363281250,        0.0170898438,       16.0522460938,       -0.9307861328,        7.9193115234
1494035646.2281088829,       -0.7104492188,        0.2534179688,        0.0249023438,       18.4020996094,       -2.1667480469,        9.4146728516
1494035646.2308020592,       -0.7333984375,        0.2534179688,        0.0249023438,       18.4020996094,       -2.1667480469,        9.4146728516
1494035646.2335040569,       -0.7333984375,        0.2534179688,        0.0249023438,       20.2636718750,       -4.1503906250,       11.2152099609
1494035646.2362029552,       -0.7333984375,        0.2534179688,        0.0249023438,       20.2636718750,       -4.1503906250,       11.2152099609
1494035646.2388939857,       -0.7182617188,        0.2534179688,       -0.0156250000,       22.2778320312,       -6.1340332031,       12.9394531250
1494035646.2415890694,       -0.7182617188,        0.2534179688,       -0.0156250000,       22.2778320312,       -6.1340332031,       12.9394531250
1494035646.2444100380,       -0.7182617188,        0.2534179688,       -0.0156250000,       23.8037109375,       -7.7514648438,       14.8162841797
1494035646.2471110821,       -0.7182617188,        0.2534179688,       -0.0156250000,       23.8037109375,       -7.7514648438,       14.8162841797
1494035646.2498130798,       -0.6718750000,        0.2778320312,       -0.0668945312,       23.7731933594,       -7.7819824219,       16.7846679688
1494035646.2525050640,       -0.6718750000,        0.2778320312,       -0.0668945312,       23.7731933594,       -7.7819824219,       16.7846679688
1494035646.2552070618,       -0.6718750000,        0.2778320312,       -0.0668945312,       22.2015380859,       -7.0495605469,       17.9595947266
1494035646.2579050064,       -0.6718750000,        0.2797851562,       -0.0952148438,       22.2015380859,       -7.0495605469,       17.9595947266
1494035646.2606050968,       -0.6616210938,        0.2797851562,       -0.0952148438,       19.9584960938,       -5.4473876953,       18.9971923828
1494035646.2633049488,       -0.6616210938,        0.2797851562,       -0.0952148438,       19.9584960938,       -5.4473876953,       18.9971923828
1494035646.2658619881,       -0.6616210938,        0.2797851562,       -0.0952148438,       17.1356201172,       -3.7536621094,       19.7753906250
1494035646.2684159279,       -0.6616210938,        0.2739257812,       -0.1025390625,       17.1356201172,       -3.7536621094,       19.7753906250
1494035646.2709820271,       -0.6513671875,        0.2739257812,       -0.1025390625,       14.1601562500,       -2.5482177734,       20.9503173828
1494035646.2735600471,       -0.6513671875,        0.2739257812,       -0.1025390625,       14.1601562500,       -2.5482177734,       20.9503173828
1494035646.2762598991,       -0.6513671875,        0.2739257812,       -0.1025390625,       11.4746093750,       -1.5411376953,       21.8200683594
1494035646.2789549828,       -0.6401367188,        0.2500000000,       -0.0693359375,       11.4746093750,       -1.5411376953,       21.8200683594
1494035646.2816510201,       -0.6401367188,        0.2500000000,       -0.0693359375,        9.2773437500,       -0.3356933594,       23.0712890625
1494035646.2843499184,       -0.6401367188,        0.2500000000,       -0.0693359375,        9.2773437500,       -0.3356933594,       23.0712890625
1494035646.2870459557,       -0.6401367188,        0.2500000000,       -0.0693359375,        8.3007812500,        0.2746582031,       23.5900878906
1494035646.2897338867,       -0.6162109375,        0.2812500000,       -0.0258789062,        8.3007812500,        0.2746582031,       23.5900878906
1494035646.2924299240,       -0.6162109375,        0.2812500000,       -0.0258789062,        7.6599121094,        0.5798339844,       24.0783691406
1494035646.2951309681,       -0.6162109375,        0.2812500000,       -0.0258789062,        7.6599121094,        0.5798339844,       24.0783691406
1494035646.2978250980,       -0.6162109375,        0.2812500000,        0.0190429688,        8.9569091797,        0.9307861328,       24.4140625000
1494035646.3005208969,       -0.5903320312,        0.3476562500,        0.0190429688,        8.9569091797,        0.9307861328,       24.4140625000
1494035646.3032219410,       -0.5903320312,        0.3476562500,        0.0190429688,       10.7116699219,        1.4343261719,       22.9187011719
1494035646.3059129715,       -0.5903320312,        0.3476562500,        0.0190429688,       10.7116699219,        1.4343261719,       22.9187011719
1494035646.3086020947,       -0.5903320312,        0.3085937500,        0.0419921875,       13.0767822266,        1.8615722656,       21.3775634766
1494035646.3112959862,       -0.6372070312,        0.3085937500,        0.0419921875,       13.0767822266,        1.8615722656,       21.3775634766
1494035646.3139541149,       -0.6372070312,        0.3085937500,        0.0419921875,       14.3280029297,        2.7465820312,       19.9737548828
1494035646.3165049553,       -0.6372070312,        0.3085937500,        0.0419921875,       14.3280029297,        2.7465820312,       19.9737548828
1494035646.3191690445,       -0.6684570312,        0.3256835938,        0.0556640625,       14.3280029297,        3.0059814453,       18.4478759766
1494035646.3217329979,       -0.6684570312,        0.3256835938,        0.0556640625,       13.9312744141,        3.0059814453,       18.4478759766
1494035646.3243739605,       -0.6684570312,        0.3256835938,        0.0556640625,       13.9312744141,        2.8533935547,       17.2729492188
1494035646.3270709515,       -0.6684570312,        0.3256835938,        0.0556640625,       15.1062011719,        2.8533935547,       17.2729492188
1494035646.3297638893,       -0.6655273438,        0.3686523438,        0.0029296875,       15.1062011719,        2.0599365234,       16.4184570312
1494035646.3324499130,       -0.6655273438,        0.3686523438,        0.0029296875,       16.6625976562,        2.0599365234,       16.4184570312
1494035646.3351569176,       -0.6655273438,        0.3686523438,        0.0029296875,       16.6625976562,        1.3580322266,       14.6636962891
1494035646.3378489017,       -0.6655273438,        0.3686523438,        0.0029296875,       19.3786621094,        1.3580322266,       14.6636962891
1494035646.3405439854,       -0.6831054688,        0.3720703125,       -0.0742187500,       19.3786621094,        1.3580322266,       13.1072998047
1494035646.3432509899,       -0.6831054688,        0.3720703125,       -0.0742187500,       21.6827392578,        1.0681152344,       13.1072998047
1494035646.3459448814,       -0.6831054688,        0.3720703125,       -0.0742187500,       21.6827392578,        1.0681152344,       11.1694335938
1494035646.3486459255,       -0.6831054688,        0.3720703125,       -0.1030273438,       21.4385986328,        1.6479492188,       11.1694335938
1494035646.3513410091,       -0.7109375000,        0.3388671875,       -0.1030273438,       21.4385986328,        1.6479492188,        8.6822509766
1494035646.3540749550,       -0.7109375000,        0.3388671875,       -0.1030273438,       19.4091796875,        1.4343261719,        8.6822509766
1494035646.3567750454,       -0.7109375000,        0.3388671875,       -0.1030273438,       19.4091796875,        1.4343261719,        7.1105957031
1494035646.3594629765,       -0.6713867188,        0.3691406250,       -0.0981445312,       16.6015625000,        0.8697509766,        7.1105957031
1494035646.3621540070,       -0.6713867188,        0.3691406250,       -0.0981445312,       16.6015625000,        0.8697509766,        5.4321289062
1494035646.3648018837,       -0.6713867188,        0.3691406250,       -0.0981445312,       14.8620605469,        0.3814697266,        5.4321289062
1494035646.3673489094,       -0.6713867188,        0.3691406250,       -0.0981445312,       14.8620605469,        0.3814697266,        1.5258789062
1494035646.3698968887,       -0.5605468750,        0.3803710938,       -0.1157226562,       12.4206542969,        0.6408691406,        3.6926269531
1494035646.3724489212,       -0.5605468750,        0.3803710938,       -0.1157226562,       12.4206542969,        0.6408691406,        3.6926269531
1494035646.3751199245,       -0.5605468750,        0.3803710938,       -0.1157226562,        8.9874267578,        1.8615722656,        1.7395019531
1494035646.3778040409,       -0.5605468750,        0.3803710938,       -0.1157226562,        8.9874267578,        1.8615722656,        1.7395019531
1494035646.3804879189,       -0.5205078125,        0.2973632812,       -0.0502929688,        3.3874511719,        4.4403076172,       -0.0152587891
1494035646.3831870556,       -0.5205078125,        0.2973632812,       -0.0502929688,        3.3874511719,        4.4403076172,       -0.0152587891
1494035646.3858718872,       -0.5205078125,        0.2973632812,       -0.0502929688,       -2.7923583984,        8.1024169922,       -0.9765625000
1494035646.3885591030,       -0.5205078125,        0.2973632812,       -0.0502929688,       -2.7923583984,        8.1024169922,       -0.9765625000
1494035646.3913540840,       -0.5957031250,        0.2475585938,       -0.0161132812,       -6.8206787109,       11.5661621094,       -2.7008056641
1494035646.3940649033,       -0.5957031250,        0.2475585938,       -0.0161132812,       -6.8206787109,       11.5661621094,       -2.7008056641
1494035646.3967540264,       -0.5957031250,        0.2475585938,       -0.0161132812,       -9.9639892578,       14.9688720703,       -4.2724609375
1494035646.3994429111,       -0.7207031250,        0.3403320312,       -0.0415039062,       -9.9639892578,       14.9688720703,       -4.2724609375
1494035646.4021360874,       -0.7021484375,        0.3403320312,       -0.0415039062,      -11.8103027344,       18.0969238281,       -5.4016113281
1494035646.4048678875,       -0.7021484375,        0.3403320312,       -0.0415039062,      -11.8103027344,       18.0969238281,       -5.4016113281
1494035646.4075660706,       -0.7021484375,        0.3403320312,       -0.0415039062,      -13.2751464844,       19.1802978516,       -6.1950683594
1494035646.4102621078,       -0.8027343750,        0.2719726562,       -0.0039062500,      -13.2751464844,       19.1802978516,       -6.1950683594
1494035646.4129519463,       -0.8027343750,        0.2719726562,       -0.0039062500,      -15.5792236328,       20.1416015625,       -6.9122314453
1494035646.4155640602,       -0.8027343750,        0.2719726562,       -0.0039062500,      -15.5792236328,       20.1416015625,       -6.9122314453
1494035646.4181189537,       -0.8027343750,        0.2719726562,       -0.0039062500,      -17.1508789062,       20.6451416016,       -7.7514648438
1494035646.4206809998,       -0.8452148438,        0.2587890625,        0.0585937500,      -17.1508789062,       20.6451416016,       -7.7514648438
1494035646.4232308865,       -0.8452148438,        0.2587890625,        0.0585937500,      -17.6849365234,       19.6685791016,       -7.8582763672
1494035646.4259269238,       -0.8452148438,        0.2587890625,        0.0585937500,      -17.6849365234,       19.6685791016,       -7.8582763672
1494035646.4286220074,       -0.8452148438,        0.2587890625,        0.0585937500,      -16.0369873047,       16.5100097656,       -8.2702636719
1494035646.4313158989,       -0.8002929688,        0.3056640625,        0.0585937500,      -16.0369873047,       16.5100097656,       -8.2702636719
1494035646.4341659546,       -0.8002929688,        0.3056640625,        0.0585937500,      -14.7552490234,       12.8631591797,       -9.2315673828
1494035646.4367299080,       -0.8002929688,        0.3056640625,        0.0585937500,      -14.7552490234,       12.8631591797,       -9.2315673828
1494035646.4392828941,       -0.8002929688,        0.3056640625,       -0.0058593750,      -12.5122070312,        9.2773437500,      -11.1846923828
1494035646.4418509007,       -0.7500000000,        0.3300781250,       -0.0058593750,      -12.5122070312,        9.2773437500,      -11.1846923828
1494035646.4446270466,       -0.7500000000,        0.3300781250,       -0.0058593750,       -9.4299316406,        6.3781738281,      -12.9852294922
1494035646.4472761154,       -0.7500000000,        0.3300781250,       -0.0058593750,       -9.4299316406,        6.3781738281,      -12.9852294922
1494035646.4500451088,       -0.7500000000,        0.3632812500,       -0.0781250000,       -5.7678222656,        3.7384033203,      -13.9160156250
1494035646.4530980587,       -0.6835937500,        0.3632812500,       -0.0781250000,       -5.7678222656,        3.7384033203,      -13.9160156250
1494035646.4556610584,       -0.6835937500,        0.3632812500,       -0.0781250000,       -3.5552978516,        2.1514892578,      -14.0686035156
1494035646.4582149982,       -0.6835937500,        0.3632812500,       -0.0781250000,       -3.5552978516,        2.1514892578,      -14.0686035156
1494035646.4607639313,       -0.6474609375,        0.3544921875,       -0.1323242188,       -2.1972656250,        1.4343261719,      -13.8244628906
1494035646.4633240700,       -0.6474609375,        0.3544921875,       -0.1323242188,       -2.1972656250,        1.4343261719,      -13.8244628906
1494035646.4661269188,       -0.6474609375,        0.3544921875,       -0.1323242188,        1.0681152344,       -0.2593994141,      -13.3361816406
1494035646.4688169956,       -0.6474609375,        0.3544921875,       -0.1323242188,        1.0681152344,       -0.2593994141,      -13.3361816406
1494035646.4715108871,       -0.6059570312,        0.3691406250,       -0.1660156250,        1.0681152344,       -1.0375976562,      -13.0310058594
1494035646.4742031097,       -0.6059570312,        0.3691406250,       -0.1660156250,        2.1209716797,       -1.0375976562,      -13.0310058594
1494035646.4768979549,       -0.6059570312,        0.3691406250,       -0.1660156250,        2.1209716797,       -0.9155273438,      -12.6037597656
1494035646.4795820713,       -0.6059570312,        0.3691406250,       -0.1435546875,        2.5634765625,       -0.9155273438,      -12.6037597656
1494035646.4822709560,       -0.6191406250,        0.3017578125,       -0.1435546875,        2.5634765625,        0.2593994141,      -12.4206542969
1494035646.4848918915,       -0.6191406250,        0.3017578125,       -0.1435546875,        2.5634765625,        0.2593994141,      -12.4206542969
1494035646.4874420166,       -0.6191406250,        0.3017578125,       -0.1435546875,        2.5634765625,        0.2593994141,      -11.4135742188
1494035646.4899940491,       -0.6191406250,        0.3017578125,       -0.1142578125,        1.1444091797,        2.0599365234,      -11.4135742188
1494035646.4925479889,       -0.6601562500,        0.2534179688,       -0.1142578125,        1.1444091797,        2.0599365234,      -10.6353759766
1494035646.4951469898,       -0.6601562500,        0.2534179688,       -0.1142578125,       -1.6021728516,        4.8370361328,      -10.6353759766
1494035646.4977049828,       -0.6601562500,        0.2534179688,       -0.1142578125,       -1.6021728516,        4.8370361328,      -10.6353759766
1494035646.5002570152,       -0.6601562500,        0.2485351562,       -0.0170898438,       -5.4321289062,        6.0119628906,       -9.6282958984
1494035646.5028049946,       -0.6811523438,        0.2485351562,       -0.0170898438,       -5.4321289062,        6.0119628906,       -9.6282958984
1494035646.5056169033,       -0.6811523438,        0.2485351562,       -0.0170898438,       -6.6375732422,        6.5765380859,       -8.2092285156
1494035646.5082979202,       -0.6811523438,        0.2485351562,       -0.0170898438,       -6.6375732422,        6.5765380859,       -8.2092285156
1494035646.5109789371,       -0.6987304688,        0.2563476562,        0.0463867188,       -7.0190429688,        7.0648193359,       -6.8054199219
1494035646.5136790276,       -0.6987304688,        0.2563476562,        0.0463867188,       -7.0190429688,        7.0648193359,       -6.8054199219
1494035646.5163629055,       -0.6987304688,        0.2563476562,        0.0463867188,       -4.9896240234,        6.5765380859,       -6.1492919922
1494035646.5190529823,       -0.6987304688,        0.2563476562,        0.0463867188,       -4.9896240234,        6.5765380859,       -6.1492919922
1494035646.5217380524,       -0.7236328125,        0.2675781250,        0.0615234375,       -2.5024414062,        5.8593750000,       -5.6762695312
1494035646.5244660378,       -0.7236328125,        0.2675781250,        0.0615234375,       -2.5024414062,        5.8593750000,       -5.6762695312
1494035646.5271580219,       -0.7236328125,        0.2675781250,        0.0615234375,        0.1983642578,        5.8441162109,       -4.5471191406
1494035646.5298490524,       -0.7236328125,        0.2675781250,        0.0615234375,        0.1983642578,        5.8441162109,       -4.5471191406
1494035646.5325329304,       -0.7373046875,        0.2504882812,        0.0590820312,        3.7841796875,        5.3710937500,       -3.3874511719
1494035646.5352609158,       -0.7373046875,        0.2504882812,        0.0590820312,        3.7841796875,        5.3710937500,       -3.3874511719
1494035646.5379509926,       -0.7373046875,        0.2504882812,        0.0590820312,        7.7819824219,        4.3334960938,       -1.8005371094
1494035646.5407419205,       -0.7373046875,        0.2241210938,        0.0371093750,        7.7819824219,        4.3334960938,       -1.8005371094
1494035646.5434610844,       -0.7304687500,        0.2241210938,        0.0371093750,       10.9100341797,        3.7536621094,       -0.7476806641
1494035646.5460178852,       -0.7304687500,        0.2241210938,        0.0371093750,       10.9100341797,        3.7536621094,       -0.7476806641
1494035646.5485720634,       -0.7304687500,        0.2241210938,        0.0371093750,       12.5579833984,        3.4484863281,        0.8697509766
1494035646.5511229038,       -0.7128906250,        0.2460937500,       -0.0258789062,       12.5579833984,        3.4484863281,        0.8697509766
1494035646.5537149906,       -0.7128906250,        0.2460937500,       -0.0258789062,       14.1906738281,        3.1890869141,        2.9907226562
1494035646.5564138889,       -0.7128906250,        0.2460937500,       -0.0258789062,       14.1906738281,        3.1890869141,        2.9907226562
1494035646.5591080189,       -0.7128906250,        0.2460937500,       -0.0258789062,       16.3269042969,        2.6855468750,        5.7830810547
1494035646.5619039536,       -0.7211914062,        0.2480468750,       -0.0644531250,       16.3269042969,        2.6855468750,        5.7830810547
1494035646.5646040440,       -0.7211914062,        0.2480468750,       -0.0644531250,       17.8070068359,        2.1820068359,        9.0026855469
1494035646.5673010349,       -0.7211914062,        0.2480468750,       -0.0644531250,       17.8070068359,        2.1820068359,        9.0026855469
1494035646.5699899197,       -0.7211914062,        0.2480468750,       -0.0644531250,       17.9138183594,        1.8157958984,       12.3138427734
1494035646.5726869106,       -0.7441406250,        0.2041015625,       -0.0800781250,       17.9138183594,        1.8157958984,       12.3138427734
1494035646.5753920078,       -0.7441406250,        0.2041015625,       -0.0800781250,       16.4337158203,        1.3732910156,       15.4113769531
1494035646.5780930519,       -0.7441406250,        0.2041015625,       -0.0800781250,       16.4337158203,        1.3732910156,       15.4113769531
1494035646.5807909966,       -0.7441406250,        0.2041015625,       -0.0981445312,       15.3045654297,        1.7852783203,       18.6920166016
1494035646.5834960938,       -0.7602539062,        0.1503906250,       -0.0981445312,       15.3045654297,        1.7852783203,       18.6920166016
1494035646.5861890316,       -0.7602539062,        0.1503906250,       -0.0981445312,       12.1307373047,        1.9226074219,       21.2402343750
1494035646.5888879299,       -0.7602539062,        0.1503906250,       -0.0981445312,       12.1307373047,        1.9226074219,       21.2402343750
1494035646.5915849209,       -0.7841796875,        0.1132812500,       -0.0834960938,        9.3688964844,        2.2125244141,       23.7579345703
1494035646.5942399502,       -0.7841796875,        0.1132812500,       -0.0834960938,        9.3688964844,        2.2125244141,       23.7579345703
1494035646.5967938900,       -0.7841796875,        0.1132812500,       -0.0834960938,        9.3688964844,        2.4108886719,       26.1230468750
1494035646.5993490219,       -0.7841796875,        0.1132812500,       -0.0834960938,        9.7351074219,        2.4108886719,       26.1230468750
1494035646.6019010544,       -0.8271484375,        0.0981445312,       -0.0434570312,        9.7351074219,        2.1514892578,       29.0832519531
1494035646.6045699120,       -0.8271484375,        0.0981445312,       -0.0434570312,        9.2163085938,        2.1514892578,       29.0832519531
1494035646.6071228981,       -0.8271484375,        0.0981445312,       -0.0434570312,        9.2163085938,        2.1514892578,       33.0352783203
1494035646.6096789837,       -0.8271484375,        0.0981445312,       -0.0434570312,        4.8522949219,        1.2664794922,       33.0352783203
1494035646.6123390198,       -0.8564453125,        0.1191406250,       -0.0302734375,        4.8522949219,        1.2664794922,       36.5905761719
1494035646.6150720119,       -0.8564453125,        0.1191406250,       -0.0302734375,        0.5798339844,        0.9002685547,       36.5905761719
1494035646.6177659035,       -0.8564453125,        0.1191406250,       -0.0302734375,        0.5798339844,        0.9002685547,       38.6962890625
1494035646.6204669476,       -0.8564453125,        0.1191406250,       -0.0302734375,       -1.8157958984,        1.1444091797,       38.6962890625
1494035646.6232039928,       -0.8417968750,        0.1801757812,       -0.0429687500,       -1.8157958984,        1.1444091797,       39.5660400391
1494035646.6258940697,       -0.8417968750,        0.1801757812,       -0.0429687500,       -2.5024414062,        1.0375976562,       39.5660400391
1494035646.6285851002,       -0.8417968750,        0.1801757812,       -0.0429687500,       -2.5024414062,        1.0375976562,       41.6107177734
1494035646.6312739849,       -0.8417968750,        0.2832031250,       -0.0170898438,        0.8697509766,       -0.2746582031,       41.6107177734
1494035646.6339819431,       -0.8100585938,        0.2832031250,       -0.0170898438,        0.8697509766,       -0.2746582031,       41.6107177734
1494035646.6366770267,       -0.8100585938,        0.2832031250,       -0.0170898438,        5.8593750000,       -1.1596679688,       42.7398681641
1494035646.6393730640,       -0.8100585938,        0.2832031250,       -0.0170898438,        5.8593750000,       -1.1596679688,       46.6461181641
1494035646.6419980526,       -0.7641601562,        0.3383789062,       -0.0034179688,        9.7045898438,       -2.6702880859,       43.6248779297
1494035646.6448400021,       -0.7641601562,        0.3383789062,       -0.0034179688,        9.7045898438,       -2.6702880859,       43.6248779297
1494035646.6474909782,       -0.7641601562,        0.3383789062,       -0.0034179688,       12.3291015625,       -3.4484863281,       45.0744628906
1494035646.6502380371,       -0.7641601562,        0.3383789062,       -0.0034179688,       12.3291015625,       -3.4484863281,       45.0744628906
1494035646.6533589363,       -0.7646484375,        0.3378906250,       -0.0292968750,       13.9770507812,       -3.4942626953,       45.9289550781
1494035646.6560709476,       -0.7646484375,        0.3378906250,       -0.0292968750,       13.9770507812,       -3.4942626953,       47.7142333984
1494035646.6587669849,       -0.7646484375,        0.3378906250,       -0.0292968750,       13.9160156250,       -1.8920898438,       47.7142333984
1494035646.6614620686,       -0.7646484375,        0.2128906250,       -0.0620117188,       13.9160156250,       -1.8920898438,       49.7131347656
1494035646.6641690731,       -0.7709960938,        0.2475585938,       -0.0620117188,       12.6953125000,        0.4882812500,       49.7131347656
1494035646.6668629646,       -0.7709960938,        0.2475585938,       -0.0620117188,       12.6953125000,        0.4882812500,       50.1556396484
1494035646.6695570946,       -0.7709960938,        0.2475585938,       -0.0620117188,       11.5814208984,        2.1820068359,       50.1556396484
1494035646.6722559929,       -0.7177734375,        0.3139648438,       -0.0390625000,       11.5814208984,        2.1820068359,       50.7049560547
1494035646.6749589443,       -0.7177734375,        0.3139648438,       -0.0390625000,        9.4909667969,        3.5705566406,       50.7049560547
1494035646.6776480675,       -0.7177734375,        0.3139648438,       -0.0390625000,        9.4909667969,        3.5705566406,       50.7202148438
1494035646.6803390980,       -0.7177734375,        0.3139648438,       -0.0390625000,        8.6059570312,        4.2266845703,       50.7202148438
1494035646.6830348969,       -0.6855468750,        0.4101562500,       -0.0136718750,        8.6059570312,        4.2266845703,       50.7202148438
1494035646.6856100559,       -0.6855468750,        0.4101562500,       -0.0136718750,        8.8043212891,        5.0354003906,       50.0793457031
1494035646.6882779598,       -0.6855468750,        0.4101562500,       -0.0136718750,        8.8043212891,        5.0354003906,       50.0793457031
1494035646.6908369064,       -0.6855468750,        0.4101562500,       -0.0136718750,        9.7045898438,        6.4849853516,       49.9725341797
1494035646.6934459209,       -0.6699218750,        0.3745117188,       -0.0703125000,        9.7045898438,        6.4849853516,       49.9725341797
1494035646.6960000992,       -0.6699218750,        0.3745117188,       -0.0703125000,        8.9721679688,        7.7514648438,       50.2471923828
1494035646.6985490322,       -0.6699218750,        0.3745117188,       -0.0703125000,        8.9721679688,        7.7514648438,       50.2471923828
1494035646.7011039257,       -0.6699218750,        0.3745117188,       -0.0703125000,        8.8958740234,        8.1176757812,       48.3703613281
1494035646.7038009167,       -0.6733398438,        0.3398437500,       -0.0458984375,        8.8958740234,        8.1176757812,       48.3703613281
1494035646.7063539028,       -0.6733398438,        0.3398437500,       -0.0458984375,        8.0871582031,        8.4381103516,       46.5850830078
1494035646.7089090347,       -0.6733398438,        0.3398437500,       -0.0458984375,        8.0871582031,        8.4381103516,       46.5850830078
1494035646.7114629745,       -0.6733398438,        0.3398437500,       -0.0458984375,        6.8817138672,        9.2468261719,       45.5932617188
1494035646.7141959667,       -0.6440429688,        0.4003906250,       -0.0341796875,        6.8817138672,        9.2468261719,       45.5932617188
1494035646.7168838978,       -0.6440429688,        0.4003906250,       -0.0341796875,        6.9580078125,        9.2773437500,       45.3643798828
1494035646.7195720673,       -0.6440429688,        0.4003906250,       -0.0341796875,        6.9580078125,        9.2773437500,       45.3643798828
1494035646.7222659588,       -0.6440429688,        0.4487304688,       -0.0239257812,        8.0108642578,        8.8653564453,       44.9829101562
1494035646.7249701023,       -0.6411132812,        0.4487304688,       -0.0239257812,        8.0108642578,        8.8653564453,       44.9829101562
1494035646.7276620865,       -0.6411132812,        0.4487304688,       -0.0239257812,       10.0402832031,        8.3618164062,       44.0063476562
1494035646.7303590775,       -0.6411132812,        0.4487304688,       -0.0239257812,       10.0402832031,        8.3618164062,       44.0063476562
1494035646.7330529690,       -0.6748046875,        0.3945312500,       -0.0185546875,       11.7645263672,        7.2631835938,       43.1976318359
1494035646.7357509136,       -0.6748046875,        0.3945312500,       -0.0185546875,       11.7645263672,        7.2631835938,       43.1976318359
1494035646.7384419441,       -0.6748046875,        0.3945312500,       -0.0185546875,       13.3209228516,        5.9967041016,       42.9840087891
1494035646.7411360741,       -0.6748046875,        0.3945312500,       -0.0185546875,       13.3209228516,        5.9967041016,       42.9840087891
1494035646.7438449860,       -0.7294921875,        0.3857421875,       -0.0239257812,       14.6484375000,        4.8675537109,       43.9453125000
1494035646.7463979721,       -0.7294921875,        0.3857421875,       -0.0239257812,       14.6484375000,        4.8675537109,       43.9453125000
1494035646.7489540577,       -0.7294921875,        0.3857421875,       -0.0239257812,       14.6484375000,        3.0822753906,       44.9829101562
1494035646.7515070438,       -0.7294921875,        0.3857421875,       -0.0239257812,       15.2587890625,        3.0822753906,       44.9829101562
1494035646.7541151047,       -0.7426757812,        0.3549804688,       -0.0312500000,       15.2587890625,        3.0822753906,       46.0815429688
1494035646.7568109035,       -0.7426757812,        0.3549804688,       -0.0312500000,       15.4571533203,        1.2359619141,       46.0815429688
1494035646.7595028877,       -0.7426757812,        0.3549804688,       -0.0312500000,       15.4571533203,       -2.6702880859,       47.2564697266
1494035646.7623140812,       -0.7426757812,        0.3549804688,       -0.0703125000,       16.2963867188,       -0.3204345703,       47.2564697266
1494035646.7650170326,       -0.7768554688,        0.3154296875,       -0.0703125000,       16.2963867188,       -0.3204345703,       48.3093261719
1494035646.7677099705,       -0.7768554688,        0.3154296875,       -0.0703125000,       16.5863037109,       -1.2512207031,       48.3093261719
1494035646.7704730034,       -0.7768554688,        0.3154296875,       -0.0703125000,       16.5863037109,       -1.2512207031,       50.0335693359
1494035646.7731769085,       -0.8129882812,        0.2573242188,       -0.1250000000,       16.1285400391,       -0.9918212891,       50.0335693359
1494035646.7757370472,       -0.8129882812,        0.2573242188,       -0.1250000000,       16.1285400391,       -0.9918212891,       51.5289306641
1494035646.7782969475,       -0.8129882812,        0.2573242188,       -0.1250000000,       13.6413574219,       -0.1373291016,       51.5289306641
1494035646.7808549404,       -0.8129882812,        0.2573242188,       -0.1250000000,       13.6413574219,       -0.1373291016,       51.5289306641
1494035646.7834870815,       -0.7446289062,        0.3110351562,       -0.1420898438,        9.5672607422,        0.9918212891,       52.6580810547
1494035646.7862329483,       -0.7446289062,        0.3110351562,       -0.1420898438,        9.5672607422,        0.9918212891,       52.6580810547
1494035646.7887930870,       -0.7446289062,        0.3110351562,       -0.1420898438,        5.9967041016,        2.1209716797,       52.9479980469
1494035646.7913420200,       -0.7446289062,        0.3110351562,       -0.1420898438,        5.9967041016,        2.1209716797,       52.9479980469
1494035646.7940120697,       -0.6630859375,        0.4580078125,       -0.1176757812,        3.5247802734,        2.6855468750,       52.2918701172
1494035646.7965710163,       -0.6630859375,        0.4580078125,       -0.1176757812,        3.5247802734,        2.6855468750,       52.2918701172
1494035646.7991609573,       -0.6630859375,        0.4580078125,       -0.1176757812,        2.3193359375,        2.3956298828,       51.1322021484
1494035646.8017289639,       -0.6630859375,        0.4580078125,       -0.1176757812,        2.3193359375,        2.3956298828,       51.1322021484
1494035646.8042960167,       -0.6333007812,        0.4697265625,       -0.0966796875,        2.3345947266,        2.3498535156,       49.3011474609
1494035646.8068480492,       -0.6333007812,        0.4697265625,       -0.0966796875,        2.3345947266,        2.3498535156,       49.3011474609
1494035646.8094029427,       -0.6333007812,        0.4697265625,       -0.0966796875,        2.3498535156,        1.5716552734,       48.0194091797
1494035646.8119559288,       -0.6333007812,        0.4697265625,       -0.0966796875,        2.3498535156,        1.5716552734,       48.0194091797
1494035646.8145840168,       -0.6333007812,        0.4497070312,       -0.0756835938,        2.5634765625,        0.4119873047,       46.6766357422
1494035646.8171379566,       -0.6333007812,        0.4497070312,       -0.0756835938,        2.5634765625,        0.4119873047,       46.6766357422
1494035646.8196969032,       -0.6333007812,        0.4497070312,       -0.0756835938,        2.5634765625,       -0.3204345703,       45.6848144531
1494035646.8222470284,       -0.6333007812,        0.4497070312,       -0.0756835938,        4.3487548828,       -0.3204345703,       45.6848144531
1494035646.8250100613,       -0.6538085938,        0.4448242188,       -0.0419921875,        4.3487548828,       -0.3204345703,       45.1354980469
1494035646.8277029991,       -0.6538085938,        0.4448242188,       -0.0419921875,        6.5155029297,       -1.4648437500,       45.1354980469
1494035646.8303990364,       -0.6538085938,        0.4448242188,       -0.0419921875,        6.5155029297,       -1.4648437500,       43.5791015625
1494035646.8332149982,       -0.6538085938,        0.4482421875,       -0.0043945312,        9.0332031250,       -3.5858154297,       43.5791015625
1494035646.8359138966,       -0.7373046875,        0.4482421875,       -0.0043945312,        9.0332031250,       -5.8441162109,       40.7714843750
1494035646.8386158943,       -0.7373046875,        0.4482421875,       -0.0043945312,        8.1176757812,       -5.8441162109,       40.7714843750
1494035646.8413279057,       -0.7373046875,        0.4482421875,       -0.0043945312,        8.1176757812,       -5.8441162109,       39.5355224609
1494035646.8440461159,       -0.7714843750,        0.4375000000,       -0.0146484375,        7.2631835938,       -7.7056884766,       39.5355224609
1494035646.8465940952,       -0.7714843750,        0.4375000000,       -0.0146484375,        7.2631835938,       -7.7056884766,       40.7257080078
1494035646.8491458893,       -0.7714843750,        0.4375000000,       -0.0146484375,        8.4686279297,       -9.1857910156,       40.7257080078
1494035646.8518340588,       -0.7714843750,        0.4375000000,       -0.0146484375,        8.4686279297,       -9.1857910156,       43.7927246094
1494035646.8546149731,       -0.7832031250,        0.3759765625,       -0.0146484375,       11.3067626953,      -10.6964111328,       43.7927246094
1494035646.8572709560,       -0.7832031250,        0.3759765625,       -0.0146484375,       11.3067626953,      -10.6964111328,       46.4782714844
1494035646.8600499630,       -0.7832031250,        0.3759765625,       -0.0146484375,       13.2293701172,      -11.9934082031,       46.4782714844
1494035646.8635709286,       -0.7832031250,        0.3535156250,        0.0029296875,       14.8010253906,      -12.8326416016,       48.4161376953
1494035646.8662800789,       -0.8378906250,        0.3535156250,        0.0029296875,       14.8010253906,      -12.8326416016,       48.4161376953
1494035646.8689820766,       -0.8378906250,        0.3535156250,        0.0029296875,       16.9219970703,      -14.3280029297,       50.2777099609
1494035646.8716869354,       -0.8378906250,        0.3535156250,        0.0029296875,       16.9219970703,      -14.3280029297,       50.2777099609
1494035646.8745019436,       -0.9028320312,        0.3530273438,        0.0454101562,       17.0135498047,      -15.4113769531,       51.6204833984
1494035646.8773159981,       -0.9028320312,        0.3530273438,        0.0454101562,       17.0135498047,      -15.4113769531,       51.6204833984
1494035646.8800160885,       -0.9028320312,        0.3530273438,        0.0454101562,       13.8549804688,      -16.1285400391,       51.9866943359
1494035646.8827159405,       -0.9028320312,        0.3530273438,        0.0454101562,       13.8549804688,      -16.1285400391,       51.9866943359
1494035646.8854179382,       -0.9267578125,        0.3774414062,        0.0844726562,        8.0566406250,      -15.8233642578,       53.0242919922
1494035646.8881120682,       -0.9267578125,        0.3774414062,        0.0844726562,        8.0566406250,      -15.8233642578,       53.0242919922
1494035646.8908050060,       -0.9267578125,        0.3774414062,        0.0844726562,        3.5400390625,      -15.9454345703,       55.8776855469
1494035646.8935010433,       -0.9267578125,        0.3774414062,        0.0898437500,        3.5400390625,      -15.9454345703,       55.8776855469
1494035646.8961210251,       -0.9018554688,        0.4047851562,        0.0898437500,        3.5400390625,      -16.3116455078,       57.8002929688
1494035646.8986780643,       -0.9018554688,        0.4047851562,        0.0898437500,        0.3662109375,      -16.3116455078,       57.8002929688
1494035646.9012360573,       -0.9018554688,        0.4047851562,        0.0898437500,        0.3662109375,      -16.3116455078,       59.0667724609
1494035646.9041669369,       -0.8623046875,        0.3940429688,        0.0864257812,       -1.9531250000,      -16.9219970703,       59.0667724609
1494035646.9067270756,       -0.8623046875,        0.3940429688,        0.0864257812,       -1.9531250000,      -16.9219970703,       61.1572265625
1494035646.9093990326,       -0.8623046875,        0.3940429688,        0.0864257812,       -5.6457519531,      -17.4255371094,       61.1572265625
1494035646.9119629860,       -0.8623046875,        0.3940429688,        0.0864257812,       -5.6457519531,      -17.4255371094,       64.2700195312
1494035646.9145319462,       -0.7744140625,        0.4584960938,        0.0996093750,       -4.1961669922,      -19.2108154297,       64.2700195312
1494035646.9170889854,       -0.7744140625,        0.4584960938,        0.0996093750,       -4.1961669922,      -19.2108154297,       68.1762695312
1494035646.9196460247,       -0.7744140625,        0.4584960938,        0.0996093750,        1.1138916016,      -22.1252441406,       67.8253173828
1494035646.9222049713,       -0.7744140625,        0.4584960938,        0.0996093750,        1.1138916016,      -22.1252441406,       67.8253173828
1494035646.9248940945,       -0.7158203125,        0.4628906250,        0.1416015625,        7.9498291016,      -25.6958007812,       69.5800781250
1494035646.9275949001,       -0.7158203125,        0.4628906250,        0.1416015625,        7.9498291016,      -25.6958007812,       69.5800781250
1494035646.9302890301,       -0.7158203125,        0.4628906250,        0.1416015625,       15.4876708984,      -28.9459228516,       68.9086914062
1494035646.9329841137,       -0.7158203125,        0.4628906250,        0.1416015625,       15.4876708984,      -28.9459228516,       68.9086914062
1494035646.9357829094,       -0.6000976562,        0.3579101562,        0.1352539062,       22.9034423828,      -31.7535400391,       66.2994384766
1494035646.9383430481,       -0.6000976562,        0.3579101562,        0.1352539062,       22.9034423828,      -31.7535400391,       66.2994384766
1494035646.9409010410,       -0.6000976562,        0.3579101562,        0.1352539062,       29.8614501953,      -34.9731445312,       62.3321533203
1494035646.9435970783,       -0.6000976562,        0.3579101562,        0.0727539062,       29.8614501953,      -34.9731445312,       62.3321533203
1494035646.9461560249,       -0.4750976562,        0.2167968750,        0.0727539062,       40.4663085938,      -37.9028320312,       58.6242675781
1494035646.9487109184,       -0.4750976562,        0.2167968750,        0.0727539062,       40.4663085938,      -37.9028320312,       58.6242675781
1494035646.9512679577,       -0.4750976562,        0.2167968750,        0.0727539062,       51.2695312500,      -37.7807617188,       60.5010986328
1494035646.9540009499,       -0.4750976562,        0.2167968750,       -0.0102539062,       51.2695312500,      -37.7807617188,       60.5010986328
1494035646.9566979408,       -0.6259765625,        0.2075195312,       -0.0102539062,       59.1735839844,      -38.0859375000,       57.8613281250
1494035646.9593899250,       -0.6259765625,        0.2075195312,       -0.0102539062,       59.1735839844,      -38.0859375000,       57.8613281250
1494035646.9620859623,       -0.6259765625,        0.2075195312,       -0.0102539062,       61.3861083984,      -40.4968261719,       48.2940673828
1494035646.9647200108,       -0.6542968750,       -0.1899414062,       -0.0131835938,       61.3861083984,      -40.4968261719,       48.2940673828
1494035646.9672789574,       -0.6542968750,       -0.1899414062,       -0.0131835938,       55.7098388672,      -40.7104492188,       39.9475097656
1494035646.9698400497,       -0.6542968750,       -0.1899414062,       -0.0131835938,       55.7098388672,      -40.7104492188,       39.9475097656
1494035646.9724009037,       -0.6542968750,       -0.1899414062,       -0.0131835938,       46.5545654297,      -38.5589599609,       35.4461669922
1494035646.9750010967,       -0.5815429688,       -0.2456054688,       -0.0825195312,       46.5545654297,      -38.5589599609,       35.4461669922
1494035646.9775578976,       -0.5815429688,       -0.2456054688,       -0.0825195312,       46.5545654297,      -37.6281738281,       31.0821533203
1494035646.9801149368,       -0.5815429688,       -0.2456054688,       -0.0825195312,       36.1480712891,      -37.6281738281,       31.0821533203
1494035646.9827859402,       -0.5815429688,       -0.2456054688,       -0.0825195312,       36.1480712891,      -37.6281738281,       25.2838134766
1494035646.9855010509,       -0.5078125000,       -0.1796875000,       -0.0961914062,       26.1077880859,      -37.8570556641,       25.2838134766
1494035646.9880609512,       -0.5078125000,       -0.1796875000,       -0.0961914062,       26.1077880859,      -37.8570556641,       18.6004638672
1494035646.9906160831,       -0.5078125000,       -0.1796875000,       -0.0961914062,       17.7001953125,      -37.8723144531,       18.6004638672
1494035646.9933059216,       -0.5078125000,       -0.1796875000,       -0.0961914062,       17.7001953125,      -37.8723144531,       10.2844238281
1494035646.9960029125,       -0.4731445312,       -0.2524414062,       -0.0703125000,       10.7116699219,      -37.3535156250,       10.2844238281
1494035646.9986970425,       -0.4731445312,       -0.2524414062,       -0.0703125000,       10.7116699219,      -37.3535156250,        1.8310546875
1494035647.0013899803,       -0.4731445312,       -0.2524414062,       -0.0703125000,        2.7160644531,      -37.3992919922,        1.8310546875
1494035647.0040969849,       -0.4731445312,       -0.2524414062,       -0.0844726562,        2.7160644531,      -37.3992919922,       -5.9814453125
1494035647.0067861080,       -0.4604492188,       -0.3325195312,       -0.0844726562,       -5.2947998047,      -36.4532470703,       -5.7373046875
1494035647.0094759464,       -0.4604492188,       -0.3325195312,       -0.0844726562,       -5.2947998047,      -36.4532470703,      -13.5498046875
1494035647.0121700764,       -0.4604492188,       -0.3325195312,       -0.0844726562,      -14.3890380859,      -35.5377197266,      -13.0920410156
1494035647.0148780346,       -0.4604492188,       -0.3750000000,       -0.0859375000,      -14.3890380859,      -35.5377197266,      -20.9045410156
1494035647.0175740719,       -0.4399414062,       -0.3750000000,       -0.0859375000,      -23.8647460938,      -34.4238281250,      -20.6298828125
1494035647.0202789307,       -0.4399414062,       -0.3750000000,       -0.0859375000,      -23.8647460938,      -34.4238281250,      -28.4423828125
1494035647.0229771137,       -0.4399414062,       -0.3750000000,       -0.0859375000,      -31.5246582031,      -33.2183837891,      -28.3508300781
1494035647.0255570412,       -0.4038085938,       -0.3676757812,       -0.1020507812,      -31.5246582031,      -33.2183837891,      -28.3508300781
1494035647.0281128883,       -0.4038085938,       -0.3676757812,       -0.1020507812,      -36.6821289062,      -32.6538085938,      -36.4379882812
1494035647.0306670666,       -0.4038085938,       -0.3676757812,       -0.1020507812,      -36.6821289062,      -32.6538085938,      -36.4379882812
1494035647.0332200527,       -0.4038085938,       -0.3676757812,       -0.1020507812,      -38.8641357422,      -32.8369140625,      -45.6085205078
1494035647.0359239578,       -0.3974609375,       -0.3247070312,       -0.1220703125,      -38.8641357422,      -32.8369140625,      -45.6085205078
1494035647.0386219025,       -0.3974609375,       -0.3247070312,       -0.1220703125,      -37.9486083984,      -33.3862304688,      -55.1910400391
1494035647.0413169861,       -0.3974609375,       -0.3247070312,       -0.1220703125,      -37.9486083984,      -33.3862304688,      -55.1910400391
1494035647.0440220833,       -0.3974609375,       -0.3247070312,       -0.1220703125,      -35.6140136719,      -33.6303710938,      -65.2618408203
1494035647.0467178822,       -0.4028320312,       -0.3115234375,       -0.1328125000,      -35.6140136719,      -33.6303710938,      -65.2618408203
1494035647.0495529175,       -0.4028320312,       -0.3115234375,       -0.1328125000,      -31.7077636719,      -33.6151123047,      -75.5004882812
1494035647.0522530079,       -0.4028320312,       -0.3115234375,       -0.1328125000,      -31.7077636719,      -33.6151123047,      -75.5004882812
1494035647.0550749302,       -0.4028320312,       -0.2968750000,       -0.1738281250,      -26.3214111328,      -34.1796875000,      -86.3494873047
1494035647.0577659607,       -0.3994140625,       -0.2968750000,       -0.1738281250,      -26.3214111328,      -34.1796875000,      -94.1619873047
1494035647.0611739159,       -0.3994140625,       -0.2968750000,       -0.1738281250,      -20.1568603516,      -34.1491699219,      -97.0153808594
1494035647.0638630390,       -0.3994140625,       -0.2968750000,       -0.1738281250,      -20.1568603516,      -34.1491699219,      -97.0153808594
1494035647.0664188862,       -0.3833007812,       -0.2807617188,       -0.2216796875,      -14.2211914062,      -33.9050292969,     -106.1859130859
1494035647.0689918995,       -0.3833007812,       -0.2807617188,       -0.2216796875,      -14.2211914062,      -33.9050292969,     -106.1859130859
1494035647.0715570450,       -0.3833007812,       -0.2807617188,       -0.2216796875,       -8.1329345703,      -33.3251953125,     -115.8905029297
1494035647.0741789341,       -0.3833007812,       -0.2807617188,       -0.2216796875,       -8.1329345703,      -33.3251953125,     -115.8905029297
1494035647.0768840313,       -0.3564453125,       -0.2485351562,       -0.2705078125,       -3.6621093750,      -31.7382812500,     -125.1220703125
1494035647.0795760155,       -0.3564453125,       -0.2485351562,       -0.2705078125,       -3.6621093750,      -31.7382812500,     -125.1220703125
1494035647.0822679996,       -0.3564453125,       -0.2485351562,       -0.2705078125,       -0.5950927734,      -30.0292968750,     -132.0953369141
1494035647.0848939419,       -0.3564453125,       -0.2485351562,       -0.3364257812,       -0.5950927734,      -30.0292968750,     -132.0953369141
1494035647.0874528885,       -0.2871093750,       -0.2133789062,       -0.3364257812,        1.9378662109,      -28.1677246094,     -140.0146484375
1494035647.0900099277,       -0.2871093750,       -0.2133789062,       -0.3364257812,        1.9378662109,      -28.1677246094,     -140.0146484375
1494035647.0925691128,       -0.2871093750,       -0.2133789062,       -0.3364257812,        4.4555664062,      -26.9622802734,     -147.3999023438
1494035647.0951809883,       -0.2871093750,       -0.2133789062,       -0.3452148438,        4.4555664062,      -26.9622802734,     -147.3999023438
1494035647.0977399349,       -0.2592773438,       -0.1240234375,       -0.3452148438,        2.3956298828,      -25.0549316406,     -152.0080566406
1494035647.1003019810,       -0.2592773438,       -0.1240234375,       -0.3452148438,        2.3956298828,      -25.0549316406,     -152.0080566406
1494035647.1028599739,       -0.2592773438,       -0.1240234375,       -0.3452148438,       -1.4190673828,      -21.3775634766,     -152.8320312500
1494035647.1056239605,       -0.2592773438,        0.0112304688,       -0.3652343750,       -1.4190673828,      -21.3775634766,     -152.8320312500
1494035647.1081809998,       -0.2504882812,        0.0112304688,       -0.3652343750,       -1.4190673828,      -17.6544189453,     -155.0445556641
1494035647.1107499599,       -0.2504882812,        0.0112304688,       -0.3652343750,       -2.9144287109,      -17.6544189453,     -155.0445556641
1494035647.1133720875,       -0.2504882812,        0.0112304688,       -0.3652343750,       -2.9144287109,      -17.6544189453,     -161.3922119141
1494035647.1159400940,       -0.2504882812,        0.1059570312,       -0.2631835938,       -1.4648437500,      -15.8233642578,     -161.3922119141
1494035647.1185040474,       -0.2890625000,        0.1059570312,       -0.2631835938,       -1.4648437500,      -15.8233642578,     -169.2047119141
1494035647.1210579872,       -0.2890625000,        0.1059570312,       -0.2631835938,        3.9215087891,      -15.8233642578,     -169.4183349609
1494035647.1236848831,       -0.2890625000,        0.1059570312,       -0.2631835938,        3.9215087891,      -15.8233642578,     -177.2308349609
1494035647.1263849735,       -0.2924804688,        0.3427734375,       -0.1264648438,       11.0015869141,      -18.4783935547,     -176.1779785156
1494035647.1291990280,       -0.2924804688,        0.3427734375,       -0.1264648438,       11.0015869141,      -18.4783935547,     -176.1779785156
1494035647.1319038868,       -0.2924804688,        0.3427734375,       -0.1264648438,       10.0708007812,      -19.0277099609,     -177.7648925781
1494035647.1346089840,       -0.2924804688,        0.3427734375,       -0.1264648438,       10.0708007812,      -19.0277099609,     -173.8586425781
1494035647.1373019218,       -0.3461914062,        0.5830078125,       -0.0209960938,        1.2054443359,      -14.2364501953,     -175.3540039062
1494035647.1400029659,       -0.3461914062,        0.5830078125,       -0.0209960938,        1.2054443359,      -14.2364501953,     -175.3540039062
1494035647.1426970959,       -0.3461914062,        0.5830078125,       -0.0209960938,       -3.6315917969,       -9.5672607422,     -171.8750000000
1494035647.1452751160,       -0.3461914062,        0.5830078125,        0.1040039062,       -3.6315917969,       -9.5672607422,     -171.8750000000
1494035647.1478281021,       -0.4467773438,        0.7299804688,        0.0473632812,       -3.4179687500,       -8.9263916016,     -169.8303222656
1494035647.1503798962,       -0.4467773438,        0.7299804688,        0.0473632812,       -3.4179687500,       -8.9263916016,     -169.8303222656
1494035647.1529390812,       -0.4467773438,        0.7299804688,        0.0473632812,       -1.8768310547,       -8.6212158203,     -167.6025390625
1494035647.1556880474,       -0.4467773438,        0.7299804688,       -0.0014648438,       -1.8768310547,       -8.6212158203,     -167.6025390625
1494035647.1583840847,       -0.6469726562,        0.8813476562,       -0.0014648438,        0.5645751953,       -2.8991699219,     -162.4908447266
1494035647.1610779762,       -0.6469726562,        0.8813476562,       -0.0014648438,        0.5645751953,       -2.8991699219,     -162.4908447266
1494035647.1638350487,       -0.6469726562,        0.8813476562,       -0.0014648438,       -0.1220703125,        6.4086914062,     -156.9671630859
1494035647.1663999557,       -0.6469726562,        0.9931640625,       -0.0239257812,       -0.1220703125,        6.4086914062,     -156.9671630859
1494035647.1689729691,       -0.7436523438,        0.9931640625,       -0.0239257812,       -2.6702880859,       13.8854980469,     -152.9388427734
1494035647.1715800762,       -0.7436523438,        0.9931640625,       -0.0239257812,       -2.6702880859,       13.8854980469,     -152.9388427734
1494035647.1741979122,       -0.7436523438,        0.9931640625,       -0.0239257812,       -2.5024414062,       14.8162841797,     -148.1781005859
1494035647.1769011021,       -0.6948242188,        1.1147460938,       -0.0488281250,       -2.5024414062,       14.8162841797,     -148.1781005859
1494035647.1796019077,       -0.6948242188,        1.1147460938,       -0.0488281250,       -1.6784667969,       14.0991210938,     -141.2506103516
1494035647.1822969913,       -0.6948242188,        1.1147460938,       -0.0488281250,       -1.6784667969,       14.0991210938,     -141.2506103516
1494035647.1849999428,       -0.6948242188,        1.1147460938,       -0.0488281250,       -2.7465820312,       15.3350830078,     -131.4697265625
1494035647.1876909733,       -0.7319335938,        1.2080078125,       -0.1279296875,       -2.7465820312,       15.3350830078,     -131.4697265625
1494035647.1903839111,       -0.7319335938,        1.2080078125,       -0.1279296875,       -7.0037841797,       15.3350830078,     -120.7580566406
1494035647.1930799484,       -0.7319335938,        1.2080078125,       -0.1279296875,       -7.0037841797,       15.3350830078,     -120.7580566406
1494035647.1958670616,       -0.7319335938,        1.2080078125,       -0.1318359375,       -8.0108642578,       14.1143798828,     -109.7259521484
1494035647.1985309124,       -0.7812500000,        1.2451171875,       -0.1318359375,       -8.0108642578,       14.1143798828,     -109.7259521484
1494035647.2015669346,       -0.7812500000,        1.2451171875,       -0.1318359375,       -5.5694580078,       11.2609863281,      -97.3968505859
1494035647.2043390274,       -0.7812500000,        1.2451171875,       -0.1318359375,       -5.5694580078,       11.2609863281,      -97.3968505859
1494035647.2068920135,       -0.8105468750,        1.3920898438,       -0.0673828125,       -2.8839111328,       10.1623535156,      -82.3669433594
1494035647.2094509602,       -0.8105468750,        1.3920898438,       -0.0673828125,       -2.8839111328,       10.1623535156,      -82.3669433594
1494035647.2120060921,       -0.8105468750,        1.3920898438,       -0.0673828125,        1.5411376953,       11.8865966797,      -68.1457519531
1494035647.2146120071,       -0.8105468750,        1.3920898438,       -0.0673828125,        1.5411376953,       11.8865966797,      -68.1457519531
1494035647.2171719074,       -0.7128906250,        1.4770507812,       -0.0112304688,        5.4473876953,       15.7775878906,      -53.5278320312
1494035647.2197260857,       -0.7128906250,        1.4770507812,       -0.0112304688,        7.7056884766,       15.7775878906,      -53.5278320312
1494035647.2222869396,       -0.7128906250,        1.4770507812,       -0.0112304688,        7.7056884766,       15.7775878906,      -35.3851318359
1494035647.2249429226,       -0.7128906250,        1.4770507812,       -0.0112304688,        9.6893310547,       18.4478759766,      -35.3851318359
1494035647.2276380062,       -0.6098632812,        1.4111328125,        0.0688476562,        9.6893310547,       18.4478759766,      -15.2130126953
1494035647.2303369045,       -0.6098632812,        1.4111328125,        0.0688476562,        8.0566406250,       16.8914794922,      -15.2130126953
1494035647.2330310345,       -0.6098632812,        1.4111328125,        0.0688476562,        8.0566406250,       16.8914794922,        3.2958984375
1494035647.2355980873,       -0.6098632812,        1.4111328125,        0.0688476562,        4.3792724609,       13.4735107422,        3.2958984375
1494035647.2381548882,       -0.5249023438,        1.3671875000,        0.0991210938,        4.3792724609,       13.4735107422,       22.8271484375
1494035647.2407100201,       -0.5249023438,        1.3671875000,        0.0991210938,        2.6245117188,        8.2244873047,       19.7296142578
1494035647.2433419228,       -0.5249023438,        1.3671875000,        0.0991210938,        2.6245117188,        8.2244873047,       19.7296142578
1494035647.2459099293,       -0.5249023438,        1.3671875000,        0.0991210938,        2.3803710938,        4.2266845703,       36.4227294922
1494035647.2484600544,       -0.3886718750,        1.2758789062,        0.0781250000,        2.3803710938,        4.2266845703,       36.4227294922
1494035647.2510120869,       -0.3886718750,        1.2758789062,        0.0781250000,        3.9062500000,        1.5563964844,       52.7191162109
1494035647.2536659241,       -0.3886718750,        1.2758789062,        0.0781250000,        3.9062500000,        1.5563964844,       52.7191162109
1494035647.2563669682,       -0.3886718750,        1.2758789062,        0.0898437500,        4.6997070312,       -2.4108886719,       67.7185058594
1494035647.2590620518,       -0.3237304688,        1.0151367188,        0.0898437500,        4.6997070312,       -2.4108886719,       67.7185058594
1494035647.2617518902,       -0.3237304688,        1.0151367188,        0.0898437500,       -1.6479492188,       -4.7912597656,       81.1614990234
1494035647.2644069195,       -0.3237304688,        1.0151367188,        0.0898437500,       -1.6479492188,       -4.7912597656,       81.1614990234
1494035647.2669579983,       -0.3237304688,        0.8974609375,        0.0820312500,      -11.1694335938,       -7.5225830078,       93.7500000000
1494035647.2695119381,       -0.2988281250,        0.8974609375,        0.0820312500,      -11.1694335938,       -7.5225830078,       93.7500000000
1494035647.2720770836,       -0.2988281250,        0.8974609375,        0.0820312500,      -15.6097412109,       -8.5601806641,      106.5979003906
1494035647.2748420238,       -0.2988281250,        0.8974609375,        0.0820312500,      -15.6097412109,       -8.5601806641,      106.5979003906
1494035647.2775380611,       -0.1665039062,        1.1689453125,       -0.0380859375,      -15.9301757812,       -7.7056884766,      116.4550781250
1494035647.2802340984,       -0.1665039062,        1.1689453125,       -0.0380859375,      -15.9301757812,       -7.7056884766,      116.4550781250
1494035647.2829329967,       -0.1665039062,        1.1689453125,       -0.0380859375,       -1.9683837891,       -8.9874267578,      110.2294921875
1494035647.2855520248,       -0.1665039062,        1.1689453125,       -0.0380859375,       -1.9683837891,       -8.9874267578,      110.2294921875
1494035647.2881050110,       -0.0761718750,        2.9116210938,        0.3476562500,       -1.9683837891,       17.5323486328,      137.1459960938
1494035647.2906599045,       -0.0761718750,        2.9116210938,        0.3476562500,       -0.9460449219,       17.5323486328,      137.1459960938
1494035647.2932300568,       -0.0761718750,        2.9116210938,        0.3476562500,       -0.9460449219,       61.6607666016,      199.1271972656
1494035647.2959311008,       -0.0761718750,        2.9116210938,        0.3476562500,       -7.1716308594,       61.6607666016,      199.1271972656
1494035647.2986268997,       -1.9980468750,       -0.9599609375,       -0.9736328125,       -7.1716308594,       57.4493408203,      184.6618652344
1494035647.3013238907,       -1.9980468750,       -0.9599609375,       -0.9736328125,       40.9698486328,       57.4493408203,      184.6618652344
1494035647.3040640354,       -1.9980468750,       -0.9599609375,       -0.9736328125,       40.9698486328,       29.2053222656,      130.7067871094
1494035647.3067629337,       -1.9980468750,       -0.9599609375,       -0.4736328125,       93.9636230469,       29.2053222656,      130.7067871094
1494035647.3095860481,       -1.0024414062,       -0.6547851562,       -0.3818359375,       93.9636230469,       28.9154052734,      147.1710205078
1494035647.3122808933,       -1.0024414062,       -0.6547851562,       -0.3818359375,       -3.0364990234,       28.9154052734,      147.1710205078
1494035647.3149030209,       -1.0024414062,       -0.6547851562,       -0.3818359375,       -3.0364990234,       52.3529052734,      149.1088867188
1494035647.3174540997,       -1.0024414062,       -1.2119140625,        0.1494140625,      -70.1751708984,       52.9479980469,      149.1088867188
1494035647.3200130463,       -1.6508789062,       -1.2119140625,        0.1494140625,      -70.1751708984,       52.9479980469,      118.0114746094
1494035647.3225710392,       -1.6508789062,       -1.2119140625,        0.1494140625,     -118.3929443359,       49.6215820312,      118.0114746094
1494035647.3252930641,       -1.6508789062,       -1.2119140625,        0.1494140625,     -118.3929443359,       49.6215820312,      117.0196533203
1494035647.3279910088,       -0.9340820312,        0.2109375000,        0.3139648438,     -178.7567138672,       44.2199707031,      117.0196533203
1494035647.3306829929,       -0.9340820312,        0.2109375000,        0.3139648438,     -178.7567138672,       44.2199707031,      120.9259033203
1494035647.3334329128,       -0.9340820312,        0.2109375000,        0.3139648438,     -164.0777587891,       34.4543457031,      117.3400878906
1494035647.3361330032,       -0.9340820312,        0.2109375000,        0.3139648438,     -164.0777587891,       34.4543457031,      121.2463378906
1494035647.3388369083,       -0.5478515625,        1.3828125000,        0.7421875000,     -131.5765380859,       24.7650146484,      121.1090087891
1494035647.3415319920,       -0.5478515625,        1.3828125000,        0.7421875000,     -131.5765380859,       24.7650146484,      125.0152587891
1494035647.3442320824,       -0.5478515625,        1.3828125000,        0.7421875000,     -113.8000488281,       22.2167968750,      128.4484863281
1494035647.3467900753,       -0.5478515625,        1.3828125000,        0.7421875000,     -113.8000488281,       22.2167968750,      128.4484863281
1494035647.3494639397,       -0.4208984375,        1.0722656250,        1.0703125000,      -80.5358886719,       22.4761962891,      127.8381347656
1494035647.3520250320,       -0.4208984375,        1.0722656250,        1.0703125000,      -80.5358886719,       22.4761962891,      127.8381347656
1494035647.3547210693,       -0.4208984375,        1.0722656250,        1.0703125000,      -67.4285888672,       15.1214599609,      115.6768798828
1494035647.3572790623,       -0.4208984375,        1.0722656250,        1.4453125000,      -67.4285888672,       15.1214599609,      115.6768798828
1494035647.3598361015,       -1.2065429688,       -0.1738281250,        1.4409179688,      -90.3320312500,       -6.3323974609,      121.8109130859
1494035647.3623840809,       -1.2065429688,       -0.1738281250,        1.4409179688,      -90.3320312500,       -6.3323974609,      121.8109130859
1494035647.3650970459,       -1.2065429688,       -0.1738281250,        1.4409179688,      -76.8737792969,      -27.4047851562,      123.6572265625
1494035647.3676540852,       -1.2065429688,       -0.7988281250,        0.5092773438,      -76.8737792969,      -27.4047851562,      123.6572265625
1494035647.3702130318,       -2.6513671875,       -0.8198242188,        0.5092773438,        3.7384033203,      -31.0668945312,       95.8404541016
1494035647.3727700710,       -2.6513671875,       -0.8198242188,        0.5092773438,        3.7384033203,      -31.0668945312,       95.8404541016
1494035647.3754920959,       -2.6513671875,       -0.8198242188,        0.5092773438,       37.8723144531,       -4.2419433594,       94.7570800781
1494035647.3781929016,       -3.1513671875,        0.9584960938,       -1.4233398438,       37.8723144531,       -4.2419433594,       94.7570800781
1494035647.3808889389,       -3.2006835938,        0.9584960938,       -1.4233398438,      -16.1285400391,       34.7900390625,      145.4315185547
1494035647.3835868835,       -3.2006835938,        0.9584960938,       -1.4233398438,      -16.1285400391,       34.7900390625,      145.4315185547
1494035647.3862819672,       -3.2006835938,        0.9584960938,       -1.4233398438,      -68.8629150391,       35.2783203125,      188.1256103516
1494035647.3889770508,       -1.2358398438,        0.6772460938,       -1.4667968750,      -68.8629150391,       35.2783203125,      188.1256103516
1494035647.3916740417,       -1.2358398438,        0.6772460938,       -1.4667968750,      -75.8972167969,       18.0816650391,      191.9097900391
1494035647.3943800926,       -1.2358398438,        0.6772460938,       -1.4667968750,      -75.8972167969,       18.0816650391,      191.9097900391
1494035647.3970799446,       -1.2358398438,        0.6772460938,       -1.4667968750,      -83.0078125000,       21.7590332031,      170.7305908203
1494035647.3997790813,        0.2231445312,        0.7797851562,       -0.6601562500,      -83.0078125000,       21.7590332031,      170.7305908203
1494035647.4024839401,        0.2231445312,        0.7797851562,       -0.6601562500,      -91.0186767578,       24.3835449219,      150.7263183594
1494035647.4051899910,        0.2231445312,        0.7797851562,       -0.6601562500,      -91.0186767578,       24.3835449219,      150.7263183594
1494035647.4078938961,        0.2231445312,        0.7797851562,        0.0161132812,      -92.8955078125,       20.7977294922,      138.7481689453
1494035647.4105949402,       -0.2519531250,        0.6459960938,        0.0161132812,      -92.8955078125,       20.7977294922,      138.7481689453
1494035647.4133028984,       -0.2519531250,        0.6459960938,        0.0161132812,      -81.1767578125,       12.0697021484,      126.7395019531
1494035647.4158630371,       -0.2519531250,        0.6459960938,        0.0161132812,      -79.2694091797,       12.0697021484,      126.7395019531
1494035647.4184210300,       -0.2519531250,        0.7622070312,        0.2119140625,      -79.2694091797,       -3.5552978516,      116.8365478516
1494035647.4209809303,       -0.6289062500,        0.7622070312,        0.2119140625,      -49.5758056641,       -0.1525878906,      116.8365478516
1494035647.4236819744,       -0.6289062500,        0.7622070312,        0.2119140625,      -49.5758056641,      -11.8713378906,      103.9581298828
1494035647.4263839722,       -0.6289062500,        0.7622070312,        0.2119140625,      -16.0369873047,      -14.0533447266,      103.9581298828
1494035647.4290840626,       -1.0312500000,        0.6855468750,        0.0214843750,      -16.0369873047,      -25.7720947266,       93.8720703125
1494035647.4317820072,       -1.0312500000,        0.6855468750,        0.0214843750,        6.0729980469,      -26.3061523438,       93.8720703125
1494035647.4344899654,       -1.0312500000,        0.6855468750,        0.0214843750,        6.0729980469,      -34.1186523438,       93.3532714844
1494035647.4371900558,       -1.0312500000,        0.6855468750,        0.0214843750,       15.7165527344,      -34.5916748047,       93.3532714844
1494035647.4398880005,       -0.9438476562,        0.3886718750,       -0.0122070312,       15.7165527344,      -34.5916748047,       95.5505371094
1494035647.4425919056,       -0.9438476562,        0.3886718750,       -0.0122070312,       13.7176513672,      -36.9110107422,       95.5505371094
1494035647.4453039169,       -0.9438476562,        0.3886718750,       -0.0122070312,       13.7176513672,      -36.9110107422,      100.2502441406
1494035647.4480049610,       -0.9438476562,        0.3886718750,        0.1127929688,        7.1868896484,      -37.6586914062,      100.2502441406
1494035647.4506990910,       -0.8061523438,        0.3666992188,        0.1088867188,        7.1868896484,      -37.6586914062,      105.9417724609
1494035647.4534430504,       -0.8061523438,        0.3666992188,        0.1088867188,        3.4027099609,      -38.8793945312,      105.9417724609
1494035647.4561409950,       -0.8061523438,        0.3666992188,        0.1088867188,        3.4027099609,      -38.8793945312,      108.0017089844
1494035647.4588370323,       -0.8061523438,        0.6279296875,        0.1669921875,        3.3416748047,      -39.8559570312,      108.0017089844
1494035647.4615340233,       -0.7539062500,        0.6279296875,        0.1669921875,        3.3416748047,      -39.8559570312,      107.2998046875
1494035647.4642241001,       -0.7539062500,        0.6279296875,        0.1669921875,        7.7972412109,      -41.6412353516,      107.2998046875
1494035647.4667799473,       -0.7539062500,        0.6279296875,        0.1669921875,        7.7972412109,      -41.6412353516,      103.3935546875
1494035647.4693338871,       -1.0146484375,        0.8330078125,        0.2070312500,       18.3715820312,      -42.7246093750,      103.8055419922
1494035647.4718940258,       -1.0146484375,        0.8330078125,        0.2070312500,       18.3715820312,      -42.7246093750,      103.8055419922
1494035647.4745419025,       -1.0146484375,        0.8330078125,        0.2070312500,       27.2827148438,      -39.6423339844,      102.1270751953
1494035647.4772439003,       -1.0146484375,        0.8330078125,        0.2070312500,       27.2827148438,      -39.6423339844,      102.1270751953
1494035647.4799430370,       -1.6459960938,        0.8945312500,        0.0385742188,       28.5949707031,      -31.5246582031,      101.3488769531
1494035647.4826390743,       -1.6459960938,        0.8945312500,        0.0385742188,       28.5949707031,      -31.5246582031,      101.3488769531
1494035647.4853520393,       -1.6459960938,        0.8945312500,        0.0385742188,       26.7639160156,      -26.6723632812,      105.3466796875
1494035647.4880490303,       -1.6459960938,        0.8945312500,        0.0385742188,       26.7639160156,      -26.6723632812,      105.3466796875
1494035647.4907419682,       -1.9023437500,        0.7167968750,       -0.0903320312,       19.2565917969,      -26.3671875000,      113.4033203125
1494035647.4934821129,       -1.9023437500,        0.7167968750,       -0.0903320312,       19.2565917969,      -26.3671875000,      113.4033203125
1494035647.4962799549,       -1.9023437500,        0.7167968750,       -0.0903320312,        8.7738037109,      -26.9317626953,      122.6043701172
1494035647.4989809990,       -1.9023437500,        0.5917968750,       -0.1313476562,        8.7738037109,      -26.9317626953,      122.6043701172
1494035647.5016760826,       -2.0258789062,        0.6162109375,       -0.1313476562,       -0.9918212891,      -28.8238525391,      132.9803466797
1494035647.5043780804,       -2.0258789062,        0.6162109375,       -0.1313476562,       -0.9918212891,      -28.8238525391,      132.9803466797
1494035647.5070669651,       -2.0258789062,        0.6162109375,       -0.1313476562,       -7.2784423828,      -31.3415527344,      143.8140869141
1494035647.5097589493,       -2.1054687500,        0.7470703125,       -0.0073242188,       -7.2784423828,      -31.3415527344,      143.8140869141
1494035647.5124540329,       -2.1054687500,        0.7470703125,       -0.0073242188,      -12.2375488281,      -34.1644287109,      155.0750732422
1494035647.5150749683,       -2.1054687500,        0.7470703125,       -0.0073242188,      -12.2375488281,      -34.1644287109,      155.0750732422
1494035647.5176401138,       -2.1054687500,        0.7470703125,       -0.0073242188,      -12.3138427734,      -39.4134521484,      165.8325195312
1494035647.5202040672,       -2.2695312500,        0.6289062500,        0.1030273438,      -12.3138427734,      -39.4134521484,      165.8325195312
1494035647.5227611065,       -2.2695312500,        0.6289062500,        0.1030273438,      -10.2844238281,      -48.4313964844,      177.0782470703
1494035647.5254890919,       -2.2695312500,        0.6289062500,        0.1030273438,      -10.2844238281,      -48.4313964844,      177.0782470703
1494035647.5281889439,       -2.2695312500,        0.6289062500,        0.1030273438,       -3.0364990234,      -55.5877685547,      185.8825683594
1494035647.5308818817,       -2.4028320312,        0.1381835938,        0.1953125000,       -3.0364990234,      -55.5877685547,      185.8825683594
1494035647.5335760117,       -2.4028320312,        0.1381835938,        0.1953125000,        9.9487304688,      -60.3485107422,      186.7828369141
1494035647.5362749100,       -2.4028320312,        0.1381835938,        0.1953125000,        9.9487304688,      -60.3485107422,      186.7828369141
1494035647.5389740467,       -2.4028320312,        0.1381835938,        0.3061523438,       23.5900878906,      -65.7958984375,      179.0924072266
1494035647.5416710377,       -2.3139648438,       -0.1938476562,        0.3061523438,       23.5900878906,      -65.7958984375,      179.0924072266
1494035647.5443739891,       -2.3139648438,       -0.1938476562,        0.3061523438,       61.0046386719,      -77.9113769531,      153.1219482422
1494035647.5470719337,       -2.3139648438,       -0.1938476562,        0.3061523438,       61.0046386719,      -77.9113769531,      153.1219482422
1494035647.5497739315,       -1.5639648438,       -0.2382812500,        0.2387695312,       85.7696533203,      -80.2612304688,      143.8140869141
1494035647.5524780750,       -1.5751953125,       -0.2382812500,        0.2387695312,       85.7696533203,      -80.2612304688,      143.8140869141
1494035647.5550949574,       -1.5751953125,       -0.2382812500,        0.2387695312,       58.7463378906,      -66.6656494141,      158.1726074219
1494035647.5576560497,       -1.5751953125,       -0.2382812500,        0.2387695312,       58.7463378906,      -66.6656494141,      158.1726074219
1494035647.5602149963,       -1.0126953125,       -0.1064453125,        0.1743164062,       66.5588378906,      -65.2770996094,      172.8057861328
1494035647.5627789497,       -1.0126953125,       -0.1064453125,        0.1743164062,       68.0541992188,      -65.2770996094,      172.8057861328
1494035647.5655050278,       -1.0126953125,       -0.1064453125,        0.1743164062,       64.1479492188,      -66.1926269531,      172.4090576172
1494035647.5682020187,       -1.0126953125,       -0.1064453125,        0.1743164062,       65.3381347656,      -66.1926269531,      172.4090576172
1494035647.5710110664,       -0.7143554688,        0.0126953125,        0.1025390625,       69.2443847656,      -59.3414306641,      163.2537841797
1494035647.5737309456,       -0.7143554688,        0.0126953125,        0.1025390625,       68.4967041016,      -59.3414306641,      163.2537841797
1494035647.5764350891,       -0.7143554688,        0.0126953125,        0.1025390625,       68.4967041016,      -55.0842285156,      166.2139892578
1494035647.5791420937,       -0.7143554688,        0.0126953125,       -0.1474609375,       70.2514648438,      -55.0842285156,      166.2139892578
1494035647.5818428993,       -0.1528320312,       -0.0146484375,       -0.1870117188,       70.2514648438,      -51.1474609375,      180.2978515625
1494035647.5845549107,       -0.1528320312,       -0.0146484375,       -0.1870117188,       69.6716308594,      -51.1474609375,      180.2978515625
1494035647.5872550011,       -0.1528320312,       -0.0146484375,       -0.1870117188,       69.6716308594,      -61.1572265625,      162.7044677734
1494035647.5899579525,       -0.1528320312,       -0.7163085938,        0.0585937500,       69.6411132812,      -61.1572265625,      162.7044677734
1494035647.5926599503,        0.6108398438,       -0.7163085938,        0.0585937500,      100.8911132812,      -55.6488037109,      122.1160888672
1494035647.5953719616,        0.6108398438,       -0.7163085938,        0.0585937500,      100.7232666016,      -55.6488037109,      122.1160888672
1494035647.5980710983,        0.6108398438,       -0.7163085938,        0.0585937500,      100.7232666016,      -39.6423339844,       86.9293212891
1494035647.6007699966,       -0.7817382812,       -1.7661132812,       -0.6347656250,      150.0701904297,      -39.6423339844,       86.9293212891
1494035647.6034779549,       -0.7817382812,       -1.7661132812,       -0.6347656250,      150.0701904297,      -31.8298339844,       55.4199218750
1494035647.6060390472,       -0.7817382812,       -1.7661132812,       -0.6347656250,      146.3623046875,      -32.7758789062,       55.4199218750
1494035647.6085989475,       -0.7817382812,       -1.7661132812,       -0.6347656250,      146.3623046875,      -32.7758789062,       29.2816162109
1494035647.6111550331,       -0.8789062500,       -2.4775390625,       -0.6137695312,       91.5069580078,      -23.5290527344,       29.2816162109
1494035647.6137430668,       -0.8789062500,       -2.4775390625,       -0.6137695312,       91.5069580078,      -23.5290527344,       13.6566162109
1494035647.6164441109,       -0.8789062500,       -2.4775390625,       -0.6137695312,       31.4483642578,       -4.5776367188,       14.4042968750
1494035647.6191420555,       -0.8789062500,       -2.4775390625,       -0.6137695312,       31.4483642578,       -4.5776367188,        2.6855468750
1494035647.6218400002,       -0.2006835938,       -1.9765625000,       -0.7177734375,      -27.6794433594,        8.7585449219,        1.4801025391
1494035647.6245379448,       -0.2006835938,       -1.9765625000,       -0.7177734375,      -27.6794433594,        8.7585449219,      -21.9573974609
1494035647.6272308826,       -0.2006835938,       -1.9765625000,       -0.7177734375,      -61.0198974609,       17.3797607422,      -21.0571289062
1494035647.6299269199,       -0.2006835938,       -1.9765625000,       -0.4189453125,      -61.0198974609,       17.3797607422,      -52.3071289062
1494035647.6326200962,        0.0371093750,       -1.6386718750,       -0.4189453125,      -67.5201416016,       22.1862792969,      -54.5196533203
1494035647.6353290081,        0.0371093750,       -1.6386718750,       -0.4189453125,      -67.5201416016,       22.1862792969,      -54.5196533203
1494035647.6380240917,        0.0371093750,       -1.6386718750,       -0.4189453125,      -66.7266845703,       29.8614501953,      -89.0350341797
1494035647.6407279968,       -0.0878906250,       -1.8007812500,       -0.2587890625,      -66.7266845703,       29.8614501953,      -89.0350341797
1494035647.6435239315,       -0.0302734375,       -1.8007812500,       -0.2587890625,      -71.5332031250,       40.0848388672,     -120.2087402344
1494035647.6463329792,       -0.0302734375,       -1.8007812500,       -0.2587890625,      -71.5332031250,       40.0848388672,     -151.4587402344
1494035647.6490399837,       -0.0302734375,       -1.8007812500,       -0.2587890625,      -79.5898437500,       48.4924316406,     -149.2156982422
1494035647.6517500877,       -0.0419921875,       -1.7182617188,       -0.1787109375,      -79.5898437500,       48.4924316406,     -176.5594482422
1494035647.6544361115,       -0.0419921875,       -1.7182617188,       -0.1787109375,      -85.8917236328,       56.2591552734,     -176.3153076172
1494035647.6570000648,       -0.0419921875,       -1.7182617188,       -0.1787109375,      -85.8917236328,       56.2591552734,     -176.3153076172
1494035647.6595599651,       -0.0419921875,       -1.7182617188,       -0.1787109375,      -85.6323242188,       63.0340576172,     -200.8514404297
1494035647.6621189117,       -0.0708007812,       -1.3867187500,       -0.1059570312,      -85.6323242188,       63.0340576172,     -200.8514404297
1494035647.6647760868,       -0.0708007812,       -1.3867187500,       -0.1059570312,      -74.9359130859,       66.9555664062,     -224.3652343750
1494035647.6674790382,       -0.0708007812,       -1.3867187500,       -0.1059570312,      -74.9359130859,       66.9555664062,     -224.3652343750
1494035647.6701769829,       -0.0708007812,       -1.3867187500,       -0.0537109375,      -57.4798583984,       70.3735351562,     -247.7569580078
1494035647.6728720665,       -0.1137695312,       -1.0913085938,       -0.0537109375,      -57.4798583984,       70.3735351562,     -247.7569580078
1494035647.6755840778,       -0.1137695312,       -1.0913085938,       -0.0537109375,      -36.9262695312,       71.4263916016,     -270.7519531250
1494035647.6782870293,       -0.1137695312,       -1.0913085938,       -0.0537109375,      -36.9262695312,       71.4263916016,     -270.7519531250
1494035647.6809880733,       -0.2387695312,       -0.8520507812,       -0.0366210938,      -12.6953125000,       69.5037841797,     -293.5333251953
1494035647.6836979389,       -0.1254882812,       -0.8520507812,       -0.0366210938,      -12.6953125000,       69.5037841797,     -293.5333251953
1494035647.6863958836,       -0.1254882812,       -0.8520507812,       -0.0366210938,        9.4757080078,       66.0552978516,     -315.8416748047
1494035647.6890931129,       -0.1254882812,       -0.8520507812,       -0.0366210938,        9.4757080078,       66.0552978516,     -315.8416748047
1494035647.6917929649,       -0.1118164062,       -0.5961914062,        0.0131835938,       20.0653076172,       60.4095458984,     -333.8165283203
1494035647.6944971085,       -0.1118164062,       -0.5961914062,        0.0131835938,       20.0653076172,       60.4095458984,     -333.8165283203
1494035647.6971919537,       -0.1118164062,       -0.5961914062,        0.0131835938,       25.9246826172,       54.5959472656,     -349.7619628906
1494035647.6998879910,       -0.1118164062,       -0.5961914062,        0.0131835938,       25.9246826172,       54.5959472656,     -349.7619628906
1494035647.7025880814,       -0.0791015625,       -0.2875976562,        0.0380859375,       37.7349853516,       49.2401123047,     -364.6240234375
1494035647.7051880360,       -0.0791015625,       -0.2875976562,        0.0380859375,       37.7349853516,       49.2401123047,     -364.6240234375
1494035647.7077469826,       -0.0791015625,       -0.2875976562,        0.0380859375,       53.1921386719,       42.6025390625,     -377.3651123047
1494035647.7103009224,       -0.0791015625,       -0.2875976562,        0.0380859375,       53.1921386719,       42.6025390625,     -377.3651123047
1494035647.7128601074,       -0.1440429688,        0.0693359375,        0.0454101562,       61.6607666016,       35.8276367188,     -386.0626220703
1494035647.7155690193,       -0.1440429688,        0.0693359375,        0.0454101562,       61.6607666016,       35.8276367188,     -386.0626220703
1494035647.7183730602,       -0.1440429688,        0.0693359375,        0.0454101562,       62.2406005859,       28.6102294922,     -390.8233642578
1494035647.7210791111,       -0.1440429688,        0.4877929688,        0.0717773438,       62.2406005859,       28.6102294922,     -390.8233642578
1494035647.7237880230,       -0.2182617188,        0.4877929688,        0.0717773438,       54.0618896484,       20.4467773438,     -389.6179199219
1494035647.7264890671,       -0.2182617188,        0.4877929688,        0.0717773438,       54.0618896484,       20.4467773438,     -389.6179199219
1494035647.7291920185,       -0.2182617188,        0.4877929688,        0.0717773438,       43.8385009766,       14.7857666016,     -383.3312988281
1494035647.7318909168,       -0.3310546875,        0.9018554688,        0.1333007812,       43.8385009766,       14.7857666016,     -383.3312988281
1494035647.7345979214,       -0.3310546875,        0.9018554688,        0.1333007812,       35.7666015625,        9.3688964844,     -377.3651123047
1494035647.7372949123,       -0.3310546875,        0.9018554688,        0.1333007812,       35.7666015625,        9.3688964844,     -377.3651123047
1494035647.7399919033,       -0.3310546875,        0.9018554688,        0.1333007812,       32.4859619141,        2.6855468750,     -374.9847412109
1494035647.7426860332,       -0.5410156250,        1.2016601562,        0.1699218750,       32.4859619141,        2.6855468750,     -374.9847412109
1494035647.7453839779,       -0.5410156250,        1.2016601562,        0.1699218750,       30.7464599609,       -1.8615722656,     -373.2147216797
1494035647.7480781078,       -0.5410156250,        1.2016601562,        0.1699218750,       30.7464599609,       -1.8615722656,     -373.2147216797
1494035647.7507719994,       -0.5410156250,        1.2016601562,        0.0449218750,       23.6816406250,       -4.0893554688,     -359.3902587891
1494035647.7534689903,       -0.7934570312,        1.6020507812,        0.1123046875,       23.6816406250,       -4.0893554688,     -359.3902587891
1494035647.7560269833,       -0.7934570312,        1.6020507812,        0.1123046875,       23.6816406250,       -5.1727294922,     -341.7510986328
1494035647.7585840225,       -0.7934570312,        1.6020507812,        0.1123046875,        5.6762695312,       -5.1727294922,     -341.7510986328
1494035647.7611401081,       -0.7934570312,        1.6020507812,        0.1323242188,        5.6762695312,       -5.1727294922,     -327.4688720703
1494035647.7637259960,       -0.9760742188,        1.7705078125,        0.1323242188,      -15.2130126953,       -8.2397460938,     -327.4688720703
1494035647.7664239407,       -0.9760742188,        1.7705078125,        0.1323242188,      -15.2130126953,       -8.2397460938,     -319.1986083984
1494035647.7691180706,       -0.9760742188,        1.7705078125,        0.1323242188,      -34.2559814453,       -7.1868896484,     -319.1986083984
1494035647.7718069553,       -1.2260742188,        1.9975585938,        0.1582031250,      -34.2559814453,       -7.1868896484,     -313.4307861328
1494035647.7745079994,       -1.1723632812,        1.9975585938,        0.1582031250,      -50.1556396484,       -7.2784423828,     -313.4307861328
1494035647.7772059441,       -1.1723632812,        1.9975585938,        0.1582031250,      -50.1556396484,       -7.2784423828,     -304.3212890625
1494035647.7799019814,       -1.1723632812,        1.9975585938,        0.1582031250,      -56.0913085938,       -8.6669921875,     -304.3212890625
1494035647.7825999260,       -1.3710937500,        2.4418945312,        0.2377929688,      -56.0913085938,       -8.6669921875,     -289.3066406250
1494035647.7853050232,       -1.3710937500,        2.4418945312,        0.2377929688,      -68.9544677734,       -6.5460205078,     -289.3066406250
1494035647.7879979610,       -1.3710937500,        2.4418945312,        0.2377929688,      -68.9544677734,       -6.5460205078,     -271.2097167969
1494035647.7906908989,       -1.3710937500,        2.4418945312,        0.2377929688,      -74.4628906250,       -3.5705566406,     -271.2097167969
1494035647.7935509682,       -1.5517578125,        2.8466796875,        0.3061523438,      -74.4628906250,       -3.5705566406,     -251.9683837891
1494035647.7962489128,       -1.5517578125,        2.8466796875,        0.3061523438,      -68.0236816406,        0.4730224609,     -251.9683837891
1494035647.7989430428,       -1.5517578125,        2.8466796875,        0.3061523438,      -68.0236816406,        0.4730224609,     -231.9793701172
1494035647.8016400337,       -1.5517578125,        3.3466796875,        0.2358398438,      -54.6569824219,        4.6539306641,     -231.9793701172
1494035647.8042969704,       -1.6616210938,        3.2524414062,        0.2358398438,      -54.6569824219,        4.6539306641,     -208.5418701172
1494035647.8068521023,       -1.6616210938,        3.2524414062,        0.2358398438,      -34.9884033203,        3.9215087891,     -210.5255126953
1494035647.8094100952,       -1.6616210938,        3.2524414062,        0.2358398438,      -34.9884033203,        3.9215087891,     -210.5255126953
1494035647.8119699955,       -1.6616210938,        3.3388671875,        0.0771484375,      -15.0146484375,        1.6174316406,     -183.0139160156
1494035647.8146040440,       -1.6845703125,        3.3388671875,        0.0771484375,      -15.0146484375,        1.6174316406,     -183.0139160156
1494035647.8173019886,       -1.6845703125,        3.3388671875,        0.0771484375,       -0.3662109375,        2.6550292969,     -155.4718017578
1494035647.8199949265,       -1.6845703125,        3.3388671875,        0.0771484375,       -0.3662109375,        2.6550292969,     -155.4718017578
1494035647.8226809502,       -1.2832031250,        2.9672851562,        0.1020507812,        9.0942382812,        6.6680908203,     -128.8146972656
1494035647.8253788948,       -1.2832031250,        2.9672851562,        0.1020507812,        9.0942382812,        6.6680908203,     -128.8146972656
1494035647.8280739784,       -1.2832031250,        2.9672851562,        0.1020507812,       17.0440673828,        7.8887939453,      -95.1080322266
1494035647.8307690620,       -1.2832031250,        2.9672851562,        0.1020507812,       17.0440673828,        7.8887939453,      -95.1080322266
1494035647.8334751129,       -1.0312500000,        2.4531250000,        0.2402343750,       22.2015380859,        9.0789794922,      -56.6711425781
1494035647.8361721039,       -1.0312500000,        2.4531250000,        0.2402343750,       22.2015380859,        9.0789794922,      -56.6711425781
1494035647.8388679028,       -1.0312500000,        2.4531250000,        0.2402343750,       23.4985351562,       10.2081298828,      -21.4996337891
1494035647.8415689468,       -1.0312500000,        2.4531250000,        0.4902343750,       23.4985351562,       10.2081298828,      -21.4996337891
1494035647.8442730904,       -0.9487304688,        2.0874023438,        0.4125976562,       22.7355957031,       11.4593505859,        9.2620849609
1494035647.8469688892,       -0.9487304688,        2.0874023438,        0.4125976562,       22.7355957031,       11.4593505859,        9.2620849609
1494035647.8496649265,       -0.9487304688,        2.0874023438,        0.4125976562,       14.1143798828,       11.8255615234,       38.9099121094
1494035647.8523659706,       -0.9487304688,        1.7172851562,        0.4887695312,       14.1143798828,       11.8255615234,       38.9099121094
1494035647.8549799919,       -0.8461914062,        1.7172851562,        0.4887695312,       -1.0528564453,        9.3231201172,       65.5517578125
1494035647.8575348854,       -0.8461914062,        1.7172851562,        0.4887695312,       -1.0528564453,        9.3231201172,       65.5517578125
1494035647.8600881100,       -0.8461914062,        1.7172851562,        0.4887695312,      -14.2364501953,        3.2958984375,       88.1042480469
1494035647.8626439571,       -0.7211914062,        1.4619140625,        0.4067382812,      -14.2364501953,        3.2958984375,       88.1042480469
1494035647.8653249741,       -0.6865234375,        1.4619140625,        0.4067382812,      -23.9257812500,       -4.4097900391,      108.4289550781
1494035647.8681399822,       -0.6865234375,        1.4619140625,        0.4067382812,      -23.9257812500,       -4.4097900391,      108.4289550781
1494035647.8708400726,       -0.6865234375,        1.4619140625,        0.4067382812,      -28.2440185547,      -17.0593261719,      125.2593994141
1494035647.8735530376,       -0.3437500000,        2.0336914062,        1.1196289062,      -28.2440185547,      -17.0593261719,      125.2593994141
1494035647.8762559891,       -0.3437500000,        2.0336914062,        1.1196289062,       -0.6866455078,      -49.6215820312,      133.6364746094
1494035647.8789510727,       -0.3437500000,        2.0336914062,        1.1196289062,       -0.6866455078,      -49.6215820312,      133.6364746094
1494035647.8816490173,       -0.3437500000,        2.0336914062,        1.1196289062,       54.2144775391,      -36.9720458984,      162.0178222656
1494035647.8843579292,       -0.9936523438,        2.1547851562,       -0.0927734375,       54.2144775391,      -36.9720458984,      162.0178222656
1494035647.8870611191,       -0.9936523438,        2.1547851562,       -0.0927734375,       79.1625976562,       43.7011718750,      194.6105957031
1494035647.8897609711,       -0.9936523438,        2.1547851562,       -0.0927734375,       79.1625976562,       43.7011718750,      194.6105957031
1494035647.8924639225,       -0.9936523438,       -1.2202148438,       -0.7958984375,       59.1278076172,        8.3007812500,      167.3736572266
1494035647.8951649666,       -1.6582031250,       -1.1474609375,       -0.7958984375,       59.1278076172,        8.3007812500,      167.3736572266
1494035647.8978600502,       -1.6582031250,       -1.1474609375,       -0.7958984375,       76.9805908203,      -47.4853515625,      135.3607177734
1494035647.9005570412,       -1.6582031250,       -1.1474609375,       -0.7958984375,       76.9805908203,      -47.4853515625,      135.3607177734
1494035647.9032630920,       -1.1655273438,       -1.4794921875,       -0.9667968750,       49.4689941406,      -24.3988037109,      123.9624023438
1494035647.9058210850,       -1.1655273438,       -1.4794921875,       -0.9667968750,       49.4689941406,      -24.3988037109,      123.9624023438
1494035647.9083790779,       -1.1655273438,       -1.4794921875,       -0.9667968750,       49.4689941406,        2.7160644531,      106.7352294922
1494035647.9109299183,       -1.1655273438,       -1.4794921875,       -0.9667968750,      -12.1459960938,        2.7160644531,      106.7352294922
1494035647.9135100842,       -1.5273437500,       -1.7001953125,       -0.0781250000,      -12.1459960938,        2.7160644531,       74.6307373047
1494035647.9164209366,       -1.5273437500,       -1.7001953125,       -0.0781250000,      -79.0100097656,       14.1601562500,       74.6307373047
1494035647.9189949036,       -1.5273437500,       -1.7001953125,       -0.0781250000,      -79.0100097656,       14.1601562500,       79.5745849609
1494035647.9215519428,       -1.5273437500,       -1.7001953125,       -0.0781250000,     -115.8599853516,       54.0924072266,       79.5745849609
1494035647.9242389202,       -2.9321289062,       -0.3920898438,        0.9340820312,     -115.8599853516,       54.0924072266,      170.9747314453
1494035647.9269070625,       -2.9321289062,       -0.3920898438,        0.9340820312,     -152.9998779297,       88.0584716797,      170.9747314453
1494035647.9296100140,       -2.9321289062,       -0.3920898438,        0.9340820312,     -152.9998779297,       88.0584716797,      261.2152099609
1494035647.9323260784,       -2.9321289062,       -0.3920898438,       -0.3159179688,     -181.6711425781,      105.1330566406,      261.2152099609
1494035647.9350709915,       -6.3671875000,        0.1508789062,       -0.3188476562,     -181.6711425781,      105.1330566406,      263.4124755859
1494035647.9377648830,       -6.3671875000,        0.1508789062,       -0.3188476562,     -168.8690185547,       71.6857910156,      263.4124755859
1494035647.9405639172,       -6.3671875000,        0.1508789062,       -0.3188476562,     -168.8690185547,       71.6857910156,      222.4121093750
1494035647.9432730675,       -1.7421875000,       -1.2578125000,       -1.1660156250,     -166.4123535156,       11.7034912109,      222.4121093750
1494035647.9459729195,       -1.6669921875,       -1.2578125000,       -1.1660156250,     -166.4123535156,       11.7034912109,      234.7259521484
1494035647.9486670494,       -1.6669921875,       -1.2578125000,       -1.1660156250,     -146.6522216797,      -13.4277343750,      234.7259521484
1494035647.9513599873,       -1.6669921875,       -1.2578125000,       -1.1660156250,     -146.6522216797,      -13.4277343750,      233.4136962891
1494035647.9540278912,        1.0639648438,        0.9257812500,        0.1704101562,     -121.6125488281,        0.8697509766,      233.4136962891
1494035647.9565870762,        1.0639648438,        0.9257812500,        0.1704101562,     -121.6125488281,        0.8697509766,      233.4136962891
1494035647.9591410160,        1.0639648438,        0.9257812500,        0.1704101562,      -95.8709716797,       12.9547119141,      222.7325439453
1494035647.9617009163,        1.0639648438,        0.9257812500,        0.1704101562,      -95.8709716797,       12.9547119141,      222.7325439453
1494035647.9643359184,        0.5644531250,        1.1293945312,       -0.0693359375,      -63.5070800781,       -9.5214843750,      204.6203613281
1494035647.9670300484,        0.5644531250,        1.1293945312,       -0.0693359375,      -63.5070800781,       -9.5214843750,      204.6203613281
1494035647.9697740078,        0.5644531250,        1.1293945312,       -0.0693359375,      -81.5734863281,      -14.2517089844,      189.0258789062
1494035647.9730920792,        0.5644531250,        1.0610351562,        0.2763671875,      -81.5734863281,      -14.2517089844,      176.6357421875
1494035647.9759559631,        0.5209960938,        1.0610351562,        0.2763671875,      -78.9947509766,       -4.1198730469,      176.6357421875
1494035647.9786579609,        0.5209960938,        1.0610351562,        0.2763671875,      -78.9947509766,       -4.1198730469,      159.8968505859
1494035647.9813580513,        0.5209960938,        1.0610351562,        0.2763671875,      -50.6439208984,        1.8615722656,      159.8968505859
1494035647.9840679169,       -0.1689453125,        0.8740234375,        0.1469726562,      -50.6439208984,        1.8615722656,      143.9971923828
1494035647.9867649078,       -0.1689453125,        0.8740234375,        0.1469726562,      -37.6281738281,       -0.0152587891,      143.9971923828
1494035647.9894659519,       -0.1689453125,        0.8740234375,        0.1469726562,      -37.6281738281,       -0.0152587891,      136.7645263672
1494035647.9921669960,       -0.1689453125,        0.8740234375,        0.1469726562,      -29.0222167969,       -2.4414062500,      136.7645263672
1494035647.9948799610,       -0.7324218750,        0.0151367188,        0.2836914062,      -29.0222167969,       -2.4414062500,      136.1999511719
1494035647.9975841045,       -0.7324218750,        0.0151367188,        0.2836914062,       -8.5601806641,       -7.6293945312,      136.1999511719
1494035648.0002770424,       -0.7324218750,        0.0151367188,        0.2836914062,       -8.5601806641,       -7.6293945312,      129.2114257812
1494035648.0029709339,       -0.7324218750,        0.0151367188,       -0.2163085938,       13.1225585938,      -15.8843994141,      129.2114257812
1494035648.0055658817,       -1.0693359375,        0.5678710938,       -0.2314453125,       13.1225585938,      -15.8843994141,      129.2114257812
1494035648.0081229210,       -1.0693359375,        0.5678710938,       -0.2314453125,       23.2696533203,      -22.2015380859,      122.3907470703
1494035648.0106840134,       -1.0693359375,        0.5678710938,       -0.2314453125,       23.2696533203,      -22.2015380859,      122.3907470703
1494035648.0132520199,       -1.0693359375,        0.5678710938,       -0.5551757812,       20.2636718750,      -25.4211425781,      125.7171630859
1494035648.0159339905,       -0.7719726562,        0.9301757812,       -0.5551757812,       20.2636718750,      -25.4211425781,      125.7171630859
1494035648.0184988976,       -0.7719726562,        0.9301757812,       -0.5551757812,       11.7797851562,      -23.3306884766,      132.5683593750
1494035648.0210599899,       -0.7719726562,        0.9301757812,       -0.5551757812,       11.7797851562,      -23.3306884766,      132.5683593750
1494035648.0237779617,       -0.7719726562,        0.5493164062,       -0.0664062500,        0.3051757812,      -21.3928222656,      128.4484863281
1494035648.0263450146,       -0.6010742188,        0.5493164062,       -0.0664062500,        0.3051757812,      -21.3928222656,      128.4484863281
1494035648.0289039612,       -0.6010742188,        0.5493164062,       -0.0664062500,       -6.7901611328,      -18.5394287109,      123.8708496094
1494035648.0314579010,       -0.6010742188,        0.5493164062,       -0.0664062500,       -6.7901611328,      -18.5394287109,      123.8708496094
1494035648.0342020988,       -0.8510742188,        0.3300781250,        0.2626953125,      -11.2304687500,      -18.7377929688,      123.5656738281
1494035648.0369019508,       -0.8662109375,        0.3300781250,        0.2626953125,      -11.2304687500,      -18.7377929688,      123.5656738281
1494035648.0396060944,       -0.8662109375,        0.3300781250,        0.2626953125,       -5.5999755859,      -20.8129882812,      125.9307861328
1494035648.0423018932,       -0.8662109375,        0.3300781250,        0.2626953125,       -5.5999755859,      -20.8129882812,      125.9307861328
1494035648.0449020863,       -0.8457031250,        0.4897460938,        0.1166992188,       -1.8920898438,      -21.1944580078,      126.8005371094
1494035648.0474619865,       -0.8457031250,        0.4897460938,        0.1166992188,       -1.8920898438,      -21.1944580078,      126.8005371094
1494035648.0500171185,       -0.8457031250,        0.4897460938,        0.1166992188,       -1.8920898438,      -18.8293457031,      129.5776367188
1494035648.0525751114,       -0.8457031250,        0.4897460938,        0.1166992188,       -1.4801025391,      -18.8293457031,      129.5776367188
1494035648.0552890301,       -0.9521484375,        0.5322265625,        0.0122070312,       -1.4801025391,      -17.1661376953,      132.7362060547
1494035648.0579850674,       -0.9521484375,        0.5322265625,        0.0122070312,        1.7089843750,      -17.1661376953,      132.7362060547
1494035648.0606849194,       -0.9521484375,        0.5322265625,        0.0122070312,        1.7089843750,      -14.4042968750,      134.1247558594
1494035648.0634350777,       -0.9521484375,        0.5322265625,        0.0122070312,        5.4473876953,      -14.4042968750,      134.1247558594
1494035648.0661261082,       -1.0229492188,        0.5659179688,        0.0947265625,        5.4473876953,      -14.2517089844,      137.2222900391
1494035648.0688230991,       -1.0229492188,        0.5659179688,        0.0947265625,        7.7362060547,      -14.2517089844,      137.2222900391
1494035648.0715129375,       -1.0229492188,        0.5659179688,        0.0947265625,        7.7362060547,      -18.1579589844,      140.2893066406
1494035648.0742039680,       -1.0229492188,        0.6264648438,        0.3178710938,       13.0767822266,      -17.5323486328,      140.2893066406
1494035648.0769000053,       -1.1181640625,        0.6264648438,        0.3178710938,       13.0767822266,      -25.3448486328,      142.7307128906
1494035648.0795979500,       -1.1181640625,        0.6264648438,        0.3178710938,       19.7906494141,      -23.4985351562,      142.7307128906
1494035648.0822999477,       -1.1181640625,        0.6264648438,        0.3178710938,       19.7906494141,      -31.3110351562,      145.8435058594
1494035648.0849990845,       -1.3872070312,        0.8603515625,        0.4873046875,       30.5480957031,      -31.8145751953,      145.8435058594
1494035648.0876939297,       -1.3872070312,        0.8603515625,        0.4873046875,       30.5480957031,      -35.7208251953,      148.9868164062
1494035648.0905079842,       -1.3872070312,        0.8603515625,        0.4873046875,       46.2188720703,      -38.1622314453,      148.9868164062
1494035648.0932168961,       -1.3872070312,        0.8603515625,        0.4873046875,       46.2188720703,      -34.2559814453,      151.7333984375
1494035648.0957760811,       -2.1704101562,        1.0776367188,        0.1762695312,       42.9382324219,      -35.0189208984,      151.7333984375
1494035648.0983369350,       -2.1704101562,        1.0776367188,        0.1762695312,       42.9382324219,      -35.0189208984,      163.4521484375
1494035648.1008911133,       -2.1704101562,        1.0776367188,        0.1762695312,       29.3579101562,      -34.4543457031,      163.4521484375
1494035648.1034979820,       -2.1704101562,        1.0776367188,        0.1762695312,       29.3579101562,      -34.4543457031,      179.0771484375
1494035648.1061921120,       -2.3554687500,        0.7729492188,       -0.1411132812,       23.0102539062,      -37.3840332031,      175.9338378906
1494035648.1088860035,       -2.3554687500,        0.7729492188,       -0.1411132812,       23.0102539062,      -37.3840332031,      175.9338378906
1494035648.1115899086,       -2.3554687500,        0.7729492188,       -0.1411132812,       16.5863037109,      -39.7033691406,      186.5997314453
1494035648.1143000126,       -2.3554687500,        0.7729492188,       -0.0761718750,       16.5863037109,      -39.7033691406,      186.5997314453
1494035648.1170010567,       -2.6015625000,        0.4765625000,       -0.0761718750,        6.8054199219,      -42.3278808594,      196.9451904297
1494035648.1196980476,       -2.6015625000,        0.4765625000,       -0.0761718750,        6.8054199219,      -42.3278808594,      196.9451904297
1494035648.1223890781,       -2.6015625000,        0.4765625000,       -0.0761718750,       -5.2185058594,      -48.2635498047,      206.5887451172
1494035648.1250998974,       -2.4951171875,        0.2070312500,       -0.0214843750,       -5.2185058594,      -48.2635498047,      206.5887451172
1494035648.1277918816,       -2.4951171875,        0.2070312500,       -0.0214843750,      -21.7895507812,      -54.3060302734,      217.2546386719
1494035648.1304979324,       -2.4951171875,        0.2070312500,       -0.0214843750,      -21.7895507812,      -54.3060302734,      217.2546386719
1494035648.1332089901,       -2.4951171875,        0.2070312500,       -0.0214843750,      -30.7617187500,      -58.7158203125,      224.2431640625
1494035648.1359090805,       -2.2431640625,        0.0742187500,        0.0502929688,      -30.7617187500,      -58.7158203125,      224.2431640625
1494035648.1386039257,       -2.2431640625,        0.0742187500,        0.0502929688,      -27.5268554688,      -64.6972656250,      220.6268310547
1494035648.1413040161,       -2.2431640625,        0.0742187500,        0.0502929688,      -27.5268554688,      -64.6972656250,      220.6268310547
1494035648.1439630985,       -2.2431640625,        0.0742187500,        0.0502929688,      -12.6190185547,      -69.4885253906,      203.2470703125
1494035648.1465280056,       -2.0224609375,       -0.3134765625,        0.1293945312,      -12.6190185547,      -69.4885253906,      203.2470703125
1494035648.1490900517,       -2.0224609375,       -0.3134765625,        0.1293945312,        8.7127685547,      -78.6590576172,      174.8809814453
1494035648.1516509056,       -2.0224609375,       -0.3134765625,        0.1293945312,        8.7127685547,      -78.6590576172,      174.8809814453
1494035648.1543068886,       -2.0224609375,       -0.3134765625,       -0.3706054688,       37.7960205078,      -80.2001953125,      153.6712646484
1494035648.1570079327,       -1.6181640625,       -0.3256835938,       -0.2993164062,       37.7960205078,      -80.2001953125,      153.6712646484
1494035648.1597108841,       -1.6181640625,       -0.3256835938,       -0.2993164062,       57.6324462891,      -67.5659179688,      162.0788574219
1494035648.1625161171,       -1.6181640625,       -0.3256835938,       -0.2993164062,       57.6324462891,      -67.5659179688,      162.0788574219
1494035648.1652219296,       -1.6181640625,       -0.2988281250,       -0.0600585938,       52.7954101562,      -60.4858398438,      169.3878173828
1494035648.1679248810,       -0.9169921875,       -0.2988281250,       -0.0600585938,       52.7954101562,      -60.4858398438,      169.3878173828
1494035648.1706221104,       -0.9169921875,       -0.2988281250,       -0.0600585938,       47.0123291016,      -53.4057617188,      170.4254150391
1494035648.1733219624,       -0.9169921875,       -0.2988281250,       -0.0600585938,       47.0123291016,      -53.4057617188,      170.4254150391
1494035648.1760239601,       -0.1933593750,       -0.4892578125,       -0.0375976562,       55.2062988281,      -50.2319335938,      168.5333251953
1494035648.1787269115,       -0.1933593750,       -0.4892578125,       -0.0375976562,       55.2062988281,      -50.2319335938,      168.5333251953
1494035648.1814320087,       -0.1933593750,       -0.4892578125,       -0.0375976562,       64.5141601562,      -55.0842285156,      130.6610107422
