time_stamp before, Acceleration x, Acceleration y, Acceleration z, Gyro x, Gyro y, Gyro z
1494035586.0127270222,       -0.3828125000,       -0.1406250000,        0.0146484375,      -23.7579345703,      -31.3873291016,      -68.2525634766
1494035586.0167810917,       -0.3828125000,       -0.1406250000,        0.0146484375,      -23.7579345703,      -31.3873291016,      -68.2525634766
1494035586.0193490982,       -0.3828125000,       -0.1406250000,        0.0146484375,      -20.2636718750,      -33.2641601562,      -75.8361816406
1494035586.0218980312,       -0.3862304688,       -0.1074218750,        0.0024414062,      -20.2636718750,      -33.2641601562,      -75.8361816406
1494035586.0246639252,       -0.3862304688,       -0.1074218750,        0.0024414062,      -16.3421630859,      -35.0036621094,      -83.5571289062
1494035586.0273239613,       -0.3862304688,       -0.1074218750,        0.0024414062,      -16.3421630859,      -35.0036621094,      -83.5571289062
1494035586.0301458836,       -0.3862304688,       -0.0214843750,       -0.0341796875,       -9.7351074219,      -36.5905761719,      -90.6677246094
1494035586.0328230858,       -0.4013671875,       -0.0214843750,       -0.0341796875,       -9.7351074219,      -36.5905761719,      -90.6677246094
1494035586.0355069637,       -0.4013671875,       -0.0214843750,       -0.0341796875,        0.0305175781,      -38.1317138672,      -97.1832275391
1494035586.0381810665,       -0.4013671875,       -0.0214843750,       -0.0341796875,        0.0305175781,      -38.1317138672,      -97.1832275391
1494035586.0408520699,       -0.4003906250,        0.0395507812,       -0.0957031250,       10.1013183594,      -38.9251708984,     -102.9815673828
1494035586.0435380936,       -0.4003906250,        0.0395507812,       -0.0957031250,       10.1013183594,      -38.9251708984,     -102.9815673828
1494035586.0462179184,       -0.4003906250,        0.0395507812,       -0.0957031250,       20.0500488281,      -39.2608642578,     -108.1542968750
1494035586.0488998890,       -0.4003906250,        0.0395507812,       -0.0957031250,       20.0500488281,      -39.2608642578,     -108.1542968750
1494035586.0515780449,       -0.4082031250,        0.0747070312,       -0.1567382812,       29.2358398438,      -40.3747558594,     -113.7390136719
1494035586.0542590618,       -0.4082031250,        0.0747070312,       -0.1567382812,       29.2358398438,      -40.3747558594,     -113.7390136719
1494035586.0569069386,       -0.4082031250,        0.0747070312,       -0.1567382812,       36.5600585938,      -40.9851074219,     -119.3084716797
1494035586.0596270561,       -0.4082031250,        0.0747070312,       -0.1567382812,       36.5600585938,      -40.9851074219,     -119.3084716797
1494035586.0623390675,       -0.4213867188,        0.1186523438,       -0.2006835938,       40.9851074219,      -41.3055419922,     -123.4893798828
1494035586.0650091171,       -0.4213867188,        0.1186523438,       -0.2006835938,       40.9851074219,      -41.3055419922,     -123.4893798828
1494035586.0675699711,       -0.4213867188,        0.1186523438,       -0.2006835938,       44.1436767578,      -41.1682128906,     -127.0294189453
1494035586.0701301098,       -0.4213867188,        0.1186523438,       -0.2456054688,       44.1436767578,      -41.1682128906,     -127.0294189453
1494035586.0726890564,       -0.4409179688,        0.1713867188,       -0.2456054688,       44.7082519531,      -41.2139892578,     -129.6844482422
1494035586.0753390789,       -0.4409179688,        0.1713867188,       -0.2456054688,       44.7082519531,      -41.2139892578,     -129.6844482422
1494035586.0778999329,       -0.4409179688,        0.1713867188,       -0.2456054688,       44.7082519531,      -40.3442382812,     -130.9814453125
1494035586.0804600716,       -0.4409179688,        0.1713867188,       -0.2832031250,       42.4346923828,      -40.3442382812,     -130.9814453125
1494035586.0830221176,       -0.4565429688,        0.2309570312,       -0.2832031250,       42.4346923828,      -40.3442382812,     -131.0882568359
1494035586.0858080387,       -0.4565429688,        0.2309570312,       -0.2832031250,       37.8723144531,      -39.1235351562,     -131.0882568359
1494035586.0886380672,       -0.4565429688,        0.2309570312,       -0.2832031250,       37.8723144531,      -36.8804931641,     -130.9967041016
1494035586.0913219452,       -0.4921875000,        0.2675781250,       -0.3115234375,       32.0587158203,      -36.8804931641,     -130.9967041016
1494035586.0939979553,       -0.4921875000,        0.2675781250,       -0.3115234375,       32.0587158203,      -32.9742431641,     -131.1035156250
1494035586.0966579914,       -0.4921875000,        0.2675781250,       -0.3115234375,       25.4669189453,      -33.8287353516,     -131.1035156250
1494035586.0993111134,       -0.4921875000,        0.2675781250,       -0.3115234375,       25.4669189453,      -29.9224853516,     -130.5541992188
1494035586.1019949913,       -0.5424804688,        0.2934570312,       -0.3027343750,       16.3421630859,      -30.4107666016,     -130.5541992188
1494035586.1046330929,       -0.5424804688,        0.2934570312,       -0.3027343750,       16.3421630859,      -30.4107666016,     -129.9591064453
1494035586.1071889400,       -0.5424804688,        0.2934570312,       -0.3027343750,        5.2490234375,      -26.4587402344,     -129.9591064453
1494035586.1097469330,       -0.5424804688,        0.2934570312,       -0.3027343750,        5.2490234375,      -26.4587402344,     -129.9591064453
1494035586.1122970581,       -0.5747070312,        0.3061523438,       -0.2744140625,       -7.1563720703,      -23.1933593750,     -129.9133300781
1494035586.1149530411,       -0.5747070312,        0.3061523438,       -0.2744140625,       -7.1563720703,      -23.1933593750,     -129.9133300781
1494035586.1176381111,       -0.5747070312,        0.3061523438,       -0.2744140625,      -20.6146240234,      -19.8974609375,     -129.1809082031
1494035586.1203210354,       -0.5747070312,        0.3061523438,       -0.1494140625,      -20.6146240234,      -19.8974609375,     -129.1809082031
1494035586.1230089664,       -0.6284179688,        0.3510742188,       -0.2324218750,      -33.9202880859,      -15.8996582031,     -127.8381347656
1494035586.1257228851,       -0.6284179688,        0.3510742188,       -0.2324218750,      -33.9202880859,      -15.8996582031,     -127.8381347656
1494035586.1284139156,       -0.6284179688,        0.3510742188,       -0.2324218750,      -47.5463867188,      -11.7034912109,     -126.7700195312
1494035586.1310989857,       -0.6284179688,        0.4218750000,       -0.2050781250,      -47.5463867188,      -11.7034912109,     -126.7700195312
1494035586.1337950230,       -0.6533203125,        0.4218750000,       -0.2050781250,      -60.6994628906,       -8.4991455078,     -126.0681152344
1494035586.1364779472,       -0.6533203125,        0.4218750000,       -0.2050781250,      -60.6994628906,       -8.4991455078,     -126.0681152344
1494035586.1391599178,       -0.6533203125,        0.4218750000,       -0.2050781250,      -73.0743408203,       -5.5694580078,     -125.0610351562
1494035586.1419429779,       -0.6640625000,        0.5092773438,       -0.1645507812,      -73.0743408203,       -5.5694580078,     -123.3062744141
1494035586.1454689503,       -0.6640625000,        0.5092773438,       -0.1645507812,      -84.3963623047,       -2.3345947266,     -123.3062744141
1494035586.1481590271,       -0.6640625000,        0.5092773438,       -0.1645507812,      -84.3963623047,       -2.3345947266,     -120.6054687500
1494035586.1508500576,       -0.6640625000,        0.5092773438,       -0.1337890625,      -92.7429199219,        1.6632080078,     -120.6054687500
1494035586.1535370350,       -0.6406250000,        0.6108398438,       -0.1337890625,      -92.7429199219,        1.6632080078,     -116.6687011719
1494035586.1560881138,       -0.6406250000,        0.6108398438,       -0.1337890625,      -99.8687744141,        5.3558349609,     -116.6687011719
1494035586.1586461067,       -0.6406250000,        0.6108398438,       -0.1337890625,      -99.8687744141,        5.3558349609,     -112.7624511719
1494035586.1614100933,       -0.6406250000,        0.6738281250,       -0.1196289062,     -104.8126220703,        8.4686279297,     -110.9771728516
1494035586.1640191078,       -0.6206054688,        0.6738281250,       -0.1196289062,     -104.8126220703,        8.4686279297,     -110.9771728516
1494035586.1667249203,       -0.6206054688,        0.6738281250,       -0.1196289062,     -107.0098876953,       10.1470947266,     -106.8878173828
1494035586.1694259644,       -0.6206054688,        0.6738281250,       -0.1196289062,     -107.0098876953,       10.1470947266,     -106.8878173828
1494035586.1721210480,       -0.6191406250,        0.6821289062,       -0.1147460938,     -107.0098876953,       13.0004882812,     -104.2938232422
1494035586.1747829914,       -0.6191406250,        0.6821289062,       -0.1147460938,     -107.0098876953,       13.0004882812,     -104.2938232422
1494035586.1773440838,       -0.6191406250,        0.6821289062,       -0.1147460938,     -105.6671142578,       15.0299072266,     -100.2807617188
1494035586.1799058914,       -0.6191406250,        0.6821289062,       -0.1147460938,     -105.6671142578,       15.0299072266,     -100.2807617188
1494035586.1824669838,       -0.5996093750,        0.7226562500,       -0.1240234375,     -100.8911132812,       15.3045654297,      -95.3521728516
1494035586.1850481033,       -0.5996093750,        0.7226562500,       -0.1240234375,     -100.8911132812,       15.3045654297,      -95.3521728516
1494035586.1876130104,       -0.5996093750,        0.7226562500,       -0.1240234375,      -92.3767089844,       16.6625976562,      -89.4927978516
1494035586.1901750565,       -0.5996093750,        0.7226562500,       -0.1240234375,      -92.3767089844,       16.6625976562,      -89.4927978516
1494035586.1927359104,       -0.6376953125,        0.7202148438,       -0.1665039062,      -83.1298828125,       19.6990966797,      -83.3892822266
1494035586.1953580379,       -0.6376953125,        0.7202148438,       -0.1665039062,      -83.1298828125,       19.6990966797,      -83.3892822266
1494035586.1979219913,       -0.6376953125,        0.7202148438,       -0.1665039062,      -75.4852294922,       23.3001708984,      -77.6977539062
1494035586.2004849911,       -0.6376953125,        0.7202148438,       -0.1665039062,      -75.4852294922,       23.3001708984,      -77.6977539062
1494035586.2030439377,       -0.6606445312,        0.6455078125,       -0.1635742188,      -67.6727294922,       26.4434814453,      -73.1048583984
1494035586.2057058811,       -0.6606445312,        0.6455078125,       -0.1635742188,      -67.8710937500,       26.4434814453,      -73.1048583984
1494035586.2082769871,       -0.6606445312,        0.6455078125,       -0.1635742188,      -67.8710937500,       30.3497314453,      -68.4051513672
1494035586.2108359337,       -0.6606445312,        0.6455078125,       -0.1635742188,      -60.9130859375,       29.3273925781,      -68.4051513672
1494035586.2134830952,       -0.6699218750,        0.5864257812,       -0.1298828125,      -60.9130859375,       29.3273925781,      -64.0869140625
1494035586.2161419392,       -0.6699218750,        0.5864257812,       -0.1298828125,      -53.8482666016,       31.7382812500,      -64.0869140625
1494035586.2187049389,       -0.6699218750,        0.5864257812,       -0.1298828125,      -53.8482666016,       31.7382812500,      -60.1806640625
1494035586.2212669849,       -0.6699218750,        0.5864257812,       -0.0048828125,      -47.5463867188,       33.7677001953,      -60.2874755859
1494035586.2239151001,       -0.6669921875,        0.5341796875,       -0.0849609375,      -47.5463867188,       33.7677001953,      -60.2874755859
1494035586.2266170979,       -0.6669921875,        0.5341796875,       -0.0849609375,      -41.9006347656,       34.8815917969,      -56.7474365234
1494035586.2293210030,       -0.6669921875,        0.5341796875,       -0.0849609375,      -41.9006347656,       34.8815917969,      -56.7474365234
1494035586.2320458889,       -0.6669921875,        0.4799804688,       -0.0375976562,      -36.6058349609,       34.7137451172,      -53.5278320312
1494035586.2348699570,       -0.6420898438,        0.4799804688,       -0.0375976562,      -36.6058349609,       34.7137451172,      -49.6215820312
1494035586.2375760078,       -0.6420898438,        0.4799804688,       -0.0375976562,      -32.1197509766,       33.7219238281,      -50.0488281250
1494035586.2402729988,       -0.6420898438,        0.4799804688,       -0.0375976562,      -32.1197509766,       33.7219238281,      -46.1425781250
1494035586.2429718971,       -0.6469726562,        0.4375000000,       -0.0268554688,      -30.7922363281,       32.6690673828,      -46.7224121094
1494035586.2456369400,       -0.6469726562,        0.4375000000,       -0.0268554688,      -30.7922363281,       32.6690673828,      -46.7224121094
1494035586.2481989861,       -0.6469726562,        0.4375000000,       -0.0268554688,      -30.8074951172,       30.8990478516,      -43.4112548828
1494035586.2507669926,       -0.6469726562,        0.4375000000,       -0.0268554688,      -30.8074951172,       30.8990478516,      -43.4112548828
1494035586.2533380985,       -0.6469726562,        0.4003906250,       -0.0029296875,      -31.6467285156,       29.3273925781,      -40.2221679688
1494035586.2560000420,       -0.6469726562,        0.4003906250,       -0.0029296875,      -31.6467285156,       29.3273925781,      -40.2221679688
1494035586.2586688995,       -0.6469726562,        0.4003906250,       -0.0029296875,      -34.0423583984,       28.5797119141,      -37.0635986328
1494035586.2615280151,       -0.6469726562,        0.4003906250,       -0.0029296875,      -34.0423583984,       28.5797119141,      -37.0635986328
1494035586.2642700672,       -0.6728515625,        0.3471679688,       -0.0219726562,      -39.5355224609,       27.4047851562,      -34.3475341797
1494035586.2669720650,       -0.6728515625,        0.3471679688,       -0.0219726562,      -39.5355224609,       27.4047851562,      -34.3475341797
1494035586.2696650028,       -0.6728515625,        0.3471679688,       -0.0219726562,      -45.9442138672,       26.1383056641,      -31.4331054688
1494035586.2723751068,       -0.6728515625,        0.3159179688,       -0.0512695312,      -45.9442138672,       26.1383056641,      -31.4331054688
1494035586.2750880718,       -0.7124023438,        0.3159179688,       -0.0512695312,      -52.0172119141,       25.6500244141,      -28.6102294922
1494035586.2777891159,       -0.7124023438,        0.3159179688,       -0.0512695312,      -52.0172119141,       25.6500244141,      -28.6102294922
1494035586.2804899216,       -0.7124023438,        0.3159179688,       -0.0512695312,      -56.3812255859,       25.1770019531,      -26.3061523438
1494035586.2831981182,       -0.7587890625,        0.3110351562,       -0.0957031250,      -56.3812255859,       25.1770019531,      -26.3061523438
1494035586.2857630253,       -0.7587890625,        0.3110351562,       -0.0957031250,      -59.1583251953,       24.9176025391,      -23.1933593750
1494035586.2883279324,       -0.7587890625,        0.3110351562,       -0.0957031250,      -59.1583251953,       24.9176025391,      -23.1933593750
1494035586.2908871174,       -0.7587890625,        0.3110351562,       -0.0957031250,      -61.3555908203,       25.6500244141,      -19.9584960938
1494035586.2934980392,       -0.7905273438,        0.2709960938,       -0.1137695312,      -61.3555908203,       25.6500244141,      -19.9584960938
1494035586.2960579395,       -0.7905273438,        0.2709960938,       -0.1137695312,      -62.8662109375,       27.4810791016,      -16.9219970703
1494035586.2986268997,       -0.7905273438,        0.2709960938,       -0.1137695312,      -62.8662109375,       27.4810791016,      -16.9219970703
1494035586.3011848927,       -0.7905273438,        0.2709960938,       -0.1137695312,      -62.8662109375,       29.0832519531,      -13.8549804688
1494035586.3038411140,       -0.8071289062,        0.2128906250,       -0.0952148438,      -64.6057128906,       29.0832519531,      -13.8549804688
1494035586.3066530228,       -0.8071289062,        0.2128906250,       -0.0952148438,      -64.6057128906,       29.6936035156,      -12.3748779297
1494035586.3093280792,       -0.8071289062,        0.2128906250,       -0.0952148438,      -65.2770996094,       29.6936035156,      -12.3748779297
1494035586.3118889332,       -0.8071289062,        0.2128906250,       -0.0952148438,      -65.2770996094,       29.8614501953,      -10.7421875000
1494035586.3146181107,       -0.7939453125,        0.2026367188,       -0.0981445312,      -65.9179687500,       29.8614501953,      -10.7421875000
1494035586.3173220158,       -0.7939453125,        0.2026367188,       -0.0981445312,      -65.9179687500,       29.9682617188,       -9.4909667969
1494035586.3200199604,       -0.7939453125,        0.2026367188,       -0.0981445312,      -65.1550292969,       29.9682617188,       -9.4909667969
1494035586.3227190971,       -0.7939453125,        0.2158203125,       -0.0913085938,      -65.1550292969,       29.9224853516,       -7.9193115234
1494035586.3254179955,       -0.7709960938,        0.2158203125,       -0.0913085938,      -63.2171630859,       29.9224853516,       -7.9193115234
1494035586.3282010555,       -0.7709960938,        0.2158203125,       -0.0913085938,      -63.2171630859,       29.4647216797,       -7.4310302734
1494035586.3309929371,       -0.7709960938,        0.2158203125,       -0.0913085938,      -60.5773925781,       29.4647216797,       -7.4310302734
1494035586.3337759972,       -0.7514648438,        0.2285156250,       -0.0908203125,      -56.6711425781,       29.9987792969,       -5.9967041016
1494035586.3363480568,       -0.7514648438,        0.2285156250,       -0.0908203125,      -58.0444335938,       29.9987792969,       -5.9967041016
1494035586.3390810490,       -0.7514648438,        0.2285156250,       -0.0908203125,      -58.0444335938,       29.2510986328,       -4.5623779297
1494035586.3416540623,       -0.7514648438,        0.2285156250,       -0.0908203125,      -55.5114746094,       29.2510986328,       -4.5623779297
1494035586.3446190357,       -0.7207031250,        0.2480468750,       -0.0893554688,      -55.5114746094,       27.9541015625,       -3.6773681641
1494035586.3471789360,       -0.7207031250,        0.2480468750,       -0.0893554688,      -51.9409179688,       27.9541015625,       -3.6773681641
1494035586.3497440815,       -0.7207031250,        0.2480468750,       -0.0893554688,      -51.9409179688,       24.0478515625,       -3.4942626953
1494035586.3522970676,       -0.7207031250,        0.2480468750,       -0.0893554688,      -47.6074218750,       26.5502929688,       -3.4942626953
1494035586.3548650742,       -0.7353515625,        0.2695312500,       -0.0771484375,      -47.6074218750,       26.5502929688,       -3.4942626953
1494035586.3574240208,       -0.7353515625,        0.2695312500,       -0.0771484375,      -43.7622070312,       24.9786376953,       -2.7313232422
1494035586.3599779606,       -0.7353515625,        0.2695312500,       -0.0771484375,      -43.7622070312,       24.9786376953,       -2.7313232422
1494035586.3626799583,       -0.7353515625,        0.2695312500,       -0.0483398438,      -39.2913818359,       22.9187011719,       -2.3803710938
1494035586.3652451038,       -0.7255859375,        0.2832031250,       -0.0483398438,      -39.2913818359,       22.9187011719,       -2.3803710938
1494035586.3677999973,       -0.7255859375,        0.2832031250,       -0.0483398438,      -34.6527099609,       20.4925537109,       -1.6479492188
1494035586.3703620434,       -0.7255859375,        0.2832031250,       -0.0483398438,      -34.6527099609,       20.4925537109,       -1.6479492188
1494035586.3729209900,       -0.7255859375,        0.2832031250,       -0.0385742188,      -30.0140380859,       17.7612304688,       -1.0681152344
1494035586.3755099773,       -0.7333984375,        0.2714843750,       -0.0385742188,      -30.0140380859,       17.7612304688,       -1.0681152344
1494035586.3780710697,       -0.7333984375,        0.2714843750,       -0.0385742188,      -25.5126953125,       15.1519775391,       -0.5035400391
1494035586.3807408810,       -0.7333984375,        0.2714843750,       -0.0385742188,      -25.5126953125,       15.1519775391,       -0.5035400391
1494035586.3833870888,       -0.7333984375,        0.2470703125,       -0.0307617188,      -20.6146240234,       12.6647949219,       -0.0305175781
1494035586.3859610558,       -0.7573242188,        0.2470703125,       -0.0307617188,      -20.6146240234,       12.6647949219,       -0.0305175781
1494035586.3885190487,       -0.7573242188,        0.2470703125,       -0.0307617188,      -15.3198242188,       10.2539062500,        0.4272460938
1494035586.3910830021,       -0.7573242188,        0.2470703125,       -0.0307617188,      -15.3198242188,       10.2539062500,        0.4272460938
1494035586.3938040733,       -0.7636718750,        0.2031250000,       -0.0576171875,       -9.5825195312,        7.7819824219,        1.0681152344
1494035586.3963530064,       -0.7636718750,        0.2031250000,       -0.0576171875,       -9.5825195312,        7.7819824219,        1.0681152344
1494035586.3989000320,       -0.7636718750,        0.2031250000,       -0.0576171875,       -9.5825195312,        7.7819824219,        1.9836425781
1494035586.4014430046,       -0.7636718750,        0.2031250000,       -0.0576171875,       -4.8980712891,        5.6915283203,        1.9836425781
1494035586.4041800499,       -0.7788085938,        0.1684570312,       -0.0668945312,       -4.8980712891,        1.7852783203,        3.0059814453
1494035586.4068698883,       -0.7788085938,        0.1684570312,       -0.0668945312,       -1.5411376953,        3.8452148438,        3.0059814453
1494035586.4095571041,       -0.7788085938,        0.1684570312,       -0.0668945312,       -1.5411376953,        3.8452148438,        4.9743652344
1494035586.4122478962,       -0.7788085938,        0.1684570312,       -0.0668945312,        1.4495849609,        1.3122558594,        4.9743652344
1494035586.4149429798,       -0.7836914062,        0.1362304688,       -0.0732421875,        1.4495849609,        1.3122558594,        6.9580078125
1494035586.4176340103,       -0.7836914062,        0.1362304688,       -0.0732421875,        5.7678222656,       -0.7629394531,        6.9580078125
1494035586.4203200340,       -0.7836914062,        0.1362304688,       -0.0732421875,        5.7678222656,       -0.7629394531,        8.5754394531
1494035586.4230079651,       -0.7836914062,        0.1362304688,       -0.0732421875,        8.1176757812,       -1.8157958984,        8.5754394531
1494035586.4257090092,       -0.7846679688,        0.0981445312,       -0.0820312500,        8.1176757812,       -1.8157958984,       10.6506347656
1494035586.4283969402,       -0.7846679688,        0.0981445312,       -0.0820312500,        9.1705322266,       -1.5716552734,       10.6506347656
1494035586.4310910702,       -0.7846679688,        0.0981445312,       -0.0820312500,        9.1705322266,       -1.5716552734,       12.1154785156
1494035586.4337630272,       -0.7846679688,        0.0712890625,       -0.0561523438,        8.3312988281,       -3.1127929688,       12.1154785156
1494035586.4363119602,       -0.7788085938,        0.0712890625,       -0.0561523438,        8.3312988281,       -3.1127929688,       12.1154785156
1494035586.4388699532,       -0.7788085938,        0.0712890625,       -0.0561523438,        7.6293945312,       -4.8828125000,       13.5345458984
1494035586.4414210320,       -0.7788085938,        0.0712890625,       -0.0561523438,        7.6293945312,       -4.8828125000,       13.5345458984
1494035586.4440650940,       -0.7788085938,        0.1069335938,       -0.0351562500,        8.9721679688,       -5.5389404297,       15.0909423828
1494035586.4467470646,       -0.7958984375,        0.1069335938,       -0.0351562500,        8.9721679688,       -5.5389404297,       15.0909423828
1494035586.4494240284,       -0.7958984375,        0.1069335938,       -0.0351562500,       12.6953125000,       -5.9204101562,       16.7541503906
1494035586.4521059990,       -0.7958984375,        0.1069335938,       -0.0351562500,       12.6953125000,       -5.9204101562,       16.7541503906
1494035586.4549040794,       -0.7968750000,        0.1635742188,       -0.0585937500,       16.4489746094,       -6.8969726562,       18.1121826172
1494035586.4575610161,       -0.7968750000,        0.1635742188,       -0.0585937500,       16.4489746094,       -6.8969726562,       18.1121826172
1494035586.4604890347,       -0.7968750000,        0.1635742188,       -0.0585937500,       19.6990966797,       -7.8430175781,       19.7753906250
1494035586.4635870457,       -0.7968750000,        0.1635742188,        0.0800781250,       19.6990966797,       -7.8430175781,       19.7753906250
1494035586.4662981033,       -0.8110351562,        0.5224609375,        0.0800781250,       16.4184570312,      -12.6037597656,       20.1263427734
1494035586.4690020084,       -0.8110351562,        0.5224609375,        0.0800781250,       16.4184570312,      -12.6037597656,       16.2200927734
1494035586.4717059135,       -0.8110351562,        0.5224609375,        0.0800781250,       19.3786621094,      -33.9355468750,       16.3269042969
1494035586.4743609428,       -1.0610351562,        1.2104492188,        0.5273437500,       19.3786621094,      -33.9355468750,       16.3269042969
1494035586.4769220352,       -1.0185546875,        1.2104492188,        0.5273437500,        7.8125000000,      -20.8892822266,       28.7933349609
1494035586.4794740677,       -1.0185546875,        1.2104492188,        0.5273437500,        7.8125000000,      -20.8892822266,       28.7933349609
1494035586.4820349216,       -1.0185546875,        1.2104492188,        0.5273437500,      -14.5416259766,       25.6500244141,       48.4619140625
1494035586.4847149849,       -0.9404296875,        0.1748046875,        0.0830078125,      -14.5416259766,       25.6500244141,       48.4619140625
1494035586.4874269962,       -0.9404296875,        0.1748046875,        0.0830078125,      -19.8822021484,       28.9764404297,       46.2951660156
1494035586.4901289940,       -0.9404296875,        0.1748046875,        0.0830078125,      -19.8822021484,       28.9764404297,       46.2951660156
1494035586.4928219318,       -0.9404296875,        0.1748046875,        0.0830078125,      -12.0086669922,        3.5552978516,       46.1425781250
1494035586.4954230785,       -0.5668945312,        0.4521484375,        0.1889648438,      -12.0086669922,        3.5552978516,       46.1425781250
1494035586.4979801178,       -0.5668945312,        0.4521484375,        0.1889648438,       -1.9836425781,       -5.9356689453,       66.7877197266
1494035586.5005390644,       -0.5668945312,        0.4521484375,        0.1889648438,       -1.9836425781,       -5.9356689453,       66.7877197266
1494035586.5030939579,       -0.5668945312,        0.4521484375,        0.1889648438,       10.7574462891,        4.4097900391,       86.1206054688
1494035586.5056550503,       -1.1430664062,       -0.1289062500,        0.0507812500,       10.7574462891,        4.4097900391,       86.1206054688
1494035586.5082159042,       -1.1430664062,       -0.1289062500,        0.0507812500,       33.8745117188,        7.0343017578,       71.8383789062
1494035586.5107710361,       -1.1430664062,       -0.1289062500,        0.0507812500,       33.8745117188,        7.0343017578,       71.8383789062
1494035586.5134038925,       -1.1430664062,       -0.1289062500,        0.0507812500,       53.4057617188,       -8.8348388672,       45.7611083984
1494035586.5159780979,       -1.0693359375,       -0.5493164062,        0.0097656250,       53.9398193359,       -8.8348388672,       45.7611083984
1494035586.5185420513,       -1.0693359375,       -0.5493164062,        0.0097656250,       53.9398193359,      -12.7410888672,       36.3769531250
1494035586.5211060047,       -1.0693359375,       -0.5493164062,        0.0097656250,       48.0346679688,      -13.3972167969,       36.3769531250
1494035586.5237939358,       -1.0693359375,       -0.5493164062,        0.0097656250,       48.0346679688,      -13.3972167969,       34.5611572266
1494035586.5263509750,       -1.0517578125,       -0.6230468750,       -0.0283203125,       33.2946777344,      -10.4827880859,       34.5611572266
1494035586.5290238857,       -1.0517578125,       -0.6230468750,       -0.0283203125,       33.2946777344,      -10.4827880859,       34.5611572266
1494035586.5315868855,       -1.0517578125,       -0.6230468750,       -0.0283203125,       20.2026367188,      -13.3819580078,       33.5998535156
1494035586.5342099667,       -1.0517578125,       -0.6230468750,        0.1240234375,       20.2026367188,      -13.3819580078,       37.5061035156
1494035586.5368990898,       -0.9301757812,        0.0346679688,        0.1240234375,       12.2833251953,      -16.0675048828,       35.5377197266
1494035586.5395810604,       -0.9301757812,        0.0346679688,        0.1240234375,       12.2833251953,      -16.0675048828,       35.5377197266
1494035586.5422630310,       -0.9301757812,        0.0346679688,        0.1240234375,       10.3759765625,      -16.1590576172,       39.0319824219
1494035586.5449659824,       -1.0551757812,        0.3896484375,        0.0571289062,       10.3759765625,      -16.1590576172,       39.0319824219
1494035586.5476489067,       -1.0688476562,        0.3896484375,        0.0571289062,       11.5814208984,      -13.2904052734,       41.3208007812
1494035586.5503380299,       -1.0688476562,        0.3896484375,        0.0571289062,       11.5814208984,      -13.2904052734,       41.3208007812
1494035586.5530200005,       -1.0688476562,        0.3896484375,        0.0571289062,       12.0086669922,      -12.0697021484,       42.9077148438
1494035586.5555970669,       -1.0361328125,        0.2216796875,       -0.1469726562,       12.0086669922,      -12.0697021484,       42.9077148438
1494035586.5581560135,       -1.0361328125,        0.2216796875,       -0.1469726562,       13.6413574219,      -13.2141113281,       44.3115234375
1494035586.5607540607,       -1.0361328125,        0.2216796875,       -0.1469726562,       13.6413574219,      -13.2141113281,       44.3115234375
1494035586.5633800030,       -1.0361328125,        0.2216796875,       -0.1469726562,       10.5743408203,      -15.4266357422,       43.7164306641
1494035586.5659630299,       -0.9047851562,       -0.0024414062,       -0.3125000000,       10.5743408203,      -15.4266357422,       43.7164306641
1494035586.5685238838,       -0.9047851562,       -0.0024414062,       -0.3125000000,        3.5095214844,      -15.8386230469,       43.1671142578
1494035586.5710799694,       -0.9047851562,       -0.0024414062,       -0.3125000000,        3.5095214844,      -15.8386230469,       43.1671142578
1494035586.5736939907,       -0.9047851562,       -0.0024414062,       -0.3125000000,       -4.3792724609,      -16.0827636719,       43.2434082031
1494035586.5762510300,       -0.7456054688,        0.1645507812,       -0.3925781250,       -4.3792724609,      -16.0827636719,       43.2434082031
1494035586.5788090229,       -0.7456054688,        0.1645507812,       -0.3925781250,       -4.2114257812,      -15.6097412109,       40.6951904297
1494035586.5816040039,       -0.7456054688,        0.1645507812,       -0.3925781250,       -4.2114257812,      -15.6097412109,       40.6951904297
1494035586.5846838951,       -0.7456054688,        0.1645507812,       -0.4951171875,        0.2136230469,      -11.8713378906,       38.9404296875
1494035586.5873830318,       -0.8281250000,        0.2319335938,       -0.4951171875,        0.2136230469,      -11.8713378906,       38.9404296875
1494035586.5900828838,       -0.8281250000,        0.2319335938,       -0.4951171875,        0.7019042969,      -11.1083984375,       39.1387939453
1494035586.5927898884,       -0.8281250000,        0.2319335938,       -0.4951171875,        0.7019042969,      -11.1083984375,       39.1387939453
1494035586.5955009460,       -0.9531250000,        0.1201171875,       -0.2988281250,       -4.4555664062,      -13.6260986328,       36.6058349609
1494035586.5982038975,       -0.8857421875,        0.1201171875,       -0.2988281250,       -4.4555664062,      -13.6260986328,       36.6058349609
1494035586.6010160446,       -0.8857421875,        0.1201171875,       -0.2988281250,      -14.1906738281,      -14.7705078125,       34.0576171875
1494035586.6037309170,       -0.8857421875,        0.1201171875,       -0.2988281250,      -14.1906738281,      -14.7705078125,       34.0576171875
1494035586.6064369678,       -0.9340820312,        0.0712890625,       -0.1206054688,      -25.9399414062,      -16.8304443359,       30.8532714844
1494035586.6091430187,       -0.9340820312,        0.0712890625,       -0.1206054688,      -25.9399414062,      -16.8304443359,       30.8532714844
1494035586.6118450165,       -0.9340820312,        0.0712890625,       -0.1206054688,      -35.5529785156,      -19.5922851562,       30.1666259766
1494035586.6145009995,       -0.9340820312,        0.0712890625,       -0.1206054688,      -35.5529785156,      -19.5922851562,       30.1666259766
1494035586.6170599461,       -0.8242187500,        0.1909179688,       -0.0874023438,      -40.4663085938,      -22.6440429688,       30.8837890625
1494035586.6196229458,       -0.8242187500,        0.1909179688,       -0.0874023438,      -40.4663085938,      -22.6440429688,       30.8837890625
1494035586.6221940517,       -0.8242187500,        0.1909179688,       -0.0874023438,      -36.5600585938,      -23.8800048828,       30.6854248047
1494035586.6248099804,       -0.8242187500,        0.1909179688,       -0.0874023438,      -38.6657714844,      -23.8800048828,       30.6854248047
1494035586.6273779869,       -0.7558593750,        0.3144531250,       -0.0468750000,      -38.6657714844,      -23.8800048828,       28.0303955078
1494035586.6299369335,       -0.7558593750,        0.3144531250,       -0.0468750000,      -33.4625244141,      -24.5971679688,       28.0303955078
1494035586.6324980259,       -0.7558593750,        0.3144531250,       -0.0468750000,      -33.4625244141,      -24.5971679688,       24.5819091797
1494035586.6351680756,       -0.7558593750,        0.3144531250,        0.0068359375,      -24.7802734375,      -26.0162353516,       24.5819091797
1494035586.6377289295,       -0.6738281250,        0.2968750000,        0.0068359375,      -24.7802734375,      -26.0162353516,       24.5819091797
1494035586.6402840614,       -0.6738281250,        0.2968750000,        0.0068359375,      -15.7318115234,      -26.3519287109,       20.6604003906
1494035586.6428439617,       -0.6738281250,        0.2968750000,        0.0068359375,      -15.7318115234,      -26.3519287109,       20.6604003906
1494035586.6456260681,       -0.6738281250,        0.2607421875,        0.0405273438,       -9.9182128906,      -26.6876220703,       16.9219970703
1494035586.6483299732,       -0.7021484375,        0.2607421875,        0.0405273438,       -9.9182128906,      -26.6876220703,       16.9219970703
1494035586.6510300636,       -0.7021484375,        0.2607421875,        0.0405273438,       -6.5002441406,      -26.3214111328,       15.0299072266
1494035586.6537380219,       -0.7021484375,        0.2607421875,        0.0405273438,       -6.5002441406,      -26.3214111328,       15.0299072266
1494035586.6564431190,       -0.7387695312,        0.2416992188,        0.0322265625,       -3.0822753906,      -25.4974365234,       13.8397216797
1494035586.6591370106,       -0.7387695312,        0.2416992188,        0.0322265625,       -3.0822753906,      -25.4974365234,       13.8397216797
1494035586.6618340015,       -0.7387695312,        0.2416992188,        0.0322265625,       -0.7934570312,      -23.9562988281,       12.2528076172
1494035586.6645491123,       -0.7387695312,        0.2416992188,        0.0322265625,       -0.7934570312,      -23.9562988281,       12.2528076172
1494035586.6672389507,       -0.7446289062,        0.2172851562,        0.0234375000,       -0.0610351562,      -22.6593017578,       10.7727050781
1494035586.6699430943,       -0.7446289062,        0.2172851562,        0.0234375000,       -0.0610351562,      -22.6593017578,       10.7727050781
1494035586.6726360321,       -0.7446289062,        0.2172851562,        0.0234375000,       -1.7395019531,      -20.2636718750,       10.2233886719
1494035586.6753420830,       -0.7446289062,        0.2172851562,       -0.1015625000,       -1.7395019531,      -20.2636718750,       10.2233886719
1494035586.6779029369,       -0.7763671875,        0.1704101562,       -0.0410156250,       -8.2702636719,      -14.0686035156,       11.3220214844
1494035586.6804618835,       -0.7763671875,        0.1704101562,       -0.0410156250,       -8.2702636719,      -14.0686035156,       11.3220214844
1494035586.6830201149,       -0.7763671875,        0.1704101562,       -0.0410156250,      -16.6625976562,       -6.3476562500,       12.3748779297
1494035586.6857950687,       -0.7763671875,        0.1704101562,        0.0332031250,      -16.6625976562,       -6.3476562500,       12.3748779297
1494035586.6884961128,       -0.7666015625,        0.1494140625,        0.0332031250,      -20.4925537109,       -3.6621093750,       13.1988525391
1494035586.6911959648,       -0.7666015625,        0.1494140625,        0.0332031250,      -20.4925537109,       -3.6621093750,       13.1988525391
1494035586.6939020157,       -0.7666015625,        0.1494140625,        0.0332031250,      -19.2108154297,       -4.6386718750,       14.5263671875
1494035586.6966049671,       -0.7226562500,        0.1713867188,        0.0395507812,      -19.2108154297,       -4.6386718750,       14.5263671875
1494035586.6993789673,       -0.7226562500,        0.1713867188,        0.0395507812,      -12.6037597656,       -6.5612792969,       15.2740478516
1494035586.7021939754,       -0.7226562500,        0.1713867188,        0.0395507812,      -12.6037597656,       -6.5612792969,       15.2740478516
1494035586.7052268982,       -0.7226562500,        0.1713867188,        0.0395507812,       -6.3171386719,       -7.9956054688,       16.5710449219
1494035586.7079200745,       -0.7651367188,        0.1577148438,       -0.0122070312,       -6.3171386719,       -7.9956054688,       16.5710449219
1494035586.7106130123,       -0.7651367188,        0.1577148438,       -0.0122070312,       -5.0506591797,      -10.0555419922,       17.9748535156
1494035586.7133269310,       -0.7651367188,        0.1577148438,       -0.0122070312,       -5.0506591797,      -10.0555419922,       17.9748535156
1494035586.7160270214,       -0.7651367188,        0.0327148438,       -0.0644531250,       -6.2408447266,      -11.7187500000,       19.0124511719
1494035586.7187280655,       -0.8017578125,        0.1225585938,       -0.0644531250,       -6.2408447266,      -11.7187500000,       19.0124511719
1494035586.7214341164,       -0.8017578125,        0.1225585938,       -0.0644531250,       -7.2326660156,      -11.7645263672,       20.5841064453
1494035586.7241060734,       -0.8017578125,        0.1225585938,       -0.0644531250,       -7.2326660156,      -11.7645263672,       20.5841064453
1494035586.7266700268,       -0.8017578125,        0.2119140625,       -0.0556640625,       -7.9803466797,      -12.5122070312,       22.0794677734
1494035586.7292280197,       -0.7524414062,        0.2119140625,       -0.0556640625,       -7.9803466797,      -12.5122070312,       22.0794677734
1494035586.7317860126,       -0.7524414062,        0.2119140625,       -0.0556640625,       -7.3547363281,      -13.1378173828,       23.1475830078
1494035586.7343580723,       -0.7524414062,        0.2119140625,       -0.0556640625,       -7.3547363281,      -13.1378173828,       23.1475830078
1494035586.7369189262,       -0.7216796875,        0.2329101562,       -0.0351562500,       -6.4392089844,      -14.1296386719,       23.7274169922
1494035586.7394731045,       -0.7216796875,        0.2329101562,       -0.0351562500,       -6.4392089844,      -14.1296386719,       23.7274169922
1494035586.7420330048,       -0.7216796875,        0.2329101562,       -0.0351562500,       -6.4392089844,      -15.0604248047,       24.1546630859
1494035586.7446379662,       -0.7216796875,        0.2329101562,       -0.0351562500,       -5.2337646484,      -15.0604248047,       24.1546630859
1494035586.7472040653,       -0.7124023438,        0.2133789062,       -0.0205078125,       -5.2337646484,      -18.9666748047,       24.2767333984
1494035586.7498779297,       -0.7124023438,        0.2133789062,       -0.0205078125,       -4.6844482422,      -15.7775878906,       24.2767333984
1494035586.7524380684,       -0.7124023438,        0.2133789062,       -0.0205078125,       -4.6844482422,      -11.8713378906,       25.4516601562
1494035586.7551391125,       -0.7124023438,        0.2133789062,       -0.0205078125,       -4.0130615234,      -15.4724121094,       25.4516601562
1494035586.7576940060,       -0.7167968750,        0.2231445312,       -0.0161132812,       -4.0130615234,      -15.4724121094,       26.6113281250
1494035586.7602519989,       -0.7167968750,        0.2231445312,       -0.0161132812,       -3.8909912109,      -15.5792236328,       26.6113281250
1494035586.7628099918,       -0.7167968750,        0.2231445312,       -0.0161132812,       -3.8909912109,      -15.5792236328,       26.6113281250
1494035586.7656190395,       -0.7167968750,        0.2231445312,       -0.0161132812,       -3.2501220703,      -15.1367187500,       26.9775390625
1494035586.7683200836,       -0.7202148438,        0.2285156250,       -0.0004882812,       -3.2501220703,      -15.1367187500,       30.8837890625
1494035586.7710149288,       -0.7202148438,        0.2285156250,       -0.0004882812,       -2.5634765625,      -14.4805908203,       27.6336669922
1494035586.7737050056,       -0.7202148438,        0.2285156250,       -0.0004882812,       -2.5634765625,      -14.4805908203,       27.6336669922
1494035586.7762629986,       -0.7202148438,        0.2285156250,        0.1245117188,       -2.5482177734,      -13.6566162109,       28.5644531250
1494035586.7788159847,       -0.7045898438,        0.2285156250,        0.0234375000,       -2.5482177734,      -13.6566162109,       28.5644531250
1494035586.7813680172,       -0.7045898438,        0.2285156250,        0.0234375000,       -1.5411376953,      -13.9770507812,       28.5644531250
1494035586.7839899063,       -0.7045898438,        0.2285156250,        0.0234375000,       -1.5411376953,      -13.9770507812,       28.5644531250
1494035586.7866830826,       -0.7045898438,        0.2285156250,        0.0146484375,       -0.9307861328,      -14.3890380859,       28.7780761719
1494035586.7893829346,       -0.7036132812,        0.2260742188,        0.0146484375,       -0.9307861328,      -14.3890380859,       28.7780761719
1494035586.7920789719,       -0.7036132812,        0.2260742188,        0.0146484375,       -0.1373291016,      -14.7705078125,       29.6783447266
1494035586.7947878838,       -0.7036132812,        0.2260742188,        0.0146484375,       -0.1373291016,      -14.7705078125,       29.6783447266
1494035586.7974801064,       -0.7343750000,        0.2456054688,        0.0063476562,        0.7324218750,      -13.9312744141,       30.5938720703
1494035586.8001809120,       -0.7343750000,        0.2456054688,        0.0063476562,        0.7324218750,      -13.9312744141,       30.5938720703
1494035586.8028769493,       -0.7343750000,        0.2456054688,        0.0063476562,        2.2430419922,      -13.0157470703,       30.7922363281
1494035586.8055930138,       -0.7343750000,        0.2456054688,        0.0063476562,        2.2430419922,      -13.0157470703,       30.7922363281
1494035586.8082880974,       -0.7431640625,        0.2094726562,        0.0014648438,        3.1738281250,      -13.2751464844,       31.8908691406
1494035586.8109860420,       -0.7431640625,        0.2094726562,        0.0014648438,        3.1738281250,      -13.2751464844,       31.8908691406
1494035586.8136920929,       -0.7431640625,        0.2094726562,        0.0014648438,        3.1585693359,      -13.1683349609,       32.2418212891
1494035586.8163878918,       -0.7431640625,        0.2094726562,        0.0014648438,        3.1585693359,      -13.1683349609,       32.2418212891
1494035586.8190839291,       -0.7568359375,        0.1689453125,       -0.0317382812,        1.4038085938,      -11.5814208984,       33.3404541016
1494035586.8221189976,       -0.7568359375,        0.1689453125,       -0.0317382812,        1.4038085938,      -11.5814208984,       33.3404541016
1494035586.8250288963,       -0.7568359375,        0.1689453125,       -0.0317382812,       -2.5024414062,       -9.5367431641,       35.7818603516
1494035586.8275849819,       -0.7568359375,        0.1420898438,       -0.0527343750,       -2.5024414062,       -9.5367431641,       35.7818603516
1494035586.8301429749,       -0.7885742188,        0.1420898438,       -0.0527343750,       -7.4462890625,       -6.9122314453,       37.3229980469
1494035586.8327031136,       -0.7885742188,        0.1420898438,       -0.0527343750,       -7.4462890625,       -6.9122314453,       37.3229980469
1494035586.8353850842,       -0.7885742188,        0.1420898438,       -0.0527343750,      -12.8631591797,       -4.1046142578,       39.0167236328
1494035586.8380799294,       -0.7524414062,        0.1748046875,        0.0063476562,      -12.8631591797,       -4.1046142578,       39.0167236328
1494035586.8407890797,       -0.7524414062,        0.1748046875,        0.0063476562,      -16.5252685547,       -1.7547607422,       40.6341552734
1494035586.8434998989,       -0.7524414062,        0.1748046875,        0.0063476562,      -16.5252685547,       -1.7547607422,       40.6341552734
1494035586.8462059498,       -0.7524414062,        0.1748046875,        0.0063476562,      -19.1650390625,       -1.2207031250,       41.2139892578
1494035586.8489060402,       -0.6743164062,        0.2641601562,        0.0400390625,      -19.1650390625,       -1.2207031250,       41.2139892578
1494035586.8516008854,       -0.6743164062,        0.2641601562,        0.0400390625,      -18.8446044922,       -1.4648437500,       40.9851074219
1494035586.8542659283,       -0.6743164062,        0.2641601562,        0.0400390625,      -18.8446044922,       -1.4648437500,       40.9851074219
1494035586.8568229675,       -0.6743164062,        0.2641601562,        0.0400390625,      -17.1203613281,       -0.8697509766,       40.1153564453
1494035586.8593809605,       -0.6572265625,        0.3125000000,        0.0405273438,      -17.1203613281,       -0.8697509766,       40.1153564453
1494035586.8619420528,       -0.6572265625,        0.3125000000,        0.0405273438,      -15.2587890625,       -1.1444091797,       38.3758544922
1494035586.8645069599,       -0.6572265625,        0.3125000000,        0.0405273438,      -15.2587890625,       -1.1444091797,       38.3758544922
1494035586.8670649529,       -0.6572265625,        0.3125000000,        0.0405273438,      -15.2587890625,       -1.7395019531,       36.8041992188
1494035586.8696210384,       -0.6347656250,        0.3413085938,        0.0292968750,      -12.6953125000,       -1.7395019531,       36.8041992188
1494035586.8721780777,       -0.6347656250,        0.3413085938,        0.0292968750,      -12.6953125000,       -1.7395019531,       34.9121093750
1494035586.8749110699,       -0.6347656250,        0.3413085938,        0.0292968750,      -10.1470947266,       -2.3498535156,       34.9121093750
1494035586.8774700165,       -0.6347656250,        0.3413085938,        0.0209960938,      -10.1470947266,       -2.3498535156,       33.4014892578
1494035586.8800280094,       -0.6684570312,        0.3466796875,        0.0209960938,       -7.4768066406,       -3.0364990234,       33.4014892578
1494035586.8825840950,       -0.6684570312,        0.3466796875,        0.0209960938,       -7.4768066406,       -3.0364990234,       33.4014892578
1494035586.8853991032,       -0.6684570312,        0.3466796875,        0.0209960938,       -5.3863525391,       -3.9062500000,       32.1197509766
1494035586.8880960941,       -0.6684570312,        0.3017578125,       -0.0092773438,       -5.3863525391,       -3.9062500000,       32.1197509766
1494035586.8907940388,       -0.6845703125,        0.3017578125,       -0.0092773438,       -4.1503906250,       -4.4097900391,       31.6619873047
1494035586.8934969902,       -0.6845703125,        0.3017578125,       -0.0092773438,       -4.1503906250,       -4.4097900391,       31.6619873047
1494035586.8963060379,       -0.6845703125,        0.3017578125,       -0.0092773438,       -3.4637451172,       -5.2947998047,       32.1655273438
1494035586.8990039825,       -0.7050781250,        0.2822265625,       -0.0253906250,       -3.4637451172,       -5.2947998047,       32.1655273438
1494035586.9016919136,       -0.7050781250,        0.2822265625,       -0.0253906250,       -3.6926269531,       -6.2255859375,       32.6843261719
1494035586.9043910503,       -0.7050781250,        0.2822265625,       -0.0253906250,       -3.6926269531,       -6.2255859375,       32.6843261719
1494035586.9070789814,       -0.7050781250,        0.2822265625,       -0.0253906250,       -2.8839111328,       -6.6833496094,       33.1726074219
1494035586.9097700119,       -0.7548828125,        0.2607421875,       -0.0405273438,       -2.8839111328,       -6.6833496094,       33.1726074219
1494035586.9124579430,       -0.7548828125,        0.2607421875,       -0.0405273438,       -1.7089843750,       -7.5378417969,       34.1796875000
1494035586.9151659012,       -0.7548828125,        0.2607421875,       -0.0405273438,       -1.7089843750,       -7.5378417969,       34.1796875000
1494035586.9178619385,       -0.7548828125,        0.1357421875,       -0.0273437500,       -2.8228759766,       -7.0037841797,       35.9039306641
1494035586.9205520153,       -0.7558593750,        0.2128906250,       -0.0273437500,       -2.8228759766,       -7.0037841797,       35.9039306641
1494035586.9232580662,       -0.7558593750,        0.2128906250,       -0.0273437500,       -4.2877197266,       -8.7127685547,       36.4685058594
1494035586.9258179665,       -0.7558593750,        0.2128906250,       -0.0273437500,       -4.2877197266,       -8.7127685547,       36.4685058594
1494035586.9283680916,       -0.7558593750,        0.1801757812,       -0.0297851562,       -6.8817138672,       -9.9945068359,       37.8875732422
1494035586.9309229851,       -0.7558593750,        0.1801757812,       -0.0297851562,       -6.8817138672,       -9.9945068359,       37.8875732422
1494035586.9334919453,       -0.7558593750,        0.1801757812,       -0.0297851562,       -8.5601806641,      -11.4440917969,       39.5050048828
1494035586.9360470772,       -0.7558593750,        0.1801757812,       -0.0297851562,       -8.5601806641,      -11.4440917969,       39.5050048828
1494035586.9386069775,       -0.6308593750,        0.2700195312,       -0.0048828125,       -7.2937011719,      -11.3220214844,       41.3513183594
1494035586.9412889481,       -0.7241210938,        0.2700195312,       -0.0048828125,       -7.2937011719,      -11.3220214844,       41.3513183594
1494035586.9441530704,       -0.7241210938,        0.2700195312,       -0.0048828125,       -6.1492919922,       -8.9416503906,       44.6929931641
1494035586.9468419552,       -0.7241210938,        0.2700195312,       -0.0048828125,       -6.1492919922,       -8.9416503906,       44.6929931641
1494035586.9495260715,       -0.6967773438,        0.3378906250,        0.0034179688,       -6.7138671875,      -11.7492675781,       46.6918945312
1494035586.9522309303,       -0.6967773438,        0.3378906250,        0.0034179688,       -6.7138671875,      -11.7492675781,       46.6918945312
1494035586.9549369812,       -0.6967773438,        0.3378906250,        0.0034179688,       -3.3416748047,      -13.0615234375,       46.0510253906
1494035586.9576449394,       -0.6967773438,        0.3378906250,        0.0034179688,       -3.3416748047,      -13.0615234375,       46.0510253906
1494035586.9603409767,       -0.6704101562,        0.3759765625,        0.0229492188,       -1.6174316406,      -13.0157470703,       45.8221435547
1494035586.9630410671,       -0.6704101562,        0.3759765625,        0.0229492188,       -1.6174316406,      -13.0157470703,       45.8221435547
1494035586.9657509327,       -0.6704101562,        0.3759765625,        0.0229492188,       -1.6784667969,      -12.1154785156,       45.3643798828
1494035586.9684460163,       -0.6704101562,        0.3632812500,        0.0166015625,       -1.6784667969,      -12.1154785156,       45.3643798828
1494035586.9712469578,       -0.6557617188,        0.3632812500,        0.0166015625,        0.1373291016,      -12.5885009766,       44.3572998047
1494035586.9739320278,       -0.6557617188,        0.3632812500,        0.0166015625,        0.1373291016,      -12.5885009766,       44.3572998047
1494035586.9764909744,       -0.6557617188,        0.3632812500,        0.0166015625,        0.0457763672,      -12.5579833984,       43.8690185547
1494035586.9790511131,       -0.6596679688,        0.3105468750,        0.0229492188,        0.0457763672,      -12.5579833984,       43.8690185547
1494035586.9816069603,       -0.6596679688,        0.3105468750,        0.0229492188,       -3.8604736328,      -10.8642578125,       43.1976318359
1494035586.9842309952,       -0.6596679688,        0.3105468750,        0.0229492188,       -1.4038085938,      -10.8642578125,       43.1976318359
1494035586.9867930412,       -0.6596679688,        0.3105468750,        0.0229492188,       -1.4038085938,      -10.8642578125,       43.4570312500
1494035586.9893500805,       -0.6616210938,        0.3422851562,        0.0444335938,       -2.5329589844,      -10.1776123047,       43.4570312500
1494035586.9919059277,       -0.6616210938,        0.3422851562,        0.0444335938,       -2.5329589844,      -10.1776123047,       44.1284179688
1494035586.9945940971,       -0.6616210938,        0.3422851562,        0.0444335938,       -2.6550292969,       -9.2315673828,       44.1284179688
1494035586.9971508980,       -0.6616210938,        0.3422851562,        0.0444335938,       -2.6550292969,       -9.2315673828,       44.1284179688
1494035586.9997088909,       -0.6660156250,        0.3388671875,        0.0371093750,       -2.8839111328,       -9.3536376953,       44.6624755859
1494035587.0022640228,       -0.6660156250,        0.3388671875,        0.0371093750,       -2.8839111328,       -9.3536376953,       44.6624755859
1494035587.0050129890,       -0.6660156250,        0.3388671875,        0.0371093750,       -2.3651123047,       -8.8958740234,       45.4864501953
1494035587.0077099800,       -0.6660156250,        0.3388671875,        0.0371093750,       -2.3651123047,       -8.8958740234,       45.4864501953
1494035587.0104079247,       -0.6547851562,        0.3413085938,        0.0219726562,       -1.3885498047,       -9.7351074219,       46.1883544922
1494035587.0131049156,       -0.6547851562,        0.3413085938,        0.0219726562,       -1.3885498047,       -9.7351074219,       46.1883544922
1494035587.0158081055,       -0.6547851562,        0.3413085938,        0.0219726562,       -0.5493164062,       -9.9487304688,       46.9970703125
1494035587.0185060501,       -0.6547851562,        0.3413085938,        0.0175781250,       -0.5493164062,       -9.9487304688,       46.9970703125
1494035587.0212030411,       -0.6513671875,        0.3632812500,        0.0175781250,        0.5340576172,      -10.4980468750,       48.0957031250
1494035587.0239160061,       -0.6513671875,        0.3632812500,        0.0175781250,        0.5340576172,      -10.4980468750,       48.0957031250
1494035587.0266149044,       -0.6513671875,        0.3632812500,        0.0175781250,        1.4343261719,      -11.0168457031,       49.4384765625
1494035587.0293149948,       -0.6513671875,        0.3378906250,        0.0053710938,        1.4343261719,      -11.0168457031,       49.4384765625
1494035587.0320119858,       -0.6459960938,        0.3378906250,        0.0053710938,        2.2125244141,      -11.4135742188,       50.5371093750
1494035587.0346519947,       -0.6459960938,        0.3378906250,        0.0053710938,        2.2125244141,      -11.4135742188,       50.5371093750
1494035587.0372180939,       -0.6459960938,        0.3378906250,        0.0053710938,        2.0599365234,      -11.7797851562,       51.6357421875
1494035587.0397729874,       -0.6113281250,        0.3789062500,        0.0019531250,        2.0599365234,      -11.7797851562,       51.6357421875
1494035587.0424509048,       -0.6113281250,        0.3789062500,        0.0019531250,        1.7089843750,      -11.2304687500,       52.5817871094
1494035587.0451419353,       -0.6113281250,        0.3789062500,        0.0019531250,        1.7089843750,      -11.2304687500,       52.5817871094
1494035587.0478289127,       -0.6113281250,        0.3789062500,        0.0019531250,        1.5716552734,      -11.5356445312,       53.4667968750
1494035587.0505259037,       -0.6157226562,        0.3686523438,       -0.0253906250,        1.5716552734,      -11.5356445312,       53.4667968750
1494035587.0532279015,       -0.6157226562,        0.3686523438,       -0.0253906250,        1.2359619141,      -11.0626220703,       54.2144775391
1494035587.0559289455,       -0.6157226562,        0.3686523438,       -0.0253906250,        1.2359619141,      -11.0626220703,       54.2144775391
1494035587.0586299896,       -0.6157226562,        0.3686523438,        0.0996093750,        0.8087158203,      -10.8184814453,       54.8706054688
1494035587.0613920689,       -0.5952148438,        0.3500976562,        0.0097656250,        0.8087158203,      -10.8184814453,       54.8706054688
1494035587.0644860268,       -0.5952148438,        0.3500976562,        0.0097656250,        0.1831054688,       -9.5672607422,       55.2368164062
1494035587.0671849251,       -0.5952148438,        0.3500976562,        0.0097656250,        0.1831054688,       -9.5672607422,       55.2368164062
1494035587.0698809624,       -0.5737304688,        0.3896484375,        0.0576171875,       -0.5035400391,       -8.0261230469,       55.7098388672
1494035587.0725760460,       -0.5737304688,        0.3896484375,        0.0576171875,       -0.5035400391,       -8.0261230469,       55.7098388672
1494035587.0752849579,       -0.5737304688,        0.3896484375,        0.0576171875,       -1.5106201172,       -7.8582763672,       55.7098388672
1494035587.0779809952,       -0.5737304688,        0.3896484375,        0.0576171875,       -1.5106201172,       -7.8582763672,       55.7098388672
1494035587.0806770325,       -0.5888671875,        0.3740234375,        0.0766601562,       -1.6784667969,       -8.1787109375,       54.2755126953
1494035587.0834190845,       -0.5888671875,        0.3740234375,        0.0766601562,       -1.6784667969,       -8.1787109375,       54.2755126953
1494035587.0859789848,       -0.5888671875,        0.3740234375,        0.0766601562,       -1.7852783203,       -7.7209472656,       53.0700683594
1494035587.0885300636,       -0.5888671875,        0.3740234375,        0.0766601562,       -1.7852783203,       -7.7209472656,       53.0700683594
1494035587.0910758972,       -0.6147460938,        0.4135742188,        0.0615234375,       -2.0599365234,       -7.4310302734,       51.9104003906
1494035587.0936748981,       -0.6147460938,        0.4135742188,        0.0615234375,       -2.0599365234,       -7.4310302734,       51.9104003906
1494035587.0962269306,       -0.6147460938,        0.4135742188,        0.0615234375,       -2.3345947266,       -6.4086914062,       50.8117675781
1494035587.0987820625,       -0.6147460938,        0.4135742188,        0.0615234375,       -2.3345947266,       -6.4086914062,       50.8117675781
1494035587.1013340950,       -0.6381835938,        0.4184570312,        0.0317382812,       -2.3345947266,       -5.6610107422,       51.1169433594
1494035587.1042399406,       -0.6381835938,        0.4184570312,        0.0317382812,       -1.9683837891,       -5.6610107422,       51.1169433594
1494035587.1068019867,       -0.6381835938,        0.4184570312,        0.0317382812,       -1.9683837891,       -5.2490234375,       51.1016845703
1494035587.1093559265,       -0.6381835938,        0.4184570312,       -0.0039062500,       -2.5177001953,       -5.2490234375,       51.1016845703
1494035587.1119039059,       -0.6259765625,        0.4199218750,       -0.0039062500,       -2.5177001953,       -4.2114257812,       51.7272949219
1494035587.1145670414,       -0.6259765625,        0.4199218750,       -0.0039062500,       -3.4484863281,       -4.2114257812,       51.7272949219
1494035587.1172399521,       -0.6259765625,        0.4199218750,       -0.0039062500,       -3.4484863281,       -4.2114257812,       52.8717041016
1494035587.1198010445,       -0.6259765625,        0.4199218750,       -0.0092773438,       -4.5623779297,       -3.6163330078,       52.8717041016
1494035587.1223549843,       -0.6245117188,        0.4106445312,       -0.0092773438,       -4.5623779297,       -3.6163330078,       54.2297363281
1494035587.1250259876,       -0.6245117188,        0.4106445312,       -0.0092773438,       -5.2337646484,       -3.5095214844,       54.2297363281
1494035587.1277270317,       -0.6245117188,        0.4106445312,       -0.0092773438,       -5.2337646484,       -3.5095214844,       56.0455322266
1494035587.1304140091,       -0.5434570312,        0.3491210938,        0.0053710938,       -6.6986083984,       -3.8757324219,       56.0455322266
1494035587.1331119537,       -0.5434570312,        0.3491210938,        0.0053710938,       -6.6986083984,       -3.8757324219,       56.0455322266
1494035587.1356780529,       -0.5434570312,        0.3491210938,        0.0053710938,       -9.2773437500,       -4.1809082031,       57.7239990234
1494035587.1382360458,       -0.5434570312,        0.3491210938,        0.0053710938,       -9.2773437500,       -4.1809082031,       57.7239990234
1494035587.1407918930,       -0.4633789062,        0.4174804688,        0.0786132812,      -11.7645263672,       -4.8675537109,       58.7463378906
1494035587.1434099674,       -0.4633789062,        0.4174804688,        0.0786132812,      -11.7645263672,       -4.8675537109,       58.7463378906
1494035587.1461040974,       -0.4633789062,        0.4174804688,        0.0786132812,      -11.0473632812,       -5.6457519531,       58.7310791016
1494035587.1488120556,       -0.4633789062,        0.4174804688,        0.0786132812,      -11.0473632812,       -5.6457519531,       58.7310791016
1494035587.1515100002,       -0.4956054688,        0.4287109375,        0.0541992188,       -7.5836181641,       -6.2866210938,       57.4645996094
1494035587.1541590691,       -0.4956054688,        0.4287109375,        0.0541992188,       -7.5836181641,       -6.2866210938,       57.4645996094
1494035587.1567170620,       -0.4956054688,        0.4287109375,        0.0541992188,      -10.2386474609,       -6.2561035156,       56.9763183594
1494035587.1592800617,       -0.4956054688,        0.4287109375,        0.0541992188,      -10.2386474609,       -6.2561035156,       56.9763183594
1494035587.1618440151,       -0.4614257812,        0.3964843750,        0.0844726562,      -16.6625976562,       -4.2877197266,       55.5572509766
1494035587.1645629406,       -0.4614257812,        0.3964843750,        0.0844726562,      -16.6625976562,       -4.2877197266,       55.5572509766
1494035587.1671199799,       -0.4614257812,        0.3964843750,        0.0844726562,      -10.9252929688,       -2.3498535156,       54.0008544922
1494035587.1696810722,       -0.4614257812,        0.3964843750,        0.2094726562,      -10.9252929688,       -2.3498535156,       54.0008544922
1494035587.1722359657,       -0.4975585938,        0.4848632812,        0.1328125000,       -7.5531005859,       -2.5939941406,       51.8188476562
1494035587.1748468876,       -0.4975585938,        0.4848632812,        0.1328125000,       -7.5531005859,       -2.5939941406,       51.8188476562
1494035587.1773979664,       -0.4975585938,        0.4848632812,        0.1328125000,       -7.5531005859,       -2.4871826172,       50.3082275391
1494035587.1800808907,       -0.4975585938,        0.4848632812,        0.0527343750,       -5.9814453125,       -2.4871826172,       50.3082275391
1494035587.1826360226,       -0.6425781250,        0.4819335938,        0.0527343750,       -2.0751953125,       -2.9449462891,       49.2858886719
1494035587.1855509281,       -0.6425781250,        0.4819335938,        0.0527343750,       -3.2806396484,       -2.9449462891,       49.2858886719
1494035587.1882450581,       -0.6425781250,        0.4819335938,        0.0527343750,       -3.2806396484,       -2.4414062500,       48.8433837891
1494035587.1910550594,       -0.8237304688,        0.4956054688,       -0.0498046875,       -1.4343261719,       -2.4414062500,       48.8433837891
1494035587.1937580109,       -0.8237304688,        0.4956054688,       -0.0498046875,       -1.4343261719,       -1.6021728516,       49.0264892578
1494035587.1964550018,       -0.8237304688,        0.4956054688,       -0.0498046875,       -3.6315917969,       -1.6021728516,       49.0264892578
1494035587.1991450787,       -0.8237304688,        0.4956054688,       -0.0498046875,       -3.6315917969,       -0.8697509766,       52.7801513672
1494035587.2018349171,       -0.8442382812,        0.4482421875,       -0.0727539062,       -2.9907226562,       -0.8697509766,       52.7801513672
1494035587.2045400143,       -0.8442382812,        0.4482421875,       -0.0727539062,       -2.9907226562,       -0.9155273438,       56.0150146484
1494035587.2072379589,       -0.8442382812,        0.4482421875,       -0.0727539062,       -2.0904541016,       -0.9155273438,       56.0150146484
1494035587.2099320889,       -0.8442382812,        0.4482421875,       -0.0727539062,       -2.0904541016,        0.3204345703,       59.2193603516
1494035587.2126300335,       -0.8315429688,        0.4697265625,       -0.0297851562,       -3.3721923828,        0.3204345703,       59.2193603516
1494035587.2152309418,       -0.8315429688,        0.4697265625,       -0.0297851562,       -3.3721923828,        0.3204345703,       62.9730224609
1494035587.2177898884,       -0.8315429688,        0.4697265625,       -0.0297851562,       -5.4931640625,        0.4119873047,       62.9730224609
1494035587.2203459740,       -0.8315429688,        0.4697265625,        0.0366210938,       -5.4931640625,        0.4119873047,       62.9730224609
1494035587.2229011059,       -0.7631835938,        0.4907226562,        0.0366210938,       -6.0424804688,        0.0457763672,       65.7653808594
1494035587.2254650593,       -0.7631835938,        0.4907226562,        0.0366210938,       -6.0424804688,        0.0457763672,       65.7653808594
1494035587.2280189991,       -0.7631835938,        0.4907226562,        0.0366210938,       -5.4626464844,       -0.7019042969,       67.3980712891
1494035587.2305719852,       -0.7631835938,        0.4907226562,        0.0634765625,       -5.4626464844,       -0.7019042969,       67.3980712891
1494035587.2331330776,       -0.7353515625,        0.5190429688,        0.0634765625,       -2.8533935547,       -1.3580322266,       68.6035156250
1494035587.2358660698,       -0.7353515625,        0.5190429688,        0.0634765625,       -2.8533935547,       -1.3580322266,       68.6035156250
1494035587.2384240627,       -0.7353515625,        0.5190429688,        0.0634765625,        0.6408691406,       -2.2735595703,       69.7631835938
1494035587.2409698963,       -0.7353515625,        0.4570312500,        0.0107421875,        0.6408691406,       -2.2735595703,       69.7631835938
1494035587.2436521053,       -0.7309570312,        0.4570312500,        0.0107421875,        3.9062500000,       -3.0364990234,       70.9686279297
1494035587.2463591099,       -0.7309570312,        0.4570312500,        0.0107421875,        3.9062500000,       -3.0364990234,       70.9686279297
1494035587.2490599155,       -0.7309570312,        0.4570312500,        0.0107421875,        5.6610107422,       -3.6163330078,       72.4029541016
1494035587.2517530918,       -0.6015625000,        0.4653320312,        0.0590820312,        5.6610107422,       -3.6163330078,       72.4029541016
1494035587.2544689178,       -0.6015625000,        0.4653320312,        0.0590820312,        5.4626464844,       -3.8757324219,       73.3642578125
1494035587.2571570873,       -0.6015625000,        0.4653320312,        0.0590820312,        5.4626464844,       -3.8757324219,       73.3642578125
1494035587.2598550320,       -0.6015625000,        0.4653320312,        0.0590820312,        5.9051513672,       -4.7607421875,       73.7457275391
1494035587.2626540661,       -0.4838867188,        0.5219726562,        0.1059570312,        5.9051513672,       -4.7607421875,       73.7457275391
1494035587.2653639317,       -0.4838867188,        0.5219726562,        0.1059570312,        7.9956054688,       -6.2255859375,       72.9217529297
1494035587.2680549622,       -0.4838867188,        0.5219726562,        0.1059570312,        7.9956054688,       -6.2255859375,       72.9217529297
1494035587.2707428932,       -0.4838867188,        0.5219726562,        0.0830078125,        9.2315673828,       -7.4615478516,       71.6247558594
1494035587.2734689713,       -0.4213867188,        0.4755859375,        0.0830078125,        9.2315673828,       -7.4615478516,       71.6247558594
1494035587.2760300636,       -0.4213867188,        0.4755859375,        0.0830078125,       10.2386474609,       -7.5531005859,       70.6329345703
1494035587.2785871029,       -0.4213867188,        0.4755859375,        0.0830078125,       10.2386474609,       -7.5531005859,       70.6329345703
1494035587.2811501026,       -0.4213867188,        0.6005859375,        0.0419921875,       11.2304687500,       -7.7972412109,       69.2291259766
1494035587.2837409973,       -0.4458007812,        0.5346679688,        0.0419921875,       11.2304687500,       -7.7972412109,       69.2291259766
1494035587.2864360809,       -0.4458007812,        0.5346679688,        0.0419921875,       11.3677978516,       -7.3242187500,       68.7255859375
1494035587.2891380787,       -0.4458007812,        0.5346679688,        0.0419921875,       11.3677978516,       -7.3242187500,       68.7255859375
1494035587.2918388844,       -0.5283203125,        0.5351562500,       -0.0122070312,       11.3677978516,       -6.6833496094,       68.5119628906
1494035587.2945508957,       -0.5283203125,        0.5351562500,       -0.0122070312,       10.7421875000,       -6.6833496094,       68.5119628906
1494035587.2972500324,       -0.5283203125,        0.5351562500,       -0.0122070312,       10.7421875000,       -5.2490234375,       68.7255859375
1494035587.3000619411,       -0.5283203125,        0.5351562500,       -0.0122070312,       10.1165771484,       -5.2490234375,       68.7255859375
1494035587.3027470112,       -0.5893554688,        0.5512695312,       -0.0297851562,        8.9569091797,       -3.6163330078,       69.1223144531
1494035587.3058819771,       -0.5893554688,        0.5512695312,       -0.0297851562,        8.9569091797,       -3.6163330078,       69.1223144531
1494035587.3085761070,       -0.5893554688,        0.5512695312,       -0.0297851562,        7.5683593750,       -1.8463134766,       69.8547363281
1494035587.3112680912,       -0.5893554688,        0.5512695312,       -0.0356445312,        7.5683593750,       -1.8463134766,       69.8547363281
1494035587.3139669895,       -0.6210937500,        0.5483398438,       -0.0356445312,        6.1950683594,       -0.1983642578,       71.6094970703
1494035587.3166649342,       -0.6210937500,        0.5483398438,       -0.0356445312,        6.1950683594,       -0.1983642578,       71.6094970703
1494035587.3193590641,       -0.6210937500,        0.5483398438,       -0.0356445312,        4.8522949219,        1.2207031250,       73.3642578125
1494035587.3220520020,       -0.6210937500,        0.4995117188,       -0.0039062500,        4.8522949219,        1.2207031250,       73.3642578125
1494035587.3246889114,       -0.5566406250,        0.4995117188,       -0.0039062500,        3.7689208984,        2.9602050781,       75.1647949219
1494035587.3272459507,       -0.5566406250,        0.4995117188,       -0.0039062500,        3.7689208984,        2.9602050781,       75.1647949219
1494035587.3298020363,       -0.5566406250,        0.4995117188,       -0.0039062500,        3.7689208984,        3.9520263672,       76.5380859375
1494035587.3323569298,       -0.3974609375,        0.4990234375,        0.0722656250,        1.3580322266,        3.9520263672,       76.5380859375
1494035587.3349139690,       -0.3974609375,        0.4990234375,        0.0722656250,        1.3580322266,        3.9520263672,       76.5838623047
1494035587.3375809193,       -0.3974609375,        0.4990234375,        0.0722656250,        0.1220703125,        4.1198730469,       76.5838623047
1494035587.3401350975,       -0.3974609375,        0.4990234375,        0.0722656250,        0.1220703125,        4.1198730469,       75.4852294922
1494035587.3426930904,       -0.3032226562,        0.5454101562,        0.1303710938,       -2.2735595703,        2.2430419922,       75.4852294922
1494035587.3452539444,       -0.3032226562,        0.5454101562,        0.1303710938,       -2.2735595703,        2.2430419922,       75.4852294922
1494035587.3478100300,       -0.3032226562,        0.5454101562,        0.1303710938,       -2.1057128906,        2.8076171875,       73.4710693359
1494035587.3503630161,       -0.3032226562,        0.5454101562,        0.1303710938,       -2.1057128906,        2.8076171875,       73.4710693359
1494035587.3529260159,       -0.2045898438,        0.4672851562,        0.1420898438,        5.4168701172,        2.6855468750,       72.0214843750
1494035587.3555200100,       -0.2045898438,        0.4672851562,        0.1420898438,        5.4168701172,        2.6855468750,       72.0214843750
1494035587.3580729961,       -0.2045898438,        0.4672851562,        0.1420898438,        6.7596435547,        1.6021728516,       70.6634521484
1494035587.3606240749,       -0.2045898438,        0.4672851562,        0.1420898438,        6.7596435547,        1.6021728516,       70.6634521484
1494035587.3632929325,       -0.1240234375,        0.5131835938,        0.1323242188,        3.9672851562,       -1.0375976562,       68.3593750000
1494035587.3659939766,       -0.1240234375,        0.5131835938,        0.1323242188,        3.9672851562,       -1.0375976562,       68.3593750000
1494035587.3686830997,       -0.1240234375,        0.5131835938,        0.1323242188,        5.0506591797,       -1.1291503906,       66.3452148438
1494035587.3713760376,       -0.1240234375,        0.5131835938,        0.0073242188,        5.0506591797,       -1.1291503906,       66.3452148438
1494035587.3740460873,       -0.1044921875,        0.5878906250,        0.1010742188,        9.3536376953,       -1.8005371094,       65.0482177734
1494035587.3765959740,       -0.1044921875,        0.5878906250,        0.1010742188,        9.3536376953,       -1.8005371094,       65.0482177734
1494035587.3791549206,       -0.1044921875,        0.5878906250,        0.1010742188,       11.1846923828,       -2.4719238281,       63.5223388672
1494035587.3817119598,       -0.1044921875,        0.5878906250,        0.0043945312,       11.1846923828,       -2.4719238281,       63.5223388672
1494035587.3843390942,       -0.3217773438,        0.6645507812,        0.0043945312,       11.1846923828,       -1.6784667969,       57.3425292969
1494035587.3870298862,       -0.3217773438,        0.6645507812,        0.0043945312,       10.1013183594,       -1.6784667969,       57.3425292969
1494035587.3897249699,       -0.3217773438,        0.6645507812,        0.0043945312,       14.0075683594,        0.6256103516,       54.7943115234
1494035587.3924219608,       -0.3217773438,        0.6176757812,       -0.0087890625,       13.7329101562,        0.6256103516,       54.7943115234
1494035587.3951380253,       -0.4599609375,        0.6176757812,       -0.0087890625,       17.6391601562,        2.7313232422,       53.0853271484
1494035587.3978369236,       -0.4599609375,        0.6176757812,       -0.0087890625,       16.4489746094,        2.7313232422,       53.0853271484
1494035587.4005351067,       -0.4599609375,        0.6176757812,       -0.0087890625,       16.4489746094,        4.2266845703,       52.9479980469
1494035587.4032409191,       -0.6611328125,        0.6879882812,       -0.0092773438,       16.2200927734,        4.2266845703,       52.9479980469
1494035587.4059391022,       -0.6611328125,        0.6879882812,       -0.0092773438,       16.2200927734,        5.4779052734,       54.3212890625
1494035587.4086380005,       -0.6611328125,        0.6879882812,       -0.0092773438,       15.0756835938,        5.4779052734,       54.3212890625
1494035587.4114520550,       -0.6611328125,        0.6879882812,       -0.0092773438,       15.0756835938,        5.6915283203,       55.3283691406
1494035587.4141659737,       -0.7734375000,        0.7182617188,        0.0073242188,       14.8468017578,        5.6915283203,       55.3283691406
1494035587.4168660641,       -0.7734375000,        0.7182617188,        0.0073242188,       14.8468017578,        6.0882568359,       55.8776855469
1494035587.4196300507,       -0.7734375000,        0.7182617188,        0.0073242188,       14.9536132812,        6.0882568359,       55.8776855469
1494035587.4223279953,       -0.7734375000,        0.8432617188,        0.0322265625,       16.5405273438,        5.8441162109,       58.6242675781
1494035587.4253790379,       -0.8925781250,        0.7578125000,        0.0322265625,       16.5405273438,        5.8441162109,       58.6242675781
1494035587.4279439449,       -0.8925781250,        0.7578125000,        0.0322265625,       16.5405273438,        4.5013427734,       61.2030029297
1494035587.4304969311,       -0.8925781250,        0.7578125000,        0.0322265625,       18.2189941406,        4.5013427734,       61.2030029297
1494035587.4330489635,       -0.8925781250,        0.7612304688,        0.0292968750,       18.2189941406,        0.5950927734,       65.8416748047
1494035587.4357531071,       -0.9965820312,        0.7612304688,        0.0292968750,       19.5922851562,        2.7770996094,       65.8416748047
1494035587.4384551048,       -0.9965820312,        0.7612304688,        0.0292968750,       19.5922851562,        2.7770996094,       70.8618164062
1494035587.4411559105,       -0.9965820312,        0.7612304688,        0.0292968750,       19.8516845703,        0.5493164062,       70.8618164062
1494035587.4438738823,       -1.0126953125,        0.7397460938,        0.0073242188,       19.8516845703,       -3.3569335938,       75.7141113281
1494035587.4465770721,       -1.0126953125,        0.7397460938,        0.0073242188,       19.8059082031,       -1.1291503906,       75.7141113281
1494035587.4492769241,       -1.0126953125,        0.7397460938,        0.0073242188,       19.8059082031,       -5.0354003906,       79.6508789062
1494035587.4519720078,       -1.0126953125,        0.7397460938,        0.0073242188,       18.8293457031,       -4.0588378906,       79.6508789062
1494035587.4546089172,       -1.0029296875,        0.7641601562,        0.0112304688,       18.8293457031,       -4.0588378906,       83.3740234375
1494035587.4571700096,       -1.0029296875,        0.7641601562,        0.0112304688,       18.2952880859,       -6.3018798828,       83.3740234375
1494035587.4597249031,       -1.0029296875,        0.7641601562,        0.0112304688,       18.2952880859,       -6.3018798828,       87.2802734375
1494035587.4622859955,       -1.0029296875,        0.7641601562,       -0.1137695312,       16.2963867188,       -7.6751708984,       87.2650146484
1494035587.4648590088,       -0.9799804688,        0.7070312500,       -0.0073242188,       16.2963867188,       -7.6751708984,       87.2650146484
1494035587.4674129486,       -0.9799804688,        0.7070312500,       -0.0073242188,       14.1448974609,       -8.3618164062,       90.7440185547
1494035587.4699740410,       -0.9799804688,        0.7070312500,       -0.0073242188,       14.1448974609,       -8.3618164062,       90.7440185547
1494035587.4725279808,       -0.9799804688,        0.7070312500,        0.0043945312,       11.9171142578,       -8.4686279297,       92.9107666016
1494035587.4751830101,       -0.8437500000,        0.6372070312,        0.0043945312,       11.9171142578,       -8.4686279297,       92.9107666016
1494035587.4777479172,       -0.8437500000,        0.6372070312,        0.0043945312,       10.2996826172,       -8.4533691406,       93.7500000000
1494035587.4803049564,       -0.8437500000,        0.6372070312,        0.0043945312,       10.2996826172,       -8.4533691406,       93.7500000000
1494035587.4829649925,       -0.8437500000,        0.6464843750,        0.0551757812,        7.2784423828,       -9.6588134766,       94.0093994141
1494035587.4858040810,       -0.7509765625,        0.6464843750,        0.0551757812,        7.2784423828,       -9.6588134766,       94.0093994141
1494035587.4884970188,       -0.7509765625,        0.6464843750,        0.0551757812,        5.0964355469,      -11.3983154297,       94.2687988281
1494035587.4911980629,       -0.7509765625,        0.6464843750,        0.0551757812,        5.0964355469,      -11.3983154297,       94.2687988281
1494035587.4939110279,       -0.7363281250,        0.6108398438,        0.0546875000,        2.5177001953,      -12.8173828125,       93.9941406250
1494035587.4966080189,       -0.7363281250,        0.6108398438,        0.0546875000,        2.5177001953,      -12.8173828125,       93.9941406250
1494035587.4993090630,       -0.7363281250,        0.6108398438,        0.0546875000,        0.5798339844,      -12.5427246094,       93.6126708984
1494035587.5020089149,       -0.7363281250,        0.6108398438,        0.0546875000,        0.5798339844,      -12.5427246094,       93.6126708984
1494035587.5047159195,       -0.7084960938,        0.5615234375,        0.0561523438,       -0.7019042969,      -12.2222900391,       92.8497314453
1494035587.5074150562,       -0.7084960938,        0.5615234375,        0.0561523438,       -0.7019042969,      -12.2222900391,       92.8497314453
1494035587.5101089478,       -0.7084960938,        0.5615234375,        0.0561523438,       -0.8392333984,      -10.6506347656,       91.7816162109
1494035587.5128080845,       -0.7084960938,        0.5615234375,        0.0561523438,       -0.8392333984,      -10.6506347656,       91.7816162109
1494035587.5154030323,       -0.6489257812,        0.5620117188,        0.0717773438,       -0.4577636719,       -9.1857910156,       90.7897949219
1494035587.5179579258,       -0.6489257812,        0.5620117188,        0.0717773438,       -0.4577636719,       -9.1857910156,       90.7897949219
1494035587.5205171108,       -0.6489257812,        0.5620117188,        0.0717773438,       -0.4577636719,       -7.6904296875,       89.4927978516
1494035587.5230689049,       -0.6489257812,        0.5620117188,        0.0600585938,       -0.9155273438,       -7.6904296875,       89.4927978516
1494035587.5257189274,       -0.5605468750,        0.5737304688,        0.0600585938,       -0.9155273438,       -6.9122314453,       87.0513916016
1494035587.5282809734,       -0.5605468750,        0.5737304688,        0.0600585938,       -1.2207031250,       -6.9122314453,       87.0513916016
1494035587.5308370590,       -0.5605468750,        0.5737304688,        0.0600585938,       -1.2207031250,       -6.9122314453,       84.1979980469
1494035587.5334761143,       -0.5605468750,        0.5800781250,       -0.0063476562,       -0.3509521484,       -6.2713623047,       84.1979980469
1494035587.5361781120,       -0.4746093750,        0.5800781250,       -0.0063476562,       -0.3509521484,       -6.2713623047,       81.2683105469
1494035587.5388729572,       -0.4746093750,        0.5800781250,       -0.0063476562,        2.9296875000,       -6.0577392578,       81.2683105469
1494035587.5417749882,       -0.4746093750,        0.5800781250,       -0.0063476562,        2.9296875000,       -6.0577392578,       78.2318115234
1494035587.5446538925,       -0.3627929688,        0.5859375000,       -0.0249023438,        5.8593750000,       -6.0729980469,       78.2318115234
1494035587.5473520756,       -0.3627929688,        0.5859375000,       -0.0249023438,        5.8593750000,       -6.0729980469,       72.6776123047
1494035587.5500469208,       -0.3627929688,        0.5859375000,       -0.0249023438,        8.0108642578,       -6.8359375000,       72.6776123047
1494035587.5527470112,       -0.3627929688,        0.5859375000,       -0.0249023438,        8.0108642578,       -6.8359375000,       64.7430419922
1494035587.5554909706,       -0.2651367188,        0.4931640625,        0.0146484375,        6.4086914062,       -6.5307617188,       64.7430419922
1494035587.5582981110,       -0.2651367188,        0.4931640625,        0.0146484375,        6.4086914062,       -4.0893554688,       59.2956542969
1494035587.5609970093,       -0.2651367188,        0.4931640625,        0.0146484375,        3.6926269531,       -4.0893554688,       59.2956542969
1494035587.5636899471,       -0.2651367188,        0.6181640625,       -0.0156250000,        3.6926269531,       -0.1831054688,       57.9986572266
1494035587.5662419796,       -0.1489257812,        0.5483398438,       -0.0156250000,        0.4272460938,       -1.9226074219,       57.9986572266
1494035587.5688021183,       -0.1489257812,        0.5483398438,       -0.0156250000,        0.4272460938,       -1.9226074219,       56.7474365234
1494035587.5713551044,       -0.1489257812,        0.5483398438,       -0.0156250000,       -3.3569335938,       -1.8005371094,       56.7474365234
1494035587.5739150047,       -0.1489257812,        0.6298828125,        0.0000000000,       -3.3569335938,       -1.8005371094,       56.7474365234
1494035587.5764710903,       -0.0053710938,        0.6298828125,        0.0000000000,       -6.2561035156,       -1.8005371094,       53.3142089844
1494035587.5790240765,       -0.0053710938,        0.6298828125,        0.0000000000,       -6.2561035156,       -1.8005371094,       53.3142089844
1494035587.5815730095,       -0.0053710938,        0.6298828125,        0.0000000000,        2.4261474609,        0.1678466797,       46.7834472656
1494035587.5841350555,       -0.0053710938,        0.6484375000,        0.0556640625,        2.4261474609,        0.1678466797,       46.7834472656
1494035587.5866870880,        0.0551757812,        0.6484375000,        0.0556640625,        2.3956298828,       -0.8697509766,       40.3594970703
1494035587.5892460346,        0.0551757812,        0.6484375000,        0.0556640625,        2.3956298828,       -0.8697509766,       40.3594970703
1494035587.5917921066,        0.0551757812,        0.6484375000,        0.0556640625,        0.6713867188,       -1.5869140625,       37.5976562500
1494035587.5943880081,        0.0551757812,        0.6894531250,        0.0932617188,        0.6713867188,       -1.5869140625,       37.5976562500
1494035587.5969460011,        0.0976562500,        0.6894531250,        0.0932617188,       -1.0986328125,        0.1983642578,       36.6058349609
1494035587.5994999409,        0.0976562500,        0.6894531250,        0.0932617188,       -1.0986328125,        0.1983642578,       36.6058349609
1494035587.6020500660,        0.0976562500,        0.6894531250,        0.0932617188,       -1.0986328125,        1.9226074219,       34.5001220703
1494035587.6048109531,        0.1010742188,        0.6494140625,        0.0976562500,       -2.5329589844,        1.9226074219,       34.5001220703
1494035587.6075038910,        0.1010742188,        0.6494140625,        0.0976562500,       -2.5329589844,        2.8076171875,       31.9976806641
1494035587.6101949215,        0.1010742188,        0.6494140625,        0.0976562500,       -3.2501220703,        2.8076171875,       31.9976806641
1494035587.6128909588,        0.1010742188,        0.6494140625,        0.0976562500,       -3.2501220703,        4.2266845703,       30.6396484375
1494035587.6154680252,        0.0869140625,        0.6938476562,        0.0942382812,       -2.3498535156,        4.2266845703,       30.6396484375
1494035587.6180250645,        0.0869140625,        0.6938476562,        0.0942382812,       -2.3498535156,        4.2266845703,       29.8767089844
1494035587.6205708981,        0.0869140625,        0.6938476562,        0.0942382812,        1.8768310547,        6.3323974609,       29.8767089844
1494035587.6231219769,        0.0869140625,        0.6938476562,        0.0942382812,        1.8768310547,        6.3323974609,       27.3742675781
1494035587.6258080006,        0.0927734375,        0.6552734375,        0.0800781250,        7.9956054688,        7.7056884766,       27.3742675781
1494035587.6284790039,        0.0927734375,        0.6552734375,        0.0800781250,        7.9956054688,        7.7056884766,       23.4680175781
1494035587.6312649250,        0.0927734375,        0.6552734375,        0.0800781250,       14.5416259766,        8.4381103516,       24.0325927734
1494035587.6339490414,        0.0927734375,        0.6552734375,        0.0532226562,       14.5416259766,        8.4381103516,       16.2200927734
1494035587.6365931034,        0.1293945312,        0.4643554688,        0.0532226562,       20.7824707031,        8.3312988281,       17.3034667969
1494035587.6392469406,        0.1293945312,        0.4643554688,        0.0532226562,       20.7824707031,        8.3312988281,        5.5847167969
1494035587.6418869495,        0.1293945312,        0.4643554688,        0.0532226562,       32.3638916016,        9.5367431641,        5.9509277344
1494035587.6445479393,        0.1293945312,       -0.0244140625,       -0.0151367188,       32.3638916016,        9.5367431641,        5.9509277344
1494035587.6471090317,       -0.0473632812,       -0.0244140625,       -0.0151367188,       47.4395751953,       12.5122070312,       -8.8958740234
1494035587.6496670246,       -0.0473632812,       -0.0244140625,       -0.0151367188,       47.4395751953,       12.5122070312,       -8.8958740234
1494035587.6522259712,       -0.0473632812,       -0.0244140625,       -0.0151367188,       54.2755126953,        9.9487304688,      -26.4282226562
1494035587.6549611092,       -0.2973632812,       -0.4663085938,       -0.0712890625,       54.2755126953,        9.9487304688,      -26.4282226562
1494035587.6576609612,       -0.3447265625,       -0.4663085938,       -0.0712890625,       52.9937744141,        4.8675537109,      -39.7949218750
1494035587.6604919434,       -0.3447265625,       -0.4663085938,       -0.0712890625,       52.9937744141,        4.8675537109,      -39.7949218750
1494035587.6635780334,       -0.3447265625,       -0.4663085938,       -0.0712890625,       48.7060546875,        4.8522949219,      -47.8668212891
1494035587.6661410332,       -0.4804687500,       -0.4770507812,       -0.0810546875,       48.7060546875,        4.8522949219,      -47.8668212891
1494035587.6686971188,       -0.4804687500,       -0.4770507812,       -0.0810546875,       42.6177978516,        8.6212158203,      -54.3518066406
1494035587.6712560654,       -0.4804687500,       -0.4770507812,       -0.0810546875,       42.6177978516,        8.6212158203,      -54.3518066406
1494035587.6738870144,       -0.4804687500,       -0.4770507812,       -0.0810546875,       38.6352539062,       11.1389160156,      -61.2487792969
1494035587.6765849590,       -0.3281250000,       -0.1162109375,       -0.1079101562,       38.6352539062,       11.1389160156,      -61.2487792969
1494035587.6792860031,       -0.3281250000,       -0.1162109375,       -0.1079101562,       40.6951904297,       10.8489990234,      -70.0073242188
1494035587.6819870472,       -0.3281250000,       -0.1162109375,       -0.1079101562,       40.6951904297,       10.8489990234,      -70.0073242188
1494035587.6847000122,       -0.3281250000,        0.0087890625,       -0.1108398438,       45.8984375000,        9.4299316406,      -81.0699462891
1494035587.6874051094,       -0.2841796875,        0.0224609375,       -0.1108398438,       45.8984375000,        9.4299316406,      -81.0699462891
1494035587.6901009083,       -0.2841796875,        0.0224609375,       -0.1108398438,       49.4995117188,        8.8500976562,      -91.4459228516
1494035587.6927969456,       -0.2841796875,        0.0224609375,       -0.1108398438,       49.4995117188,        8.8500976562,      -91.4459228516
1494035587.6953990459,       -0.3696289062,        0.0507812500,       -0.1035156250,       47.6837158203,        7.5225830078,      -99.7924804688
1494035587.6979560852,       -0.3696289062,        0.0507812500,       -0.1035156250,       47.6837158203,        7.5225830078,      -99.7924804688
1494035587.7005190849,       -0.3696289062,        0.0507812500,       -0.1035156250,       43.3044433594,        6.0119628906,     -108.5357666016
1494035587.7032170296,       -0.3696289062,        0.0507812500,       -0.1035156250,       43.3044433594,        6.0119628906,     -108.5357666016
1494035587.7057778835,       -0.4174804688,        0.0312500000,       -0.0913085938,       40.7867431641,        7.1411132812,     -116.0888671875
1494035587.7083380222,       -0.4174804688,        0.0312500000,       -0.0913085938,       40.7867431641,        7.1411132812,     -116.0888671875
1494035587.7108891010,       -0.4174804688,        0.0312500000,       -0.0913085938,       36.8804931641,        7.2937011719,     -120.4376220703
1494035587.7135949135,       -0.4174804688,        0.0312500000,       -0.0913085938,       35.4309082031,        7.2937011719,     -120.4376220703
1494035587.7161540985,       -0.4458007812,        0.1020507812,       -0.0590820312,       35.4309082031,        7.2937011719,     -126.1138916016
1494035587.7187058926,       -0.4458007812,        0.1020507812,       -0.0590820312,       33.0810546875,        4.9896240234,     -126.1138916016
1494035587.7212579250,       -0.4458007812,        0.1020507812,       -0.0590820312,       33.0810546875,        4.9896240234,     -131.0729980469
1494035587.7239980698,       -0.4458007812,        0.1020507812,       -0.0590820312,       35.2172851562,        4.3640136719,     -131.0729980469
1494035587.7266919613,       -0.4902343750,        0.1567382812,       -0.0649414062,       35.2172851562,        4.3640136719,     -135.2386474609
1494035587.7293870449,       -0.4902343750,        0.1567382812,       -0.0649414062,       36.8499755859,        3.3111572266,     -135.2386474609
1494035587.7320768833,       -0.4902343750,        0.1567382812,       -0.0649414062,       36.8499755859,        3.3111572266,     -138.7023925781
1494035587.7347750664,       -0.4902343750,        0.1567382812,       -0.0649414062,       38.8946533203,        1.5411376953,     -138.7023925781
1494035587.7374711037,       -0.5078125000,        0.2465820312,       -0.0468750000,       38.8946533203,        1.5411376953,     -142.4102783203
1494035587.7401649952,       -0.5078125000,        0.2465820312,       -0.0468750000,       39.8864746094,       -0.1678466797,     -142.4102783203
1494035587.7428569794,       -0.5078125000,        0.2465820312,       -0.0468750000,       39.8864746094,       -0.1678466797,     -145.2484130859
1494035587.7455589771,       -0.5078125000,        0.3432617188,       -0.0468750000,       41.2902832031,       -0.9918212891,     -145.2484130859
1494035587.7482509613,       -0.5473632812,        0.3432617188,       -0.0468750000,       41.2902832031,       -0.9918212891,     -145.2484130859
1494035587.7509479523,       -0.5473632812,        0.3432617188,       -0.0468750000,       43.7469482422,       -1.9683837891,     -147.6440429688
1494035587.7536880970,       -0.5473632812,        0.3432617188,       -0.0468750000,       43.7469482422,       -1.9683837891,     -151.5502929688
1494035587.7563838959,       -0.5791015625,        0.4482421875,       -0.0605468750,       45.2728271484,       -3.1585693359,     -149.2614746094
1494035587.7590830326,       -0.5791015625,        0.4482421875,       -0.0605468750,       45.2728271484,       -3.1585693359,     -149.2614746094
1494035587.7617759705,       -0.5791015625,        0.4482421875,       -0.0605468750,       45.1202392578,       -4.1503906250,     -150.0091552734
1494035587.7644228935,       -0.5791015625,        0.4482421875,       -0.0605468750,       45.1202392578,       -4.1503906250,     -150.0091552734
1494035587.7669849396,       -0.6108398438,        0.4614257812,       -0.0888671875,       45.0286865234,       -5.2185058594,     -151.3366699219
1494035587.7695419788,       -0.6108398438,        0.4614257812,       -0.0888671875,       45.0286865234,       -5.2185058594,     -151.3366699219
1494035587.7720990181,       -0.6108398438,        0.4614257812,       -0.0888671875,       44.7235107422,       -6.3934326172,     -152.6336669922
1494035587.7746601105,       -0.6108398438,        0.4614257812,       -0.0888671875,       44.7235107422,       -6.3934326172,     -152.6336669922
1494035587.7773230076,       -0.6318359375,        0.4433593750,       -0.1010742188,       43.3807373047,       -7.2326660156,     -154.0069580078
1494035587.7799959183,       -0.6318359375,        0.4433593750,       -0.1010742188,       43.3807373047,       -7.2326660156,     -154.0069580078
1494035587.7825510502,       -0.6318359375,        0.4433593750,       -0.1010742188,       41.1682128906,       -8.2550048828,     -155.3192138672
1494035587.7855279446,       -0.6318359375,        0.4433593750,       -0.1166992188,       41.1682128906,       -8.2550048828,     -155.3192138672
1494035587.7882199287,       -0.6391601562,        0.4492187500,       -0.1166992188,       40.6646728516,       -8.9263916016,     -157.0434570312
1494035587.7909181118,       -0.6391601562,        0.4492187500,       -0.1166992188,       40.6646728516,       -8.9263916016,     -157.0434570312
1494035587.7936599255,       -0.6391601562,        0.4492187500,       -0.1166992188,       40.2374267578,       -9.2620849609,     -157.9589843750
1494035587.7963559628,       -0.6591796875,        0.4702148438,       -0.1206054688,       40.2374267578,       -9.2620849609,     -157.9589843750
1494035587.7990500927,       -0.6591796875,        0.4702148438,       -0.1206054688,       39.2913818359,       -9.6435546875,     -158.4930419922
1494035587.8017499447,       -0.6591796875,        0.4702148438,       -0.1206054688,       39.2913818359,       -9.6435546875,     -158.4930419922
1494035587.8044888973,       -0.6591796875,        0.4702148438,       -0.1206054688,       38.2843017578,       -9.9639892578,     -158.6914062500
1494035587.8071880341,       -0.6577148438,        0.4726562500,       -0.1196289062,       38.2843017578,       -9.9639892578,     -158.6914062500
1494035587.8098840714,       -0.6577148438,        0.4726562500,       -0.1196289062,       36.8194580078,      -10.6658935547,     -158.6914062500
1494035587.8125751019,       -0.6577148438,        0.4726562500,       -0.1196289062,       36.8194580078,      -10.6658935547,     -158.6914062500
1494035587.8151800632,       -0.6577148438,        0.4726562500,       -0.1196289062,       35.8886718750,      -11.2762451172,     -158.7371826172
1494035587.8177359104,       -0.6684570312,        0.4584960938,       -0.1162109375,       35.8886718750,      -11.2762451172,     -158.7371826172
1494035587.8202960491,       -0.6684570312,        0.4584960938,       -0.1162109375,       33.2183837891,      -12.0086669922,     -159.2102050781
1494035587.8228580952,       -0.6684570312,        0.4584960938,       -0.1162109375,       33.2183837891,      -12.0086669922,     -159.2102050781
1494035587.8254230022,       -0.6684570312,        0.4584960938,       -0.1162109375,       29.3273925781,      -12.1459960938,     -159.8663330078
1494035587.8279919624,       -0.6757812500,        0.4223632812,       -0.1401367188,       29.3273925781,      -12.1459960938,     -159.8663330078
1494035587.8305521011,       -0.6757812500,        0.4223632812,       -0.1401367188,       29.3273925781,      -11.1999511719,     -160.1409912109
1494035587.8331079483,       -0.6757812500,        0.4223632812,       -0.1401367188,       25.4211425781,      -11.1999511719,     -160.1409912109
1494035587.8357300758,       -0.6757812500,        0.4223632812,       -0.1401367188,       25.4211425781,      -11.1999511719,     -161.1633300781
1494035587.8382880688,       -0.6752929688,        0.3828125000,       -0.1499023438,       18.7835693359,      -11.2915039062,     -161.1633300781
1494035587.8408439159,       -0.6752929688,        0.3828125000,       -0.1499023438,       18.7835693359,      -11.2915039062,     -161.1633300781
1494035587.8435730934,       -0.6752929688,        0.3828125000,       -0.1499023438,       11.4135742188,      -10.7879638672,     -162.4298095703
1494035587.8462760448,       -0.6752929688,        0.3598632812,       -0.1430664062,       11.4135742188,      -10.7879638672,     -163.6352539062
1494035587.8489789963,       -0.6762695312,        0.3598632812,       -0.1430664062,        5.9204101562,       -9.5977783203,     -163.6352539062
1494035587.8517780304,       -0.6762695312,        0.3598632812,       -0.1430664062,        5.9204101562,       -9.5977783203,     -164.7338867188
1494035587.8544828892,       -0.6762695312,        0.3598632812,       -0.1430664062,        2.6092529297,       -8.8195800781,     -164.7338867188
1494035587.8571779728,       -0.7060546875,        0.3554687500,       -0.1450195312,        2.6092529297,       -8.8195800781,     -165.9088134766
1494035587.8598690033,       -0.7060546875,        0.3554687500,       -0.1450195312,       -0.5187988281,       -8.0413818359,     -165.9088134766
1494035587.8625619411,       -0.7060546875,        0.3554687500,       -0.1450195312,       -0.5187988281,       -8.0413818359,     -167.8924560547
1494035587.8652639389,       -0.7060546875,        0.3554687500,       -0.1450195312,       -6.9732666016,       -9.2315673828,     -167.8924560547
1494035587.8679590225,       -0.7163085938,        0.3847656250,       -0.0864257812,       -6.9732666016,       -9.2315673828,     -171.7987060547
1494035587.8706541061,       -0.7163085938,        0.3847656250,       -0.0864257812,      -11.9628906250,      -10.0860595703,     -169.6929931641
1494035587.8733870983,       -0.7163085938,        0.3847656250,       -0.0864257812,      -11.9628906250,      -10.0860595703,     -173.5992431641
1494035587.8759479523,       -0.7163085938,        0.3847656250,       -0.0864257812,      -14.2059326172,      -10.3759765625,     -171.9665527344
1494035587.8785150051,       -0.7285156250,        0.4311523438,       -0.0375976562,      -14.2059326172,      -10.3759765625,     -171.9665527344
1494035587.8810739517,       -0.7285156250,        0.4311523438,       -0.0375976562,      -17.4865722656,      -10.6353759766,     -174.9114990234
1494035587.8836939335,       -0.7285156250,        0.4311523438,       -0.0375976562,      -17.4865722656,      -10.6353759766,     -174.9114990234
1494035587.8863949776,       -0.7285156250,        0.4311523438,       -0.0292968750,      -19.1802978516,      -10.6048583984,     -175.3845214844
1494035587.8890950680,       -0.7333984375,        0.5053710938,       -0.0292968750,      -19.1802978516,      -10.6048583984,     -175.3845214844
1494035587.8917949200,       -0.7333984375,        0.5053710938,       -0.0292968750,      -16.6320800781,      -10.1928710938,     -173.9196777344
1494035587.8945050240,       -0.7333984375,        0.5053710938,       -0.0292968750,      -16.6320800781,      -10.1928710938,     -173.9196777344
1494035587.8972089291,       -0.7641601562,        0.5615234375,       -0.0390625000,      -17.2729492188,       -9.8266601562,     -172.2106933594
1494035587.8999819756,       -0.7641601562,        0.5615234375,       -0.0390625000,      -17.2729492188,       -9.8266601562,     -172.2106933594
1494035587.9026679993,       -0.7641601562,        0.5615234375,       -0.0390625000,      -20.4467773438,       -9.7656250000,     -170.0286865234
1494035587.9057869911,       -0.7641601562,        0.5615234375,       -0.0390625000,      -20.4467773438,       -9.7656250000,     -170.0286865234
1494035587.9084880352,       -0.7509765625,        0.5927734375,       -0.0449218750,      -20.7977294922,       -9.7351074219,     -167.7551269531
1494035587.9111859798,       -0.7509765625,        0.5927734375,       -0.0449218750,      -20.7977294922,       -9.7351074219,     -167.7551269531
1494035587.9139010906,       -0.7509765625,        0.5927734375,       -0.0449218750,      -18.5241699219,      -10.8947753906,     -166.1987304688
1494035587.9165980816,       -0.7509765625,        0.5927734375,       -0.0439453125,      -18.5241699219,      -10.8947753906,     -166.1987304688
1494035587.9192988873,       -0.7690429688,        0.6357421875,       -0.0439453125,      -17.5628662109,      -11.4746093750,     -162.5823974609
1494035587.9220030308,       -0.7690429688,        0.6357421875,       -0.0439453125,      -17.5628662109,      -11.4746093750,     -162.5823974609
1494035587.9247500896,       -0.7690429688,        0.6357421875,       -0.0439453125,      -15.7012939453,       -9.9487304688,     -158.5083007812
1494035587.9273200035,       -0.7690429688,        0.6250000000,       -0.0424804688,      -15.7012939453,       -9.9487304688,     -158.5083007812
1494035587.9298779964,       -0.7626953125,        0.6250000000,       -0.0424804688,      -14.0686035156,       -8.5296630859,     -155.5633544922
1494035587.9324369431,       -0.7626953125,        0.6250000000,       -0.0424804688,      -14.0686035156,       -8.5296630859,     -155.5633544922
1494035587.9350330830,       -0.7626953125,        0.6250000000,       -0.0424804688,      -13.8854980469,       -6.7291259766,     -153.0761718750
1494035587.9375939369,       -0.7358398438,        0.5581054688,       -0.0493164062,      -13.8854980469,       -6.7291259766,     -153.0761718750
1494035587.9401590824,       -0.7358398438,        0.5581054688,       -0.0493164062,      -14.7857666016,       -5.2642822266,     -150.9704589844
1494035587.9427111149,       -0.7358398438,        0.5581054688,       -0.0493164062,      -14.7857666016,       -5.2642822266,     -150.9704589844
1494035587.9452800751,       -0.7358398438,        0.5581054688,       -0.0493164062,      -17.1966552734,       -5.4321289062,     -148.9562988281
1494035587.9478430748,       -0.6914062500,        0.5024414062,       -0.0419921875,      -17.1966552734,       -5.4321289062,     -148.9562988281
1494035587.9504001141,       -0.6914062500,        0.5024414062,       -0.0419921875,      -21.1029052734,       -4.0740966797,     -146.9879150391
1494035587.9529581070,       -0.6914062500,        0.5024414062,       -0.0419921875,      -20.7366943359,       -4.0740966797,     -146.9879150391
1494035587.9556860924,       -0.6914062500,        0.5024414062,       -0.0419921875,      -20.7366943359,       -0.1678466797,     -146.1486816406
1494035587.9582409859,       -0.6660156250,        0.4736328125,       -0.0219726562,      -23.5595703125,       -3.2653808594,     -146.1486816406
1494035587.9607989788,       -0.6660156250,        0.4736328125,       -0.0219726562,      -23.5595703125,       -3.2653808594,     -145.6451416016
1494035587.9635341167,       -0.6660156250,        0.4736328125,       -0.0219726562,      -26.0314941406,       -3.6315917969,     -145.6451416016
1494035587.9662270546,       -0.6660156250,        0.4736328125,       -0.0219726562,      -26.0314941406,       -3.6315917969,     -145.1263427734
1494035587.9689259529,       -0.6689453125,        0.4687500000,       -0.0078125000,      -28.9306640625,       -2.7923583984,     -145.1263427734
1494035587.9716229439,       -0.6689453125,        0.4687500000,       -0.0078125000,      -28.9306640625,       -2.7923583984,     -143.6767578125
1494035587.9742779732,       -0.6689453125,        0.4687500000,       -0.0078125000,      -30.3649902344,       -2.1514892578,     -143.6767578125
1494035587.9768390656,       -0.6689453125,        0.4687500000,       -0.0078125000,      -30.3649902344,       -2.1514892578,     -143.6767578125
1494035587.9793980122,       -0.6601562500,        0.4926757812,       -0.0136718750,      -28.1524658203,       -2.1514892578,     -141.9525146484
1494035587.9819569588,       -0.6601562500,        0.4926757812,       -0.0136718750,      -28.1524658203,       -2.1514892578,     -141.9525146484
1494035587.9845929146,       -0.6601562500,        0.4926757812,       -0.0136718750,      -29.9072265625,       -3.7841796875,     -141.1285400391
1494035587.9872899055,       -0.6601562500,        0.4926757812,       -0.0097656250,      -29.9072265625,       -3.7841796875,     -141.1285400391
1494035587.9899909496,       -0.6689453125,        0.5395507812,       -0.0097656250,      -31.3568115234,       -4.8370361328,     -139.2211914062
1494035587.9926860332,       -0.6689453125,        0.5395507812,       -0.0097656250,      -31.3568115234,       -4.8370361328,     -139.2211914062
1494035587.9953858852,       -0.6689453125,        0.5395507812,       -0.0097656250,      -31.4636230469,       -4.8675537109,     -135.9558105469
1494035587.9981930256,       -0.6777343750,        0.5200195312,        0.0024414062,      -31.4636230469,       -4.8675537109,     -135.9558105469
1494035588.0009009838,       -0.6777343750,        0.5200195312,        0.0024414062,      -33.4930419922,       -4.3029785156,     -131.7138671875
1494035588.0036029816,       -0.6777343750,        0.5200195312,        0.0024414062,      -33.4930419922,       -4.3029785156,     -131.7138671875
1494035588.0062980652,       -0.6777343750,        0.5200195312,        0.0024414062,      -37.4755859375,       -2.4871826172,     -128.2958984375
1494035588.0089960098,       -0.6909179688,        0.4697265625,        0.0136718750,      -37.4755859375,       -2.4871826172,     -128.2958984375
1494035588.0116980076,       -0.6909179688,        0.4697265625,        0.0136718750,      -40.5883789062,       -0.5340576172,     -125.3814697266
1494035588.0144119263,       -0.6909179688,        0.4697265625,        0.0136718750,      -40.5883789062,       -0.5340576172,     -125.3814697266
1494035588.0171120167,       -0.6909179688,        0.4697265625,        0.0136718750,      -44.6929931641,        0.0305175781,     -122.9858398438
1494035588.0199880600,       -0.6855468750,        0.4467773438,        0.0273437500,      -44.6929931641,        0.0305175781,     -122.9858398438
1494035588.0226790905,       -0.6855468750,        0.4467773438,        0.0273437500,      -46.8750000000,        0.2593994141,     -120.2239990234
1494035588.0254840851,       -0.6855468750,        0.4467773438,        0.0273437500,      -46.8750000000,        0.2593994141,     -120.2239990234
1494035588.0280458927,       -0.6855468750,        0.4228515625,        0.0434570312,      -48.6145019531,        1.1444091797,     -117.4011230469
1494035588.0306038857,       -0.6899414062,        0.4228515625,        0.0434570312,      -48.6145019531,        1.1444091797,     -117.4011230469
1494035588.0332109928,       -0.6899414062,        0.4228515625,        0.0434570312,      -50.2166748047,        1.0223388672,     -114.5782470703
1494035588.0359120369,       -0.6899414062,        0.4228515625,        0.0434570312,      -50.2166748047,        1.0223388672,     -114.5782470703
1494035588.0386040211,       -0.6865234375,        0.3852539062,        0.0205078125,      -51.4221191406,        1.3275146484,     -112.3504638672
1494035588.0413029194,       -0.6865234375,        0.3852539062,        0.0205078125,      -51.4221191406,        1.3275146484,     -112.3504638672
1494035588.0440039635,       -0.6865234375,        0.3852539062,        0.0205078125,      -52.9174804688,        1.9226074219,     -109.9395751953
1494035588.0467019081,       -0.6865234375,        0.3852539062,        0.0205078125,      -52.9174804688,        1.9226074219,     -109.9395751953
1494035588.0494000912,       -0.6928710938,        0.3461914062,       -0.0029296875,      -56.0455322266,        2.9449462891,     -108.9172363281
1494035588.0520980358,       -0.6928710938,        0.3461914062,       -0.0029296875,      -56.0455322266,        2.9449462891,     -108.9172363281
1494035588.0547199249,       -0.6928710938,        0.3461914062,       -0.0029296875,      -58.7768554688,        4.1503906250,     -108.8256835938
1494035588.0572719574,       -0.6928710938,        0.3461914062,       -0.0029296875,      -58.7768554688,        4.1503906250,     -108.8256835938
1494035588.0598309040,       -0.6928710938,        0.3208007812,       -0.0083007812,      -60.9283447266,        5.5847167969,     -108.4594726562
1494035588.0623860359,       -0.6928710938,        0.3208007812,       -0.0083007812,      -60.9283447266,        5.5847167969,     -108.4594726562
1494035588.0649940968,       -0.6928710938,        0.3208007812,       -0.0083007812,      -62.3016357422,        7.0190429688,     -107.8491210938
1494035588.0675590038,       -0.6928710938,        0.3208007812,       -0.0083007812,      -62.3016357422,        7.0190429688,     -107.8491210938
1494035588.0701189041,       -0.6997070312,        0.3476562500,        0.0058593750,      -62.3016357422,        7.9193115234,     -106.7199707031
1494035588.0727899075,       -0.6997070312,        0.3476562500,        0.0058593750,      -61.4013671875,        7.9193115234,     -106.7199707031
1494035588.0755178928,       -0.6997070312,        0.3476562500,        0.0058593750,      -61.4013671875,        8.4991455078,     -105.3466796875
1494035588.0780758858,       -0.6997070312,        0.3476562500,        0.0180664062,      -58.8226318359,        8.4991455078,     -105.3466796875
1494035588.0806369781,       -0.7348632812,        0.3803710938,        0.0180664062,      -58.8226318359,        8.4991455078,     -103.6529541016
1494035588.0833089352,       -0.7348632812,        0.3803710938,        0.0180664062,      -54.7027587891,        8.9111328125,     -103.6529541016
1494035588.0860109329,       -0.7348632812,        0.3803710938,        0.0180664062,      -54.7027587891,        8.9111328125,     -101.7608642578
1494035588.0887110233,       -0.7348632812,        0.4199218750,        0.0239257812,      -50.7659912109,        9.2315673828,     -101.7608642578
1494035588.0914111137,       -0.7211914062,        0.4199218750,        0.0239257812,      -50.7659912109,        9.2315673828,      -99.5635986328
1494035588.0941200256,       -0.7211914062,        0.4199218750,        0.0239257812,      -46.4935302734,        8.7890625000,      -99.5635986328
1494035588.0968210697,       -0.7211914062,        0.4199218750,        0.0239257812,      -46.4935302734,        8.7890625000,      -97.0458984375
1494035588.0995190144,       -0.7158203125,        0.4331054688,        0.0053710938,      -38.3758544922,        8.8500976562,      -97.0458984375
1494035588.1022269726,       -0.7158203125,        0.4331054688,        0.0053710938,      -38.3758544922,        8.8500976562,      -93.6584472656
1494035588.1049380302,       -0.7158203125,        0.4331054688,        0.0053710938,      -30.0750732422,       10.3302001953,      -93.6584472656
1494035588.1076409817,       -0.7158203125,        0.4331054688,        0.0053710938,      -30.0750732422,       10.3302001953,      -90.1947021484
1494035588.1103429794,       -0.7114257812,        0.4169921875,        0.0200195312,      -25.4211425781,        8.9874267578,      -90.1947021484
1494035588.1130390167,       -0.7114257812,        0.4169921875,        0.0200195312,      -25.4211425781,        8.9874267578,      -86.2884521484
1494035588.1156160831,       -0.7114257812,        0.4169921875,        0.0200195312,      -22.2473144531,        8.2550048828,      -87.0819091797
1494035588.1181750298,       -0.7114257812,        0.4169921875,        0.0200195312,      -22.2473144531,        8.2550048828,      -87.0819091797
1494035588.1207370758,       -0.7485351562,        0.3696289062,        0.0307617188,      -19.8974609375,        8.5754394531,      -83.9538574219
1494035588.1233060360,       -0.7485351562,        0.3696289062,        0.0307617188,      -19.8974609375,        8.5754394531,      -83.9538574219
1494035588.1260049343,       -0.7485351562,        0.3696289062,        0.0307617188,      -17.2424316406,        7.8125000000,      -80.7952880859
1494035588.1286981106,       -0.7485351562,        0.3696289062,        0.0327148438,      -17.2424316406,        7.8125000000,      -80.7952880859
1494035588.1313960552,       -0.7866210938,        0.3627929688,        0.0327148438,      -15.1214599609,        7.1105957031,      -77.6824951172
1494035588.1341040134,       -0.7866210938,        0.3627929688,        0.0327148438,      -15.1214599609,        7.1105957031,      -77.6824951172
1494035588.1367959976,       -0.7866210938,        0.3627929688,        0.0327148438,      -12.9089355469,        7.6293945312,      -74.7222900391
1494035588.1396639347,       -0.7934570312,        0.3403320312,        0.0429687500,      -12.9089355469,        7.6293945312,      -74.7222900391
1494035588.1423559189,       -0.7934570312,        0.3403320312,        0.0429687500,      -11.5509033203,        8.0566406250,      -71.5789794922
1494035588.1455950737,       -0.7934570312,        0.3403320312,        0.0429687500,      -11.5509033203,        8.0566406250,      -67.6727294922
1494035588.1482939720,       -0.7934570312,        0.3403320312,        0.0429687500,       -9.9182128906,        7.6293945312,      -69.1680908203
1494035588.1509850025,       -0.7739257812,        0.3374023438,        0.0605468750,       -9.9182128906,        7.6293945312,      -65.2618408203
1494035588.1536779404,       -0.7739257812,        0.3374023438,        0.0605468750,       -7.4005126953,        6.8817138672,      -65.8264160156
1494035588.1562271118,       -0.7739257812,        0.3374023438,        0.0605468750,       -7.4005126953,        6.8817138672,      -65.8264160156
1494035588.1587820053,       -0.7739257812,        0.3374023438,        0.0654296875,       -5.2947998047,        5.9814453125,      -62.1337890625
1494035588.1613309383,       -0.7700195312,        0.3457031250,        0.0654296875,       -5.2947998047,        5.9814453125,      -62.1337890625
1494035588.1639308929,       -0.7700195312,        0.3457031250,        0.0654296875,       -3.4027099609,        4.7912597656,      -58.3648681641
