time_stamp before, Acceleration x, Acceleration y, Acceleration z, Gyro x, Gyro y, Gyro z
1494035556.0137910843,       -0.6816406250,        0.1972656250,       -0.0249023438,      -81.0852050781,       38.1469726562,       -9.9945068359
1494035556.0273330212,       -0.6816406250,        0.1972656250,       -0.0249023438,      -81.4971923828,       36.5295410156,       -9.4604492188
1494035556.0301270485,       -0.6738281250,        0.2353515625,        0.0073242188,      -81.4971923828,       36.5295410156,       -9.4604492188
1494035556.0328230858,       -0.6738281250,        0.2353515625,        0.0073242188,      -79.8645019531,       34.7137451172,       -8.0261230469
1494035556.0355219841,       -0.6738281250,        0.2353515625,        0.0073242188,      -79.8645019531,       34.7137451172,       -4.1198730469
1494035556.0382199287,       -0.6738281250,        0.2353515625,        0.0073242188,      -78.0334472656,       32.8826904297,       -6.7596435547
1494035556.0409069061,       -0.6850585938,        0.2866210938,        0.0327148438,      -78.0334472656,       32.8826904297,       -6.7596435547
1494035556.0436050892,       -0.6850585938,        0.2866210938,        0.0327148438,      -76.2481689453,       31.7840576172,       -4.4250488281
1494035556.0462920666,       -0.6850585938,        0.2866210938,        0.0327148438,      -76.2481689453,       31.7840576172,       -4.4250488281
1494035556.0489768982,       -0.6850585938,        0.2866210938,        0.0722656250,      -72.5250244141,       29.1748046875,       -2.6245117188
1494035556.0516688824,       -0.6977539062,        0.3125000000,        0.0722656250,      -72.5250244141,       29.1748046875,       -2.6245117188
1494035556.0543670654,       -0.6977539062,        0.3125000000,        0.0722656250,      -68.3593750000,       25.4364013672,        0.0305175781
1494035556.0570600033,       -0.6977539062,        0.3125000000,        0.0722656250,      -68.3593750000,       25.4364013672,        0.0305175781
1494035556.0597550869,       -0.7167968750,        0.3061523438,        0.0751953125,      -62.3626708984,       21.8353271484,        2.5482177734
1494035556.0624430180,       -0.7167968750,        0.3061523438,        0.0751953125,      -62.3626708984,       21.8353271484,        2.5482177734
1494035556.0650489330,       -0.7167968750,        0.3061523438,        0.0751953125,      -56.7321777344,       19.1345214844,        4.9743652344
1494035556.0675990582,       -0.7167968750,        0.3061523438,        0.0751953125,      -56.7321777344,       19.1345214844,        4.9743652344
1494035556.0701479912,       -0.7504882812,        0.2700195312,        0.0727539062,      -51.1322021484,       16.4489746094,        7.8430175781
1494035556.0726990700,       -0.7504882812,        0.2700195312,        0.0727539062,      -51.1322021484,       16.4489746094,        7.8430175781
1494035556.0753409863,       -0.7504882812,        0.2700195312,        0.0727539062,      -45.7000732422,       14.0075683594,       11.4135742188
1494035556.0779030323,       -0.7504882812,        0.2700195312,        0.0727539062,      -45.7000732422,       14.0075683594,       11.4135742188
1494035556.0804679394,       -0.7998046875,        0.2324218750,        0.0366210938,      -41.0614013672,       12.1154785156,       14.4958496094
1494035556.0830309391,       -0.7998046875,        0.2324218750,        0.0366210938,      -41.0614013672,       12.1154785156,       14.4958496094
1494035556.0858149529,       -0.7998046875,        0.2324218750,        0.0366210938,      -35.8581542969,       10.3759765625,       16.9982910156
1494035556.0884931087,       -0.7998046875,        0.2324218750,        0.0366210938,      -35.8581542969,       10.3759765625,       16.9982910156
1494035556.0911750793,       -0.8295898438,        0.1904296875,        0.0263671875,      -31.0516357422,        9.3688964844,       19.6075439453
1494035556.0938649178,       -0.8295898438,        0.1904296875,        0.0263671875,      -31.0516357422,        9.3688964844,       19.6075439453
1494035556.0965139866,       -0.8295898438,        0.1904296875,        0.0263671875,      -26.4739990234,        8.2092285156,       22.0184326172
1494035556.0993499756,       -0.8295898438,        0.1904296875,        0.0253906250,      -26.4739990234,        8.2092285156,       22.0184326172
1494035556.1020519733,       -0.8510742188,        0.1479492188,        0.0253906250,      -22.3846435547,        6.8359375000,       23.5900878906
1494035556.1047580242,       -0.8510742188,        0.1479492188,        0.0253906250,      -22.3846435547,        6.8359375000,       23.5900878906
1494035556.1074581146,       -0.8510742188,        0.1479492188,        0.0253906250,      -17.3034667969,        5.6304931641,       25.3906250000
1494035556.1101579666,       -0.8510742188,        0.1210937500,        0.0292968750,      -17.3034667969,        5.6304931641,       25.3906250000
1494035556.1128520966,       -0.8593750000,        0.1210937500,        0.0292968750,      -12.5274658203,        3.9672851562,       26.5808105469
1494035556.1154420376,       -0.8593750000,        0.1210937500,        0.0292968750,      -12.5274658203,        3.9672851562,       26.5808105469
1494035556.1179940701,       -0.8593750000,        0.1210937500,        0.0292968750,      -12.5274658203,        2.6397705078,       27.1453857422
1494035556.1205449104,       -0.8320312500,        0.0957031250,        0.0429687500,       -8.1481933594,        2.6397705078,       27.1453857422
1494035556.1230990887,       -0.8320312500,        0.0957031250,        0.0429687500,       -8.1481933594,        2.6397705078,       28.0761718750
1494035556.1257939339,       -0.8320312500,        0.0957031250,        0.0429687500,       -3.0212402344,        0.3967285156,       28.0761718750
1494035556.1284890175,       -0.8320312500,        0.0957031250,        0.0429687500,       -3.0212402344,        0.3967285156,       28.9916992188
1494035556.1311740875,       -0.8134765625,        0.0800781250,        0.0571289062,        3.8909912109,       -2.6397705078,       28.9916992188
1494035556.1338698864,       -0.8134765625,        0.0800781250,        0.0571289062,        3.8909912109,       -2.6397705078,       29.8614501953
1494035556.1365671158,       -0.8134765625,        0.0800781250,        0.0571289062,        9.8571777344,       -4.5928955078,       29.8614501953
1494035556.1394081116,       -0.8134765625,        0.0800781250,        0.0571289062,        9.8571777344,       -4.5928955078,       30.0598144531
1494035556.1421020031,       -0.7812500000,        0.0493164062,        0.0483398438,       11.9171142578,       -6.8511962891,       30.0598144531
1494035556.1447238922,       -0.7812500000,        0.0493164062,        0.0483398438,       11.9171142578,       -6.8511962891,       29.7393798828
1494035556.1472771168,       -0.7812500000,        0.0493164062,        0.0483398438,       13.7176513672,      -10.4064941406,       29.7393798828
1494035556.1498379707,       -0.7812500000,        0.0493164062,        0.0620117188,       13.7176513672,      -10.4064941406,       29.7393798828
1494035556.1524009705,       -0.7241210938,        0.0454101562,        0.0620117188,       16.6473388672,      -14.1143798828,       29.6783447266
1494035556.1552469730,       -0.7241210938,        0.0454101562,        0.0620117188,       16.6473388672,      -14.1143798828,       29.6783447266
1494035556.1579461098,       -0.7241210938,        0.0454101562,        0.0620117188,       20.2484130859,      -17.3797607422,       29.7546386719
1494035556.1606490612,       -0.6035156250,        0.4111328125,        0.2768554688,       20.2484130859,      -17.3797607422,       29.7546386719
1494035556.1633849144,       -0.6035156250,        0.4111328125,        0.2768554688,       29.1290283203,      -32.0587158203,       26.5960693359
1494035556.1659491062,       -0.6035156250,        0.4111328125,        0.2768554688,       29.1290283203,      -32.0587158203,       26.5960693359
1494035556.1685039997,       -0.6035156250,        0.4111328125,        0.2768554688,       52.4749755859,      -59.5550537109,       16.8151855469
1494035556.1712000370,       -0.9604492188,        1.5273437500,        0.8906250000,       52.4749755859,      -59.5550537109,       16.8151855469
1494035556.1737699509,       -0.9604492188,        1.5273437500,        0.8906250000,       54.0313720703,      -45.4254150391,       31.7993164062
1494035556.1763279438,       -0.9604492188,        1.5273437500,        0.8906250000,       54.0313720703,      -45.4254150391,       31.7993164062
1494035556.1788880825,       -0.9604492188,        1.5273437500,        0.8906250000,       36.5142822266,       21.1486816406,       56.6406250000
1494035556.1814448833,       -1.1040039062,        0.1787109375,       -0.4379882812,       36.5142822266,       21.1486816406,       56.6406250000
1494035556.1841449738,       -1.1040039062,        0.1787109375,       -0.4379882812,       50.4760742188,       11.2762451172,       55.6793212891
1494035556.1867039204,       -1.1040039062,        0.1787109375,       -0.4379882812,       50.4760742188,       11.2762451172,       55.6793212891
1494035556.1892609596,       -1.1040039062,        0.1787109375,       -0.4379882812,       56.3812255859,      -30.0750732422,       63.5681152344
1494035556.1918220520,       -0.2998046875,        0.6230468750,        0.1582031250,       56.3812255859,      -30.0750732422,       63.5681152344
1494035556.1945888996,       -0.2998046875,        0.6230468750,        0.1582031250,       56.1218261719,      -28.9764404297,       83.0841064453
1494035556.1972920895,       -0.2998046875,        0.6230468750,        0.1582031250,       56.1218261719,      -28.9764404297,       83.0841064453
1494035556.1999878883,       -0.2998046875,        0.6230468750,       -0.0917968750,       59.0209960938,      -15.0451660156,       90.7745361328
1494035556.2026810646,       -1.2485351562,       -0.5273437500,       -0.0361328125,       59.0209960938,      -15.0451660156,       90.7745361328
1494035556.2053930759,       -1.2485351562,       -0.5273437500,       -0.0361328125,       75.3326416016,      -16.9067382812,       71.4874267578
1494035556.2080869675,       -1.2485351562,       -0.5273437500,       -0.0361328125,       75.3326416016,      -16.9067382812,       71.4874267578
1494035556.2107870579,       -1.2485351562,       -0.8115234375,       -0.2822265625,       65.9179687500,      -23.2391357422,       53.5430908203
1494035556.2134981155,       -1.2143554688,       -0.8115234375,       -0.2822265625,       65.9179687500,      -23.2391357422,       53.5430908203
1494035556.2160580158,       -1.2143554688,       -0.8115234375,       -0.2822265625,       65.9179687500,      -19.9279785156,       53.4515380859
1494035556.2186141014,       -1.2143554688,       -0.8115234375,       -0.2822265625,       33.0047607422,      -19.9279785156,       53.4515380859
1494035556.2211759090,       -1.2143554688,       -0.6899414062,       -0.0996093750,       33.0047607422,      -18.9056396484,       51.3000488281
1494035556.2242500782,       -1.1909179688,       -0.6899414062,       -0.0996093750,       13.2904052734,      -18.9056396484,       51.3000488281
1494035556.2269160748,       -1.1909179688,       -0.6899414062,       -0.0996093750,       -2.3345947266,      -18.0511474609,       46.8902587891
1494035556.2296769619,       -1.1909179688,       -0.6899414062,       -0.0996093750,       -1.1291503906,      -18.0511474609,       46.8902587891
1494035556.2331309319,       -1.3334960938,       -0.0063476562,       -0.1181640625,      -15.5944824219,      -14.0838623047,       51.5289306641
1494035556.2358880043,       -1.3334960938,       -0.0063476562,       -0.1181640625,      -15.5944824219,      -14.0838623047,       51.5289306641
1494035556.2385940552,       -1.3334960938,       -0.0063476562,       -0.1181640625,      -30.2124023438,       -7.0190429688,       64.0258789062
1494035556.2412960529,       -1.5834960938,        0.2519531250,       -0.3496093750,      -30.2124023438,       -7.0190429688,       64.0258789062
1494035556.2439959049,       -1.5087890625,        0.2519531250,       -0.3496093750,      -41.9006347656,        2.6397705078,       72.7233886719
1494035556.2470281124,       -1.5087890625,        0.2519531250,       -0.3496093750,      -41.9006347656,        2.6397705078,       72.7233886719
1494035556.2497379780,       -1.5087890625,        0.2519531250,       -0.3496093750,      -44.9981689453,        7.2326660156,       73.3642578125
1494035556.2524380684,       -1.2915039062,       -0.0688476562,       -0.6030273438,      -44.9981689453,        7.2326660156,       73.3642578125
1494035556.2550609112,       -1.2915039062,       -0.0688476562,       -0.6030273438,      -47.5158691406,        1.7395019531,       74.3560791016
1494035556.2576229572,       -1.2915039062,       -0.0688476562,       -0.6030273438,      -47.5158691406,        1.7395019531,       74.3560791016
1494035556.2601819038,       -1.2915039062,       -0.0688476562,       -0.6030273438,      -49.7741699219,       -6.0729980469,       75.6378173828
1494035556.2627511024,       -0.9140625000,        0.1635742188,       -0.2631835938,      -49.7741699219,       -6.0729980469,       75.6378173828
1494035556.2653629780,       -0.9140625000,        0.1635742188,       -0.2631835938,      -43.4722900391,      -12.4053955078,       74.9664306641
1494035556.2680969238,       -0.9140625000,        0.1635742188,       -0.2631835938,      -43.4722900391,      -12.4053955078,       74.9664306641
1494035556.2706599236,       -0.9140625000,        0.1635742188,       -0.0131835938,      -27.8472900391,      -20.8435058594,       70.8312988281
1494035556.2733209133,       -0.8393554688,        0.3486328125,       -0.0239257812,      -29.6325683594,      -20.8435058594,       70.8312988281
1494035556.2758920193,       -0.8393554688,        0.3486328125,       -0.0239257812,      -29.6325683594,      -29.0832519531,       65.7653808594
1494035556.2784531116,       -0.8393554688,        0.3486328125,       -0.0239257812,      -16.6473388672,      -29.0832519531,       65.7653808594
1494035556.2810111046,       -0.8393554688,        0.3486328125,       -0.0600585938,      -16.6473388672,      -29.0832519531,       61.9506835938
1494035556.2836871147,       -0.7622070312,        0.2866210938,       -0.0600585938,       -7.3242187500,      -34.5916748047,       61.9506835938
1494035556.2862539291,       -0.7622070312,        0.2866210938,       -0.0600585938,       -7.3242187500,      -34.5916748047,       58.9447021484
1494035556.2888109684,       -0.7622070312,        0.2866210938,       -0.0600585938,        0.2899169922,      -37.2161865234,       58.9447021484
1494035556.2913789749,       -0.7622070312,        0.2919921875,       -0.1376953125,        0.2899169922,      -37.2161865234,       58.9447021484
1494035556.2939419746,       -0.7065429688,        0.2919921875,       -0.1376953125,        5.8288574219,      -37.9943847656,       56.3812255859
1494035556.2964959145,       -0.7065429688,        0.2919921875,       -0.1376953125,        5.8288574219,      -37.9943847656,       56.3812255859
1494035556.2990529537,       -0.7065429688,        0.2919921875,       -0.1376953125,        5.9051513672,      -34.9731445312,       53.4210205078
1494035556.3016099930,       -0.7065429688,        0.1391601562,       -0.0283203125,        5.9051513672,      -34.9731445312,       53.4210205078
1494035556.3042199612,       -0.7246093750,        0.1391601562,       -0.0283203125,        1.6174316406,      -31.2652587891,       51.5899658203
1494035556.3067770004,       -0.7246093750,        0.1391601562,       -0.0283203125,        1.6174316406,      -31.2652587891,       51.5899658203
1494035556.3093299866,       -0.7246093750,        0.1391601562,       -0.0283203125,       -4.0130615234,      -28.0151367188,       50.4150390625
1494035556.3118939400,       -0.7246093750,        0.2011718750,        0.0966796875,       -4.0130615234,      -28.0151367188,       50.4150390625
1494035556.3145570755,       -0.6401367188,        0.2011718750,        0.0966796875,       -9.2773437500,      -25.8636474609,       48.5382080078
1494035556.3171200752,       -0.6401367188,        0.2011718750,        0.0966796875,       -9.2773437500,      -25.8636474609,       48.5382080078
1494035556.3197839260,       -0.6401367188,        0.2011718750,        0.0966796875,      -14.1296386719,      -23.2543945312,       45.8221435547
1494035556.3223490715,       -0.5312500000,        0.3364257812,        0.1250000000,      -14.1296386719,      -23.2543945312,       45.8221435547
1494035556.3250279427,       -0.5312500000,        0.3364257812,        0.1250000000,      -18.0358886719,      -19.5465087891,       42.1905517578
1494035556.3277249336,       -0.5312500000,        0.3364257812,        0.1250000000,      -17.5628662109,      -19.5465087891,       42.1905517578
1494035556.3304181099,       -0.5312500000,        0.3364257812,        0.1250000000,      -17.5628662109,      -15.5639648438,       36.7431640625
1494035556.3331201077,       -0.5585937500,        0.2812500000,        0.0625000000,      -18.9971923828,      -15.5639648438,       36.7431640625
1494035556.3356840611,       -0.5585937500,        0.2812500000,        0.0625000000,      -18.9971923828,      -11.6577148438,       31.1584472656
1494035556.3382420540,       -0.5585937500,        0.2812500000,        0.0625000000,      -22.8576660156,      -10.0708007812,       31.1584472656
1494035556.3408350945,       -0.5585937500,        0.2812500000,        0.0625000000,      -22.8576660156,      -10.0708007812,       27.2979736328
1494035556.3434588909,       -0.6557617188,        0.2377929688,        0.1083984375,      -28.2440185547,       -3.6163330078,       27.2979736328
1494035556.3461580276,       -0.6557617188,        0.2377929688,        0.1083984375,      -28.2440185547,       -3.6163330078,       23.1170654297
1494035556.3488531113,       -0.6557617188,        0.2377929688,        0.1083984375,      -30.8990478516,        0.2441406250,       23.1170654297
1494035556.3515460491,       -0.6557617188,        0.2377929688,        0.1166992188,      -30.8990478516,        0.2441406250,       19.3176269531
1494035556.3542799950,       -0.7836914062,        0.2192382812,        0.1166992188,      -29.3884277344,        0.9155273438,       19.3176269531
1494035556.3569738865,       -0.7836914062,        0.2192382812,        0.1166992188,      -29.3884277344,        0.9155273438,       15.4724121094
1494035556.3596711159,       -0.7836914062,        0.2192382812,        0.1166992188,      -27.7404785156,        0.9765625000,       15.4724121094
1494035556.3623669147,       -0.7836914062,        0.2397460938,        0.0029296875,      -27.7404785156,        0.9765625000,       14.5416259766
1494035556.3650760651,       -0.8403320312,        0.2397460938,        0.0029296875,      -26.3977050781,        1.3275146484,       14.5416259766
1494035556.3677821159,       -0.8403320312,        0.2397460938,        0.0029296875,      -26.3977050781,        1.3275146484,       14.1296386719
1494035556.3704779148,       -0.8403320312,        0.2397460938,        0.0029296875,      -24.5819091797,        2.0294189453,       14.1296386719
1494035556.3731849194,       -0.8076171875,        0.2744140625,       -0.0908203125,      -24.5819091797,        2.0294189453,       14.1296386719
1494035556.3757441044,       -0.8076171875,        0.2744140625,       -0.0908203125,      -23.5748291016,        2.4108886719,       13.7481689453
1494035556.3783009052,       -0.8076171875,        0.2744140625,       -0.0908203125,      -23.5748291016,        2.4108886719,       13.7481689453
1494035556.3808639050,       -0.8076171875,        0.2744140625,       -0.0908203125,      -23.8342285156,        2.1057128906,       13.0004882812
1494035556.3835690022,       -0.7285156250,        0.2993164062,       -0.1206054688,      -23.8342285156,        2.1057128906,       13.0004882812
1494035556.3861300945,       -0.7285156250,        0.2993164062,       -0.1206054688,      -24.6429443359,        1.5106201172,       11.6882324219
1494035556.3886859417,       -0.7285156250,        0.2993164062,       -0.1206054688,      -24.6429443359,        1.5106201172,       11.6882324219
1494035556.3913540840,       -0.7285156250,        0.2993164062,       -0.1206054688,      -28.8696289062,        1.3732910156,        9.9334716797
1494035556.3940858841,       -0.6860351562,        0.2651367188,       -0.0600585938,      -28.8696289062,        1.3732910156,        9.9334716797
1494035556.3967859745,       -0.6860351562,        0.2651367188,       -0.0600585938,      -35.8428955078,        1.0070800781,        7.4768066406
1494035556.3994770050,       -0.6860351562,        0.2651367188,       -0.0600585938,      -35.8428955078,        1.0070800781,        7.4768066406
1494035556.4021708965,       -0.6860351562,        0.2651367188,       -0.0629882812,      -37.3077392578,       -0.2593994141,        5.8593750000
1494035556.4048759937,       -0.7041015625,        0.2666015625,       -0.0629882812,      -37.3077392578,       -0.2593994141,        5.8593750000
1494035556.4075748920,       -0.7041015625,        0.2666015625,       -0.0629882812,      -34.6221923828,       -1.8920898438,        4.5776367188
1494035556.4102680683,       -0.7041015625,        0.2666015625,       -0.0629882812,      -34.6221923828,       -1.8920898438,        4.5776367188
1494035556.4129691124,       -0.6845703125,        0.3110351562,       -0.0478515625,      -30.3802490234,       -3.6010742188,        3.2196044922
1494035556.4155468941,       -0.6845703125,        0.3110351562,       -0.0478515625,      -30.3802490234,       -3.6010742188,        3.2196044922
1494035556.4181010723,       -0.6845703125,        0.3110351562,       -0.0478515625,      -24.8107910156,       -5.2947998047,        1.5869140625
1494035556.4206550121,       -0.6845703125,        0.3110351562,       -0.0478515625,      -24.8107910156,       -5.2947998047,        1.5869140625
1494035556.4232370853,       -0.6748046875,        0.3134765625,       -0.0356445312,      -20.5535888672,       -6.2408447266,       -0.0305175781
1494035556.4259281158,       -0.6748046875,        0.3134765625,       -0.0356445312,      -20.5535888672,       -6.2408447266,       -0.0305175781
1494035556.4286220074,       -0.6748046875,        0.3134765625,       -0.0356445312,      -15.5029296875,       -6.6528320312,       -1.8920898438
1494035556.4312849045,       -0.6748046875,        0.3134765625,       -0.0356445312,      -15.5029296875,       -6.6528320312,       -1.8920898438
1494035556.4340438843,       -0.6708984375,        0.2910156250,        0.0039062500,      -12.0086669922,       -7.1105957031,       -3.7231445312
1494035556.4366939068,       -0.6708984375,        0.2910156250,        0.0039062500,      -12.0086669922,       -7.1105957031,       -3.7231445312
1494035556.4394669533,       -0.6708984375,        0.2910156250,        0.0039062500,       -9.3841552734,       -8.0871582031,       -5.5236816406
1494035556.4425060749,       -0.6708984375,        0.2910156250,        0.0136718750,       -9.3841552734,       -8.0871582031,       -5.5236816406
1494035556.4452071190,       -0.6772460938,        0.2924804688,        0.0136718750,       -6.5155029297,       -8.6822509766,       -7.8277587891
1494035556.4478991032,       -0.6772460938,        0.2924804688,        0.0136718750,       -6.5155029297,       -8.6822509766,       -7.8277587891
1494035556.4505860806,       -0.6772460938,        0.2924804688,        0.0136718750,       -3.4637451172,       -9.5825195312,      -10.0708007812
1494035556.4532918930,       -0.6777343750,        0.2856445312,        0.0102539062,       -3.4637451172,       -9.5825195312,      -10.0708007812
1494035556.4558429718,       -0.6777343750,        0.2856445312,        0.0102539062,       -0.4882812500,      -10.5438232422,      -11.3983154297
1494035556.4584050179,       -0.6777343750,        0.2856445312,        0.0102539062,       -0.4882812500,      -10.5438232422,      -11.3983154297
1494035556.4609580040,       -0.6777343750,        0.2856445312,        0.0102539062,       -0.4882812500,      -12.1154785156,      -13.0615234375
1494035556.4635350704,       -0.6704101562,        0.2656250000,       -0.0161132812,        1.6937255859,      -12.1154785156,      -13.0615234375
1494035556.4663529396,       -0.6704101562,        0.2656250000,       -0.0161132812,        1.6937255859,      -13.0004882812,      -14.4500732422
1494035556.4690499306,       -0.6704101562,        0.2656250000,       -0.0161132812,        1.8310546875,      -13.0004882812,      -14.4500732422
1494035556.4717409611,       -0.6704101562,        0.2656250000,       -0.0161132812,        1.8310546875,      -14.3585205078,      -15.1519775391
1494035556.4744269848,       -0.6821289062,        0.2758789062,       -0.0415039062,        2.9602050781,      -14.3585205078,      -15.1519775391
1494035556.4769799709,       -0.6821289062,        0.2758789062,       -0.0415039062,        2.9602050781,      -14.3585205078,      -15.5487060547
1494035556.4795379639,       -0.6821289062,        0.2758789062,       -0.0415039062,        4.4708251953,      -15.8233642578,      -15.5487060547
1494035556.4820890427,       -0.6821289062,        0.2758789062,       -0.0415039062,        4.4708251953,      -15.8233642578,      -15.3808593750
1494035556.4847528934,       -0.6997070312,        0.2446289062,       -0.0463867188,        4.5928955078,      -16.0980224609,      -15.3808593750
1494035556.4873209000,       -0.6997070312,        0.2446289062,       -0.0463867188,        4.5928955078,      -16.0980224609,      -15.3808593750
1494035556.4898819923,       -0.6997070312,        0.2446289062,       -0.0463867188,        3.4027099609,      -15.8081054688,      -14.9383544922
1494035556.4924418926,       -0.6997070312,        0.2446289062,       -0.0463867188,        3.4027099609,      -15.8081054688,      -14.9383544922
1494035556.4952108860,       -0.7158203125,        0.1884765625,       -0.0180664062,        1.6784667969,      -15.4266357422,      -14.3737792969
1494035556.4979109764,       -0.7158203125,        0.1884765625,       -0.0180664062,        1.6784667969,      -15.4266357422,      -14.3737792969
1494035556.5006051064,       -0.7158203125,        0.1884765625,       -0.0180664062,        1.2359619141,      -15.5487060547,      -13.8397216797
1494035556.5033090115,       -0.7158203125,        0.1708984375,        0.0312500000,        1.2359619141,      -15.5487060547,      -13.8397216797
1494035556.5058710575,       -0.7265625000,        0.1708984375,        0.0312500000,        3.4942626953,      -15.3808593750,      -12.2222900391
1494035556.5084331036,       -0.7265625000,        0.1708984375,        0.0312500000,        3.4942626953,      -15.3808593750,      -12.2222900391
1494035556.5109910965,       -0.7265625000,        0.1708984375,        0.0312500000,        7.0953369141,      -15.1214599609,      -11.0931396484
1494035556.5135750771,       -0.7265625000,        0.1420898438,        0.0371093750,        7.0953369141,      -15.1214599609,      -11.0931396484
1494035556.5162830353,       -0.7680664062,        0.1420898438,        0.0371093750,       11.8865966797,      -15.6707763672,      -10.9710693359
1494035556.5189828873,       -0.7680664062,        0.1420898438,        0.0371093750,       11.8865966797,      -15.6707763672,      -10.9710693359
1494035556.5216820240,       -0.7680664062,        0.1420898438,        0.0371093750,       14.2974853516,      -16.6015625000,       -8.7585449219
1494035556.5243349075,       -0.8339843750,        0.0688476562,        0.0151367188,       14.2974853516,      -16.6015625000,       -8.7585449219
1494035556.5268869400,       -0.8339843750,        0.0688476562,        0.0151367188,       14.2974853516,      -16.7236328125,       -6.6070556641
1494035556.5294508934,       -0.8339843750,        0.0688476562,        0.0151367188,       14.2974853516,      -16.7236328125,       -6.6070556641
1494035556.5320050716,       -0.8339843750,        0.0688476562,        0.0151367188,       13.4582519531,      -16.1132812500,       -3.8604736328
1494035556.5347030163,       -0.7939453125,        0.1113281250,       -0.0009765625,       13.4582519531,      -16.1132812500,       -3.8604736328
1494035556.5374109745,       -0.7939453125,        0.1113281250,       -0.0009765625,       11.5203857422,      -15.5639648438,       -0.9460449219
1494035556.5402131081,       -0.7939453125,        0.1113281250,       -0.0009765625,       11.5203857422,      -15.5639648438,       -0.9460449219
1494035556.5429179668,       -0.7939453125,        0.1113281250,       -0.0009765625,       11.3525390625,      -15.3503417969,        1.5716552734
1494035556.5456209183,       -0.7241210938,        0.2192382812,        0.0102539062,       11.3525390625,      -15.3503417969,        1.5716552734
1494035556.5483179092,       -0.7241210938,        0.2192382812,        0.0102539062,       11.9018554688,      -14.9688720703,        3.4790039062
1494035556.5511798859,       -0.7241210938,        0.2192382812,        0.0102539062,       11.9018554688,      -14.9688720703,        3.4790039062
1494035556.5541100502,       -0.7241210938,        0.1806640625,        0.0131835938,       11.0321044922,      -13.9007568359,        4.8522949219
1494035556.5566809177,       -0.7114257812,        0.1806640625,        0.0131835938,       11.0321044922,      -13.9007568359,        4.8522949219
1494035556.5592401028,       -0.7114257812,        0.1806640625,        0.0131835938,        8.3923339844,      -11.8713378906,        6.3934326172
1494035556.5617909431,       -0.7114257812,        0.1806640625,        0.0131835938,        8.3923339844,      -11.8713378906,        6.3934326172
1494035556.5644659996,       -0.7333984375,        0.1420898438,        0.0263671875,        4.4860839844,       -9.2773437500,        8.0413818359
1494035556.5671548843,       -0.7333984375,        0.1420898438,        0.0263671875,        5.4321289062,       -9.2773437500,        8.0413818359
1494035556.5698370934,       -0.7333984375,        0.1420898438,        0.0263671875,        5.4321289062,       -7.7514648438,        9.8571777344
1494035556.5725309849,       -0.7333984375,        0.1420898438,        0.0263671875,        4.3487548828,       -7.7514648438,        9.8571777344
1494035556.5752639771,       -0.7216796875,        0.2094726562,        0.0522460938,        0.4425048828,       -6.6986083984,       11.5509033203
1494035556.5779590607,       -0.7216796875,        0.2094726562,        0.0522460938,        3.5858154297,       -6.6986083984,       11.5509033203
1494035556.5806479454,       -0.7216796875,        0.2094726562,        0.0522460938,        3.5858154297,       -5.4626464844,       12.7410888672
1494035556.5833320618,       -0.7216796875,        0.2094726562,        0.0522460938,        1.9531250000,       -5.4626464844,       12.7410888672
1494035556.5858900547,       -0.6992187500,        0.2216796875,        0.0502929688,        1.9531250000,       -5.4626464844,       13.1530761719
1494035556.5884430408,       -0.6992187500,        0.2216796875,        0.0502929688,       -0.3662109375,       -3.3569335938,       13.1530761719
1494035556.5909988880,       -0.6992187500,        0.2216796875,        0.0502929688,       -0.3662109375,       -3.3569335938,       13.1530761719
1494035556.5935609341,       -0.6992187500,        0.2216796875,        0.0502929688,       -2.1057128906,       -2.4566650391,       14.0533447266
1494035556.5961179733,       -0.6796875000,        0.2187500000,        0.0302734375,       -2.1057128906,       -2.4566650391,       14.0533447266
1494035556.5986719131,       -0.6796875000,        0.2187500000,        0.0302734375,       -3.2501220703,       -1.4343261719,       14.5416259766
1494035556.6012270451,       -0.6796875000,        0.2187500000,        0.0302734375,       -3.2501220703,       -1.4343261719,       14.5416259766
1494035556.6038269997,       -0.6796875000,        0.2187500000,        0.0351562500,       -4.0130615234,       -0.6408691406,       14.9688720703
1494035556.6063849926,       -0.6889648438,        0.2148437500,        0.0351562500,       -4.0130615234,       -0.6408691406,       14.9688720703
1494035556.6089398861,       -0.6889648438,        0.2148437500,        0.0351562500,       -4.8980712891,       -0.3662109375,       15.8538818359
1494035556.6115980148,       -0.6889648438,        0.2148437500,        0.0351562500,       -4.8980712891,       -0.3662109375,       15.8538818359
1494035556.6143689156,       -0.6889648438,        0.2285156250,        0.0097656250,       -5.6762695312,       -0.6256103516,       15.9149169922
1494035556.6170480251,       -0.7236328125,        0.2285156250,        0.0097656250,       -5.6762695312,       -0.6256103516,       15.9149169922
1494035556.6197359562,       -0.7236328125,        0.2285156250,        0.0097656250,       -7.0800781250,       -0.6713867188,       16.2048339844
1494035556.6224191189,       -0.7236328125,        0.2285156250,        0.0097656250,       -7.0800781250,       -0.6713867188,       16.2048339844
1494035556.6251080036,       -0.7045898438,        0.2421875000,        0.0034179688,       -7.5683593750,       -0.8850097656,       16.7846679688
1494035556.6277959347,       -0.7045898438,        0.2421875000,        0.0034179688,       -7.5683593750,       -0.8850097656,       16.7846679688
1494035556.6304779053,       -0.7045898438,        0.2421875000,        0.0034179688,       -5.5084228516,       -0.9613037109,       16.6778564453
1494035556.6332440376,       -0.7045898438,        0.2421875000,        0.0034179688,       -5.5084228516,       -0.9613037109,       16.6778564453
1494035556.6359009743,       -0.7221679688,        0.2407226562,        0.0058593750,       -1.9073486328,       -1.6784667969,       16.3574218750
1494035556.6385540962,       -0.7221679688,        0.2407226562,        0.0058593750,       -1.9073486328,       -1.6784667969,       16.3574218750
1494035556.6412060261,       -0.7221679688,        0.2407226562,        0.0058593750,        0.3204345703,       -2.6397705078,       16.4489746094
1494035556.6439049244,       -0.7221679688,        0.2407226562,       -0.1191406250,        0.3204345703,       -2.6397705078,       16.4489746094
1494035556.6466040611,       -0.7500000000,        0.1914062500,       -0.0053710938,        1.0070800781,       -2.9296875000,       17.0440673828
1494035556.6493000984,       -0.7500000000,        0.1914062500,       -0.0053710938,        1.0070800781,       -2.9296875000,       17.0440673828
1494035556.6519889832,       -0.7500000000,        0.1914062500,       -0.0053710938,        2.2125244141,       -4.1351318359,       17.9901123047
1494035556.6546969414,       -0.7500000000,        0.1796875000,       -0.0009765625,        2.2125244141,       -4.1351318359,       17.9901123047
1494035556.6572558880,       -0.7436523438,        0.1796875000,       -0.0009765625,        2.3498535156,       -5.0354003906,       19.8059082031
1494035556.6598050594,       -0.7436523438,        0.1796875000,       -0.0009765625,        2.3498535156,       -5.0354003906,       19.8059082031
1494035556.6623609066,       -0.7436523438,        0.1796875000,       -0.0009765625,        2.3498535156,       -5.8135986328,       21.7590332031
1494035556.6650180817,       -0.8686523438,        0.1865234375,       -0.0146484375,        1.2817382812,       -5.8135986328,       21.7590332031
1494035556.6677100658,       -0.7553710938,        0.1865234375,       -0.0146484375,        1.2817382812,       -6.5612792969,       22.8271484375
1494035556.6704618931,       -0.7553710938,        0.1865234375,       -0.0146484375,        0.6103515625,       -6.5612792969,       22.8271484375
1494035556.6735548973,       -0.7553710938,        0.1865234375,       -0.0146484375,        0.2746582031,       -7.1411132812,       23.8037109375
1494035556.6762659550,       -0.7329101562,        0.2158203125,       -0.0332031250,        0.2746582031,       -7.1411132812,       23.8037109375
1494035556.6789619923,       -0.7329101562,        0.2158203125,       -0.0332031250,       -0.9002685547,       -7.2021484375,       25.1464843750
1494035556.6816549301,       -0.7329101562,        0.2158203125,       -0.0332031250,       -0.9002685547,       -7.2021484375,       25.1464843750
1494035556.6843609810,       -0.7329101562,        0.2158203125,       -0.0332031250,       -1.3427734375,       -7.5073242188,       26.4892578125
1494035556.6871678829,       -0.7138671875,        0.2426757812,       -0.0205078125,       -1.3427734375,       -7.5073242188,       26.4892578125
1494035556.6898620129,       -0.7138671875,        0.2426757812,       -0.0205078125,       -1.4953613281,       -6.8664550781,       27.3132324219
1494035556.6925580502,       -0.7138671875,        0.2426757812,       -0.0205078125,       -1.4953613281,       -6.8664550781,       27.3132324219
1494035556.6952919960,       -0.7138671875,        0.2416992188,        0.0063476562,       -1.4038085938,       -6.1645507812,       28.0456542969
1494035556.6979880333,       -0.6958007812,        0.2416992188,        0.0063476562,       -1.4038085938,       -6.1645507812,       28.0456542969
1494035556.7006790638,       -0.6958007812,        0.2416992188,        0.0063476562,       -1.6174316406,       -5.8135986328,       28.3203125000
1494035556.7034161091,       -0.6958007812,        0.2416992188,        0.0063476562,       -1.6174316406,       -5.8135986328,       28.3203125000
1494035556.7059710026,       -0.7050781250,        0.2460937500,        0.0468750000,       -1.6174316406,       -3.9367675781,       28.7170410156
1494035556.7085249424,       -0.7050781250,        0.2460937500,        0.0468750000,       -2.0904541016,       -3.9367675781,       28.7170410156
1494035556.7110769749,       -0.7050781250,        0.2460937500,        0.0468750000,       -2.0904541016,       -3.9367675781,       29.0832519531
1494035556.7136790752,       -0.7050781250,        0.2460937500,        0.0468750000,       -1.8463134766,       -3.1738281250,       29.0832519531
1494035556.7162330151,       -0.6835937500,        0.2465820312,        0.0454101562,       -1.8463134766,       -3.1738281250,       29.7241210938
1494035556.7187910080,       -0.6835937500,        0.2465820312,        0.0454101562,       -0.9155273438,       -3.0975341797,       29.7241210938
1494035556.7213449478,       -0.6835937500,        0.2465820312,        0.0454101562,       -0.9155273438,       -3.0975341797,       29.7241210938
1494035556.7240090370,       -0.6835937500,        0.2465820312,        0.0454101562,       -0.2899169922,       -2.0904541016,       30.0750732422
1494035556.7265670300,       -0.6782226562,        0.2680664062,        0.0434570312,       -0.2899169922,       -2.0904541016,       30.0750732422
1494035556.7291240692,       -0.6782226562,        0.2680664062,        0.0434570312,        0.1373291016,       -2.1057128906,       30.9600830078
1494035556.7316749096,       -0.6782226562,        0.2680664062,        0.0434570312,        0.1373291016,       -2.1057128906,       30.9600830078
1494035556.7343919277,       -0.6782226562,        0.2680664062,        0.0434570312,        1.9683837891,       -2.4261474609,       31.3873291016
1494035556.7370469570,       -0.7182617188,        0.2558593750,        0.0327148438,        1.9683837891,       -2.4261474609,       31.3873291016
1494035556.7396960258,       -0.7182617188,        0.2558593750,        0.0327148438,        3.1585693359,       -2.9296875000,       31.9519042969
1494035556.7423501015,       -0.7182617188,        0.2558593750,        0.0327148438,        3.1585693359,       -2.9296875000,       31.9519042969
1494035556.7451109886,       -0.7182617188,        0.2558593750,        0.0253906250,        4.1351318359,       -2.9907226562,       33.1268310547
1494035556.7478098869,       -0.7270507812,        0.2338867188,        0.0253906250,        4.1351318359,       -2.9907226562,       33.1268310547
1494035556.7505030632,       -0.7270507812,        0.2338867188,        0.0253906250,        4.6997070312,       -3.7689208984,       35.2172851562
1494035556.7532019615,       -0.7270507812,        0.2338867188,        0.0253906250,        4.6997070312,       -3.7689208984,       35.2172851562
1494035556.7557570934,       -0.7270507812,        0.2143554688,        0.0092773438,        4.7149658203,       -4.2114257812,       37.0635986328
1494035556.7583069801,       -0.7490234375,        0.2143554688,        0.0092773438,        4.7149658203,       -4.2114257812,       37.0635986328
1494035556.7609720230,       -0.7490234375,        0.2143554688,        0.0092773438,        3.4179687500,       -3.9062500000,       39.0472412109
1494035556.7635369301,       -0.7490234375,        0.2143554688,        0.0092773438,        3.4179687500,       -3.9062500000,       39.0472412109
1494035556.7660930157,       -0.8740234375,        0.1870117188,       -0.0195312500,        1.0986328125,       -1.9073486328,       41.5496826172
1494035556.7686519623,       -0.7558593750,        0.1870117188,       -0.0195312500,        1.0986328125,       -1.9073486328,       41.5496826172
1494035556.7712059021,       -0.7558593750,        0.1870117188,       -0.0195312500,        1.0986328125,       -0.0610351562,       44.2657470703
1494035556.7738890648,       -0.7558593750,        0.1870117188,       -0.0195312500,       -3.3721923828,       -0.0610351562,       44.2657470703
1494035556.7764530182,       -0.7133789062,        0.2055664062,        0.0048828125,       -3.3721923828,        3.8452148438,       46.8597412109
1494035556.7790060043,       -0.7133789062,        0.2055664062,        0.0048828125,       -8.0108642578,        0.5950927734,       46.8597412109
1494035556.7815608978,       -0.7133789062,        0.2055664062,        0.0048828125,       -8.0108642578,        0.5950927734,       49.0112304688
1494035556.7842431068,       -0.7133789062,        0.2055664062,        0.0048828125,      -11.0931396484,        1.0528564453,       49.0112304688
1494035556.7869009972,       -0.6381835938,        0.3061523438,        0.0561523438,      -11.0931396484,        1.0528564453,       49.7741699219
1494035556.7895998955,       -0.6381835938,        0.3061523438,        0.0561523438,      -12.5274658203,        1.3275146484,       49.7741699219
1494035556.7922821045,       -0.6381835938,        0.3061523438,        0.0561523438,      -12.5274658203,        1.3275146484,       49.6520996094
1494035556.7951519489,       -0.6381835938,        0.3061523438,        0.0561523438,      -11.9934082031,        0.9918212891,       49.6520996094
1494035556.7978539467,       -0.6357421875,        0.3422851562,        0.0419921875,      -11.9934082031,        0.9918212891,       49.2095947266
1494035556.8005509377,       -0.6357421875,        0.3422851562,        0.0419921875,       -9.6588134766,        0.5493164062,       49.2095947266
1494035556.8032629490,       -0.6357421875,        0.3422851562,        0.0419921875,       -9.6588134766,        0.5493164062,       49.2095947266
1494035556.8058240414,       -0.6357421875,        0.3422851562,        0.0185546875,       -7.6446533203,        0.5645751953,       48.5229492188
1494035556.8083810806,       -0.6513671875,        0.3193359375,        0.0185546875,       -7.6446533203,        0.5645751953,       48.5229492188
1494035556.8109331131,       -0.6513671875,        0.3193359375,        0.0185546875,       -7.1563720703,        1.1749267578,       48.0346679688
1494035556.8135221004,       -0.6513671875,        0.3193359375,        0.0185546875,       -7.1563720703,        1.1749267578,       48.0346679688
1494035556.8162190914,       -0.6513671875,        0.2998046875,        0.0297851562,       -7.7667236328,        1.5869140625,       48.4771728516
1494035556.8189179897,       -0.6708984375,        0.2998046875,        0.0297851562,       -7.7667236328,        1.5869140625,       48.4771728516
1494035556.8216109276,       -0.6708984375,        0.2998046875,        0.0297851562,       -8.4075927734,        1.9378662109,       47.9431152344
1494035556.8242669106,       -0.6708984375,        0.2998046875,        0.0297851562,       -8.4075927734,        1.9378662109,       47.9431152344
1494035556.8268160820,       -0.6606445312,        0.3413085938,        0.0312500000,       -8.2855224609,        2.1057128906,       47.6837158203
1494035556.8293719292,       -0.6606445312,        0.3413085938,        0.0312500000,       -8.2855224609,        2.1057128906,       47.6837158203
1494035556.8320369720,       -0.6606445312,        0.3413085938,        0.0312500000,       -7.5531005859,        2.3193359375,       48.0804443359
1494035556.8346428871,       -0.6606445312,        0.3413085938,        0.0312500000,       -7.5531005859,        2.3193359375,       48.0804443359
1494035556.8371989727,       -0.6743164062,        0.3515625000,        0.0205078125,       -6.2713623047,        1.9683837891,       48.8433837891
1494035556.8397510052,       -0.6743164062,        0.3515625000,        0.0205078125,       -6.2713623047,        1.9683837891,       48.8433837891
1494035556.8422999382,       -0.6743164062,        0.3515625000,        0.0205078125,       -5.2490234375,        1.7242431641,       49.5758056641
1494035556.8449900150,       -0.6743164062,        0.3515625000,        0.0205078125,       -5.2490234375,        1.7242431641,       49.5758056641
1494035556.8475410938,       -0.6943359375,        0.3129882812,        0.0175781250,       -5.2490234375,        0.4882812500,       50.8728027344
1494035556.8501060009,       -0.6943359375,        0.3129882812,        0.0175781250,       -4.1351318359,        0.4882812500,       50.8728027344
1494035556.8526659012,       -0.6943359375,        0.3129882812,        0.0175781250,       -4.1351318359,       -0.7324218750,       52.5360107422
1494035556.8553600311,       -0.6943359375,        0.3129882812,        0.0175781250,       -3.4332275391,       -0.7324218750,       52.5360107422
1494035556.8579161167,       -0.7006835938,        0.2792968750,       -0.0190429688,       -3.4332275391,       -0.7324218750,       54.2449951172
1494035556.8604679108,       -0.7006835938,        0.2792968750,       -0.0190429688,       -3.1738281250,       -1.5563964844,       54.2449951172
1494035556.8630170822,       -0.7006835938,        0.2792968750,       -0.0190429688,       -3.1738281250,       -1.5563964844,       58.1512451172
1494035556.8657350540,       -0.7006835938,        0.2792968750,       -0.0190429688,       -4.4555664062,       -2.2735595703,       55.3131103516
1494035556.8684239388,       -0.7031250000,        0.3154296875,       -0.0073242188,       -4.4555664062,       -2.2735595703,       55.3131103516
1494035556.8711209297,       -0.7031250000,        0.3154296875,       -0.0073242188,       -4.9896240234,       -2.8991699219,       56.3507080078
1494035556.8738570213,       -0.7031250000,        0.3154296875,       -0.0073242188,       -4.9896240234,       -2.8991699219,       56.3507080078
1494035556.8765530586,       -0.7031250000,        0.3154296875,       -0.0156250000,       -4.8675537109,       -3.3874511719,       56.9610595703
1494035556.8792469501,       -0.6772460938,        0.3422851562,       -0.0156250000,       -4.8675537109,       -3.3874511719,       56.9610595703
1494035556.8819410801,       -0.6772460938,        0.3422851562,       -0.0156250000,       -4.6691894531,       -2.8991699219,       57.5103759766
1494035556.8846089840,       -0.6772460938,        0.3422851562,       -0.0156250000,       -4.6691894531,       -2.8991699219,       57.5103759766
1494035556.8871641159,       -0.5522460938,        0.3603515625,        0.0034179688,       -5.2032470703,       -2.5177001953,       57.3730468750
1494035556.8897120953,       -0.6049804688,        0.3603515625,        0.0034179688,       -5.2032470703,       -2.5177001953,       57.3730468750
1494035556.8922710419,       -0.6049804688,        0.3603515625,        0.0034179688,       -6.4544677734,       -1.9073486328,       57.1289062500
1494035556.8949310780,       -0.6049804688,        0.3603515625,        0.0034179688,       -6.4544677734,       -1.9073486328,       57.1289062500
1494035556.8976221085,       -0.5771484375,        0.4111328125,        0.0322265625,       -6.5460205078,       -1.6174316406,       56.0760498047
1494035556.9003119469,       -0.5771484375,        0.4111328125,        0.0322265625,       -6.5460205078,       -1.6174316406,       56.0760498047
1494035556.9030029774,       -0.5771484375,        0.4111328125,        0.0322265625,       -5.9204101562,       -1.1749267578,       55.0994873047
1494035556.9056808949,       -0.5771484375,        0.4111328125,        0.0322265625,       -5.9204101562,       -1.1749267578,       55.0994873047
1494035556.9082350731,       -0.5878906250,        0.3842773438,        0.0249023438,       -6.1035156250,       -0.6866455078,       53.3905029297
1494035556.9109950066,       -0.5878906250,        0.3842773438,        0.0249023438,       -6.1035156250,       -0.6866455078,       53.3905029297
1494035556.9138929844,       -0.5878906250,        0.3842773438,        0.0249023438,       -6.8054199219,       -0.3967285156,       51.6967773438
1494035556.9165890217,       -0.5878906250,        0.3842773438,        0.0458984375,       -6.8054199219,       -0.3967285156,       51.6967773438
1494035556.9192829132,       -0.6245117188,        0.4135742188,        0.0458984375,       -6.8969726562,       -0.0762939453,       50.9185791016
1494035556.9219810963,       -0.6245117188,        0.4135742188,        0.0458984375,       -6.8969726562,       -0.0762939453,       50.9185791016
1494035556.9246869087,       -0.6245117188,        0.4135742188,        0.0458984375,       -6.4086914062,        0.4119873047,       50.5218505859
1494035556.9273900986,       -0.6245117188,        0.3925781250,        0.0415039062,       -6.4086914062,        0.4119873047,       50.5218505859
1494035556.9300808907,       -0.6386718750,        0.3925781250,        0.0415039062,       -6.1645507812,        0.5187988281,       50.2471923828
1494035556.9327809811,       -0.6386718750,        0.3925781250,        0.0415039062,       -6.1645507812,        0.5187988281,       50.2471923828
1494035556.9354898930,       -0.6386718750,        0.3925781250,        0.0415039062,       -5.6304931641,        0.2593994141,       50.4608154297
1494035556.9381809235,       -0.6411132812,        0.3891601562,        0.0253906250,       -5.6304931641,        0.2593994141,       50.4608154297
1494035556.9408779144,       -0.6411132812,        0.3891601562,        0.0253906250,       -4.7760009766,       -0.3051757812,       50.9948730469
1494035556.9435698986,       -0.6411132812,        0.3891601562,        0.0253906250,       -4.7760009766,       -0.3051757812,       50.9948730469
1494035556.9461190701,       -0.6411132812,        0.3891601562,        0.0253906250,       -4.1809082031,       -1.2512207031,       51.2847900391
1494035556.9486761093,       -0.6132812500,        0.3720703125,        0.0024414062,       -4.1809082031,       -1.2512207031,       51.2847900391
1494035556.9512300491,       -0.6132812500,        0.3720703125,        0.0024414062,       -4.1046142578,       -1.8615722656,       51.6052246094
1494035556.9538350105,       -0.6132812500,        0.3720703125,        0.0024414062,       -4.1046142578,       -1.8615722656,       51.6052246094
1494035556.9563920498,       -0.6132812500,        0.3720703125,        0.0024414062,       -4.1046142578,       -1.9683837891,       52.3071289062
1494035556.9589440823,       -0.5527343750,        0.4365234375,        0.0268554688,       -5.3405761719,       -1.9683837891,       52.3071289062
1494035556.9614999294,       -0.5527343750,        0.4365234375,        0.0268554688,       -5.3405761719,       -1.9683837891,       53.3599853516
1494035556.9641859531,       -0.5527343750,        0.4365234375,        0.0268554688,       -5.0201416016,       -2.0904541016,       53.3599853516
1494035556.9667348862,       -0.5527343750,        0.4365234375,        0.0268554688,       -5.0201416016,       -2.0904541016,       54.0466308594
1494035556.9692890644,       -0.5366210938,        0.4008789062,        0.0244140625,       -4.4097900391,       -2.1820068359,       54.0466308594
1494035556.9718389511,       -0.5366210938,        0.4008789062,        0.0244140625,       -4.4097900391,       -2.1820068359,       54.0466308594
1494035556.9745919704,       -0.5366210938,        0.4008789062,        0.0244140625,       -4.4097900391,       -1.5411376953,       54.3060302734
1494035556.9772980213,       -0.5366210938,        0.4008789062,        0.0502929688,       -4.4097900391,       -1.5411376953,       54.3060302734
1494035556.9801061153,       -0.5166015625,        0.3837890625,        0.0502929688,       -5.9967041016,       -0.6713867188,       53.8940429688
1494035556.9828040600,       -0.5166015625,        0.3837890625,        0.0502929688,       -5.9967041016,       -0.6713867188,       53.8940429688
1494035556.9855139256,       -0.5166015625,        0.3837890625,        0.0502929688,       -8.4991455078,        0.0915527344,       53.8177490234
1494035556.9882020950,       -0.5932617188,        0.3764648438,        0.0659179688,       -8.4991455078,        0.0915527344,       53.8177490234
1494035556.9908990860,       -0.5932617188,        0.3764648438,        0.0659179688,      -10.5133056641,        0.8239746094,       53.5888671875
1494035556.9935960770,       -0.5932617188,        0.3764648438,        0.0659179688,      -10.5133056641,        0.8239746094,       53.5888671875
1494035556.9962909222,       -0.5932617188,        0.3764648438,        0.0659179688,       -9.4909667969,        0.9460449219,       53.6193847656
1494035556.9989910126,       -0.6782226562,        0.4838867188,        0.0273437500,       -9.4909667969,        0.9460449219,       53.6193847656
1494035557.0016789436,       -0.6782226562,        0.4838867188,        0.0273437500,      -10.3607177734,        0.6408691406,       53.3142089844
1494035557.0043349266,       -0.6782226562,        0.4838867188,        0.0273437500,      -10.3607177734,        0.6408691406,       53.3142089844
1494035557.0068969727,       -0.6782226562,        0.4838867188,        0.0273437500,      -12.3443603516,        0.5645751953,       53.0090332031
1494035557.0094540119,       -0.6293945312,        0.4272460938,        0.0175781250,      -12.3443603516,        0.5645751953,       53.0090332031
1494035557.0120160580,       -0.6293945312,        0.4272460938,        0.0175781250,       -4.2572021484,        0.9918212891,       52.3376464844
1494035557.0147039890,       -0.6293945312,        0.4272460938,        0.0175781250,       -4.2572021484,        0.9918212891,       52.3376464844
1494035557.0174019337,       -0.6293945312,        0.4272460938,       -0.1074218750,       -1.1138916016,        1.9989013672,       50.7354736328
1494035557.0201010704,       -0.6093750000,        0.4199218750,       -0.0102539062,       -1.1138916016,        1.9989013672,       50.7354736328
1494035557.0227949619,       -0.6093750000,        0.4199218750,       -0.0102539062,        0.7019042969,        4.9591064453,       51.5594482422
1494035557.0254960060,       -0.6093750000,        0.4199218750,       -0.0102539062,        0.7019042969,        4.9591064453,       51.5594482422
1494035557.0281999111,       -0.6093750000,        0.5039062500,        0.0122070312,       -2.0904541016,        4.0588378906,       57.6629638672
1494035557.0310919285,       -0.7163085938,        0.5039062500,        0.0122070312,       -2.0904541016,        4.0588378906,       57.6629638672
1494035557.0340900421,       -0.7163085938,        0.5039062500,        0.0122070312,       -1.5258789062,        4.1961669922,       56.4727783203
1494035557.0367879868,       -0.7163085938,        0.5039062500,        0.0122070312,       -1.5258789062,        4.1961669922,       56.4727783203
1494035557.0394790173,       -0.5839843750,        0.4121093750,        0.0405273438,       -2.5329589844,        4.0435791016,       54.7637939453
1494035557.0421750546,       -0.5839843750,        0.4121093750,        0.0405273438,       -2.5329589844,        4.0435791016,       54.7637939453
1494035557.0448770523,       -0.5839843750,        0.4121093750,        0.0405273438,       -4.0435791016,        6.6680908203,       53.6499023438
1494035557.0475730896,       -0.5839843750,        0.4121093750,        0.0405273438,       -4.0435791016,        6.6680908203,       53.6499023438
1494035557.0502619743,       -0.5986328125,        0.5224609375,        0.0693359375,       -9.2468261719,        6.7596435547,       54.8553466797
1494035557.0530610085,       -0.5986328125,        0.5224609375,        0.0693359375,       -9.2468261719,        6.7596435547,       54.8553466797
1494035557.0556459427,       -0.5986328125,        0.5224609375,        0.0693359375,       -4.4097900391,        5.1422119141,       57.3272705078
1494035557.0581998825,       -0.5986328125,        0.3974609375,        0.0581054688,       -4.4097900391,        5.1422119141,       57.3272705078
1494035557.0607459545,       -0.5488281250,        0.3808593750,        0.0581054688,        2.1514892578,        3.6468505859,       58.4564208984
1494035557.0632970333,       -0.5488281250,        0.3808593750,        0.0581054688,        2.1514892578,        3.6468505859,       58.4564208984
1494035557.0658469200,       -0.5488281250,        0.3808593750,        0.0581054688,        2.0446777344,        2.6702880859,       57.5561523438
1494035557.0684010983,       -0.5488281250,        0.3808593750,        0.0424804688,        2.0446777344,        2.6702880859,       57.5561523438
1494035557.0709490776,       -0.5922851562,        0.4506835938,        0.0424804688,        2.6397705078,        1.8463134766,       59.0362548828
1494035557.0734999180,       -0.5922851562,        0.4506835938,        0.0424804688,        2.6397705078,        1.8463134766,       59.0362548828
1494035557.0760569572,       -0.5922851562,        0.4506835938,        0.0424804688,        2.6397705078,        0.2288818359,       62.2100830078
1494035557.0786080360,       -0.5922851562,        0.4799804688,        0.0019531250,        4.1503906250,        0.2288818359,       62.2100830078
1494035557.0811569691,       -0.5834960938,        0.4799804688,        0.0019531250,        4.1503906250,        0.2288818359,       61.8133544922
1494035557.0838360786,       -0.5834960938,        0.4799804688,        0.0019531250,        3.0212402344,       -1.3275146484,       61.8133544922
1494035557.0863909721,       -0.5834960938,        0.4799804688,        0.0019531250,        3.0212402344,       -1.3275146484,       59.6618652344
1494035557.0889489651,       -0.4584960938,        0.5029296875,        0.0200195312,       -1.3427734375,       -2.1057128906,       59.6618652344
1494035557.0915009975,       -0.4853515625,        0.5029296875,        0.0200195312,       -1.3427734375,       -2.1057128906,       59.6618652344
1494035557.0941679478,       -0.4853515625,        0.5029296875,        0.0200195312,        4.1809082031,       -1.0681152344,       59.0972900391
1494035557.0967259407,       -0.4853515625,        0.5029296875,        0.0200195312,        4.1809082031,       -1.0681152344,       59.0972900391
1494035557.0992729664,       -0.5805664062,        0.5385742188,        0.0034179688,        5.8746337891,       -1.6937255859,       59.1583251953
1494035557.1018230915,       -0.5805664062,        0.5385742188,        0.0034179688,        5.8746337891,       -1.6937255859,       59.1583251953
1494035557.1044919491,       -0.5805664062,        0.5385742188,        0.0034179688,        6.7596435547,       -1.9531250000,       58.9294433594
1494035557.1071770191,       -0.5805664062,        0.5385742188,        0.0034179688,        6.7596435547,       -1.9531250000,       58.9294433594
1494035557.1098771095,       -0.6914062500,        0.5112304688,       -0.0097656250,        7.6141357422,       -1.7547607422,       57.9681396484
1494035557.1125750542,       -0.6914062500,        0.5112304688,       -0.0097656250,        7.6141357422,       -1.7547607422,       57.9681396484
1494035557.1152830124,       -0.6914062500,        0.5112304688,       -0.0097656250,        6.6375732422,       -1.7089843750,       58.1207275391
1494035557.1179790497,       -0.6914062500,        0.5112304688,       -0.0097656250,        6.6375732422,       -1.7089843750,       58.1207275391
1494035557.1206679344,       -0.7324218750,        0.5180664062,        0.0000000000,        5.6762695312,       -2.2430419922,       59.1125488281
1494035557.1233930588,       -0.7324218750,        0.5180664062,        0.0000000000,        5.6762695312,       -2.2430419922,       59.1125488281
1494035557.1260709763,       -0.7324218750,        0.5180664062,        0.0000000000,        5.5541992188,       -1.7547607422,       61.3098144531
1494035557.1286280155,       -0.7324218750,        0.5180664062,       -0.0058593750,        5.5541992188,       -1.7547607422,       61.3098144531
1494035557.1311869621,       -0.7421875000,        0.5058593750,       -0.0058593750,        4.5623779297,       -1.7089843750,       62.8967285156
1494035557.1338789463,       -0.7421875000,        0.5058593750,       -0.0058593750,        4.5623779297,       -1.7089843750,       62.8967285156
1494035557.1364328861,       -0.7421875000,        0.5058593750,       -0.0058593750,        4.1656494141,       -1.4343261719,       64.0411376953
1494035557.1389870644,       -0.7421875000,        0.5058593750,        0.0278320312,        4.1656494141,       -1.4343261719,       64.0411376953
1494035557.1415441036,       -0.6909179688,        0.5219726562,        0.0278320312,        4.1656494141,       -1.5563964844,       65.1092529297
1494035557.1442329884,       -0.6909179688,        0.5219726562,        0.0278320312,        5.2185058594,       -1.5563964844,       65.1092529297
1494035557.1467959881,       -0.6909179688,        0.5219726562,        0.0278320312,        5.2185058594,       -1.3732910156,       66.4367675781
1494035557.1494429111,       -0.6909179688,        0.5097656250,        0.0449218750,        5.4626464844,       -1.3732910156,       66.4367675781
1494035557.1520020962,       -0.6547851562,        0.5097656250,        0.0449218750,        1.5563964844,       -1.4648437500,       67.7185058594
1494035557.1550879478,       -0.6547851562,        0.5097656250,        0.0449218750,        3.0517578125,       -1.4648437500,       67.7185058594
1494035557.1577889919,       -0.6547851562,        0.5097656250,        0.0449218750,        3.0517578125,       -0.9460449219,       68.7866210938
1494035557.1604869366,       -0.5288085938,        0.5107421875,        0.0449218750,        0.7019042969,       -0.9460449219,       68.7866210938
1494035557.1631920338,       -0.5288085938,        0.5107421875,        0.0449218750,        4.6081542969,       -0.1678466797,       68.9697265625
1494035557.1658909321,       -0.5288085938,        0.5107421875,        0.0449218750,        5.9814453125,       -0.1678466797,       68.9697265625
1494035557.1685841084,       -0.5288085938,        0.5107421875,        0.0449218750,        9.8876953125,       -0.3051757812,       68.4814453125
1494035557.1712830067,       -0.4814453125,        0.5654296875,        0.0302734375,        8.6059570312,       -0.3051757812,       68.4814453125
1494035557.1739869118,       -0.4814453125,        0.5654296875,        0.0302734375,        8.6059570312,       -0.3509521484,       67.9779052734
1494035557.1766839027,       -0.4814453125,        0.5654296875,        0.0302734375,        9.7808837891,       -0.3509521484,       67.9779052734
1494035557.1793720722,       -0.4814453125,        0.5654296875,        0.0048828125,        9.7808837891,        0.0610351562,       68.1304931641
1494035557.1820740700,       -0.4921875000,        0.5268554688,        0.0048828125,       10.1165771484,        0.0610351562,       68.1304931641
1494035557.1847059727,       -0.4921875000,        0.5268554688,        0.0048828125,       10.1165771484,        0.0610351562,       68.2067871094
1494035557.1872689724,       -0.4921875000,        0.5268554688,        0.0048828125,       10.1623535156,        0.6256103516,       68.2067871094
1494035557.1898229122,       -0.4921875000,        0.5205078125,        0.0112304688,       10.1623535156,        0.6256103516,       67.4285888672
1494035557.1923849583,       -0.4404296875,        0.5205078125,        0.0112304688,        9.7045898438,        1.2207031250,       67.4285888672
1494035557.1949961185,       -0.4404296875,        0.5205078125,        0.0112304688,        9.7045898438,        1.2207031250,       67.4285888672
1494035557.1975560188,       -0.4404296875,        0.5205078125,        0.0112304688,        9.1857910156,        1.8463134766,       66.7419433594
1494035557.2002220154,       -0.4155273438,        0.5620117188,        0.0166015625,        9.1857910156,        1.8463134766,       66.7419433594
1494035557.2027809620,       -0.4155273438,        0.5620117188,        0.0166015625,        9.0942382812,        1.6632080078,       67.2302246094
1494035557.2054839134,       -0.4155273438,        0.5620117188,        0.0166015625,        9.0942382812,        1.6632080078,       67.2302246094
1494035557.2080419064,       -0.4155273438,        0.5620117188,        0.0166015625,        7.5683593750,        1.5106201172,       67.8100585938
1494035557.2105910778,       -0.4462890625,        0.5825195312,        0.0092773438,        7.5683593750,        1.5106201172,       67.8100585938
1494035557.2131390572,       -0.4462890625,        0.5825195312,        0.0092773438,        4.8675537109,        2.2583007812,       66.6656494141
1494035557.2160079479,       -0.4462890625,        0.5825195312,        0.0092773438,        4.8675537109,        2.2583007812,       66.6656494141
1494035557.2186999321,       -0.4462890625,        0.5825195312,        0.0092773438,        7.5378417969,        4.3945312500,       64.8956298828
1494035557.2213900089,       -0.4775390625,        0.5834960938,        0.0141601562,        7.5378417969,        4.3945312500,       64.8956298828
1494035557.2241010666,       -0.4775390625,        0.5834960938,        0.0141601562,        8.7890625000,        5.4473876953,       64.1632080078
1494035557.2267920971,       -0.4775390625,        0.5834960938,        0.0141601562,        8.7890625000,        5.4473876953,       64.1632080078
1494035557.2294919491,       -0.4775390625,        0.5834960938,        0.0214843750,        9.2620849609,        5.5541992188,       64.0411376953
1494035557.2321848869,       -0.5000000000,        0.5698242188,        0.0214843750,        9.2620849609,        5.5541992188,       64.0411376953
1494035557.2348079681,       -0.5000000000,        0.5698242188,        0.0214843750,        9.8266601562,        5.6152343750,       64.2700195312
1494035557.2373659611,       -0.5000000000,        0.5698242188,        0.0214843750,        9.8266601562,        5.6152343750,       64.2700195312
1494035557.2399179935,       -0.5000000000,        0.5698242188,        0.0292968750,        9.6588134766,        5.8135986328,       64.4836425781
1494035557.2424659729,       -0.4165039062,        0.5390625000,        0.0292968750,        9.6588134766,        5.8135986328,       64.4836425781
1494035557.2451438904,       -0.4165039062,        0.5390625000,        0.0292968750,        9.5062255859,        5.4168701172,       64.3615722656
1494035557.2478370667,       -0.4165039062,        0.5390625000,        0.0292968750,        9.5062255859,        5.4168701172,       64.3615722656
1494035557.2505340576,       -0.2915039062,        0.5927734375,        0.0659179688,        9.9334716797,        3.4179687500,       63.8732910156
1494035557.2532370090,       -0.3525390625,        0.5927734375,        0.0659179688,        9.9334716797,        3.4179687500,       63.8732910156
1494035557.2559309006,       -0.3525390625,        0.5927734375,        0.0659179688,       11.9781494141,        1.7700195312,       62.7746582031
1494035557.2586350441,       -0.3525390625,        0.5927734375,        0.0659179688,       11.9781494141,        1.7700195312,       62.7746582031
1494035557.2613379955,       -0.3842773438,        0.6269531250,        0.0336914062,       13.1072998047,       -1.1444091797,       61.2487792969
1494035557.2640790939,       -0.3842773438,        0.6269531250,        0.0336914062,       13.1072998047,       -1.1444091797,       61.2487792969
1494035557.2667770386,       -0.3842773438,        0.6269531250,        0.0336914062,       12.6800537109,       -3.1127929688,       59.2498779297
1494035557.2695350647,       -0.3842773438,        0.6269531250,        0.0336914062,       12.6800537109,       -3.1127929688,       59.2498779297
1494035557.2724208832,       -0.4272460938,        0.6010742188,        0.0063476562,       17.2729492188,       -2.4261474609,       57.2967529297
1494035557.2755229473,       -0.4272460938,        0.6010742188,        0.0063476562,       17.2729492188,       -2.4261474609,       57.2967529297
1494035557.2782208920,       -0.4272460938,        0.6010742188,        0.0063476562,       19.3176269531,       -3.4484863281,       56.9610595703
1494035557.2809159756,       -0.5532226562,        0.6547851562,       -0.0375976562,       19.3176269531,       -3.4484863281,       56.9610595703
1494035557.2835910320,       -0.5532226562,        0.6547851562,       -0.0375976562,       19.7143554688,       -3.7689208984,       57.2814941406
1494035557.2861490250,       -0.5532226562,        0.6547851562,       -0.0375976562,       19.7143554688,       -3.7689208984,       57.2814941406
1494035557.2887039185,       -0.5532226562,        0.6547851562,       -0.0375976562,       19.5312500000,       -3.7994384766,       57.8460693359
1494035557.2912569046,       -0.6572265625,        0.6894531250,       -0.0590820312,       19.5312500000,       -3.7994384766,       57.8460693359
1494035557.2938859463,       -0.6572265625,        0.6894531250,       -0.0590820312,       15.6250000000,       -3.9367675781,       58.8073730469
1494035557.2965810299,       -0.6572265625,        0.6894531250,       -0.0590820312,       18.8446044922,       -3.9367675781,       58.8073730469
1494035557.2992761135,       -0.6572265625,        0.6894531250,       -0.0590820312,       18.8446044922,       -4.3487548828,       60.3485107422
1494035557.3019769192,       -0.7548828125,        0.7250976562,       -0.0742187500,       18.2647705078,       -4.3487548828,       60.3485107422
1494035557.3046100140,       -0.7548828125,        0.7250976562,       -0.0742187500,       18.2647705078,       -4.9743652344,       62.6831054688
1494035557.3071730137,       -0.7548828125,        0.7250976562,       -0.0742187500,       17.2271728516,       -4.9743652344,       62.6831054688
1494035557.3097300529,       -0.7548828125,        0.7250976562,       -0.0742187500,       17.2271728516,       -4.9743652344,       66.1926269531
1494035557.3122820854,       -0.8334960938,        0.6918945312,       -0.0620117188,       15.2435302734,       -5.0354003906,       66.1926269531
1494035557.3148629665,       -0.8334960938,        0.6918945312,       -0.0620117188,       15.2435302734,       -5.0354003906,       70.0988769531
1494035557.3174209595,       -0.8334960938,        0.6918945312,       -0.0620117188,       12.0697021484,       -5.3863525391,       69.9768066406
1494035557.3199789524,       -0.8334960938,        0.6918945312,       -0.0620117188,       12.0697021484,       -5.3863525391,       69.9768066406
1494035557.3225359917,       -0.8374023438,        0.6777343750,       -0.0195312500,        9.5062255859,       -6.5307617188,       73.4863281250
1494035557.3251368999,       -0.8374023438,        0.6777343750,       -0.0195312500,        9.5062255859,       -6.5307617188,       73.4863281250
1494035557.3276948929,       -0.8374023438,        0.6777343750,       -0.0195312500,        6.2103271484,       -7.4768066406,       76.6448974609
1494035557.3302450180,       -0.8374023438,        0.6777343750,        0.1054687500,        6.2103271484,       -7.4768066406,       76.6448974609
1494035557.3327939510,       -0.7456054688,        0.6606445312,        0.0332031250,        4.4403076172,       -8.8653564453,       78.7963867188
1494035557.3354930878,       -0.7456054688,        0.6606445312,        0.0332031250,        4.4403076172,       -8.8653564453,       78.7963867188
1494035557.3380448818,       -0.7456054688,        0.6606445312,        0.0332031250,        5.2185058594,      -10.5895996094,       79.8797607422
1494035557.3406059742,       -0.7456054688,        0.6606445312,        0.0708007812,        5.2185058594,      -10.5895996094,       79.8797607422
1494035557.3432009220,       -0.6425781250,        0.6831054688,        0.0708007812,        6.6375732422,      -11.5051269531,       80.3680419922
1494035557.3460080624,       -0.6425781250,        0.6831054688,        0.0708007812,        6.6375732422,      -11.5051269531,       80.3680419922
1494035557.3487110138,       -0.6425781250,        0.6831054688,        0.0708007812,        7.2479248047,      -12.2680664062,       81.1004638672
1494035557.3514070511,       -0.5175781250,        0.6328125000,        0.0629882812,        7.2479248047,      -12.2680664062,       81.1004638672
1494035557.3541169167,       -0.5615234375,        0.6328125000,        0.0629882812,        6.8054199219,      -12.4816894531,       81.4819335938
1494035557.3568129539,       -0.5615234375,        0.6328125000,        0.0629882812,        6.8054199219,      -12.4816894531,       81.4819335938
1494035557.3595049381,       -0.5615234375,        0.6328125000,        0.0629882812,        6.1340332031,      -12.9699707031,       80.2154541016
1494035557.3621990681,       -0.4287109375,        0.5737304688,        0.0590820312,        6.1340332031,      -12.9699707031,       80.2154541016
1494035557.3649029732,       -0.4287109375,        0.5737304688,        0.0590820312,        4.2419433594,      -12.4053955078,       79.0557861328
1494035557.3675980568,       -0.4287109375,        0.5737304688,        0.0590820312,        4.2419433594,      -12.4053955078,       79.0557861328
1494035557.3702979088,       -0.4287109375,        0.5737304688,        0.0590820312,        2.2583007812,      -11.4288330078,       77.4841308594
1494035557.3729898930,       -0.3725585938,        0.6040039062,        0.0634765625,        2.2583007812,      -11.4288330078,       77.4841308594
1494035557.3755710125,       -0.3725585938,        0.6040039062,        0.0634765625,       -1.6479492188,      -10.5285644531,       75.6072998047
1494035557.3781270981,       -0.3725585938,        0.6040039062,        0.0634765625,       -1.1444091797,      -10.5285644531,       75.6072998047
1494035557.3806810379,       -0.3725585938,        0.6040039062,        0.0634765625,       -1.1444091797,      -10.5285644531,       74.2034912109
1494035557.3832080364,       -0.3818359375,        0.6049804688,        0.0273437500,       -3.1280517578,       -9.1552734375,       74.2034912109
1494035557.3857610226,       -0.3818359375,        0.6049804688,        0.0273437500,       -3.1280517578,       -9.1552734375,       72.6623535156
1494035557.3883109093,       -0.3818359375,        0.6049804688,        0.0273437500,       -5.2642822266,       -7.4157714844,       72.6623535156
1494035557.3909769058,       -0.3818359375,        0.6049804688,       -0.0976562500,       -5.2642822266,       -7.4157714844,       72.6623535156
1494035557.3936290741,       -0.3930664062,        0.5830078125,       -0.0087890625,       -7.5073242188,       -4.6691894531,       70.4650878906
1494035557.3963420391,       -0.3930664062,        0.5830078125,       -0.0087890625,       -7.5073242188,       -4.6691894531,       66.5588378906
1494035557.3990409374,       -0.3930664062,        0.5830078125,       -0.0087890625,       -9.0179443359,       -1.5258789062,       68.1304931641
1494035557.4017360210,       -0.3930664062,        0.6054687500,       -0.0346679688,       -9.0179443359,       -1.5258789062,       64.2242431641
1494035557.4044790268,       -0.3618164062,        0.6054687500,       -0.0346679688,       -8.9721679688,        1.0986328125,       65.8264160156
1494035557.4071710110,       -0.3618164062,        0.6054687500,       -0.0346679688,       -8.9721679688,        1.0986328125,       65.8264160156
1494035557.4098680019,       -0.3618164062,        0.6054687500,       -0.0346679688,       -9.2163085938,        3.5552978516,       63.4918212891
1494035557.4125669003,       -0.3090820312,        0.6352539062,       -0.0463867188,       -9.2163085938,        3.5552978516,       63.4918212891
1494035557.4152688980,       -0.3090820312,        0.6352539062,       -0.0463867188,       -7.9498291016,        5.7983398438,       61.6455078125
1494035557.4179630280,       -0.3090820312,        0.6352539062,       -0.0463867188,       -7.9498291016,        5.7983398438,       61.6455078125
1494035557.4207649231,       -0.3090820312,        0.6352539062,       -0.0463867188,       -5.4779052734,        7.2784423828,       59.5703125000
1494035557.4234619141,       -0.2792968750,        0.6352539062,       -0.0395507812,       -5.4779052734,        7.2784423828,       59.5703125000
1494035557.4260189533,       -0.2792968750,        0.6352539062,       -0.0395507812,       -3.6010742188,        8.7432861328,       57.1594238281
1494035557.4285690784,       -0.2792968750,        0.6352539062,       -0.0395507812,       -3.6010742188,        8.7432861328,       57.1594238281
1494035557.4311239719,       -0.2792968750,        0.6352539062,       -0.0395507812,       -1.7852783203,        9.7198486328,       54.5043945312
1494035557.4337060452,       -0.2436523438,        0.6171875000,       -0.0122070312,       -1.7852783203,        9.7198486328,       54.5043945312
1494035557.4362599850,       -0.2436523438,        0.6171875000,       -0.0122070312,       -1.1901855469,        9.5672607422,       52.2460937500
1494035557.4388129711,       -0.2436523438,        0.6171875000,       -0.0122070312,       -1.1901855469,        9.5672607422,       52.2460937500
1494035557.4413599968,       -0.2436523438,        0.6171875000,        0.1127929688,       -2.1514892578,        7.9498291016,       48.4008789062
1494035557.4440009594,       -0.2177734375,        0.6127929688,        0.0327148438,       -2.1514892578,        7.9498291016,       48.4008789062
1494035557.4465610981,       -0.2177734375,        0.6127929688,        0.0327148438,       -2.9296875000,        7.6751708984,       44.8303222656
1494035557.4491119385,       -0.2177734375,        0.6127929688,        0.0327148438,       -2.9296875000,        7.6751708984,       44.8303222656
1494035557.4516611099,       -0.2177734375,        0.6127929688,        0.0605468750,       -2.9296875000,        8.1634521484,       41.5039062500
1494035557.4544260502,       -0.1455078125,        0.6113281250,        0.0605468750,       -3.7689208984,        8.1634521484,       41.5039062500
1494035557.4571220875,       -0.1455078125,        0.6113281250,        0.0605468750,       -7.6751708984,        8.4075927734,       37.9638671875
1494035557.4598159790,       -0.1455078125,        0.6113281250,        0.0605468750,       -4.5166015625,        8.4075927734,       37.9638671875
1494035557.4625110626,       -0.0205078125,        0.6323242188,        0.0585937500,       -0.6103515625,        8.2244873047,       34.7137451172
1494035557.4652130604,       -0.0576171875,        0.6323242188,        0.0585937500,       -2.9907226562,        8.2244873047,       34.7137451172
1494035557.4679100513,       -0.0576171875,        0.6323242188,        0.0585937500,       -2.9907226562,        7.5836181641,       31.7535400391
1494035557.4706029892,       -0.0576171875,        0.6323242188,        0.0585937500,       -1.4648437500,        7.5836181641,       31.7535400391
1494035557.4733119011,       -0.0322265625,        0.6440429688,        0.0488281250,       -1.4648437500,        7.0343017578,       29.0985107422
1494035557.4760079384,       -0.0322265625,        0.6440429688,        0.0488281250,        1.5869140625,        7.0343017578,       29.0985107422
1494035557.4787030220,       -0.0322265625,        0.6440429688,        0.0488281250,        1.5869140625,        5.6915283203,       27.7862548828
1494035557.4813959599,       -0.0322265625,        0.6440429688,        0.0488281250,        5.9814453125,        5.6915283203,       27.7862548828
1494035557.4840660095,       -0.0493164062,        0.6582031250,        0.0419921875,        5.9814453125,        5.6915283203,       26.0009765625
1494035557.4866209030,       -0.0493164062,        0.6582031250,        0.0419921875,        9.0942382812,        4.5776367188,       26.0009765625
1494035557.4891800880,       -0.0493164062,        0.6582031250,        0.0419921875,        9.0942382812,        4.5776367188,       24.2156982422
1494035557.4918448925,       -0.0493164062,        0.6582031250,        0.0419921875,       11.4135742188,        3.4637451172,       24.2156982422
1494035557.4945299625,       -0.1142578125,        0.6367187500,        0.0268554688,       11.4135742188,        3.4637451172,       22.6440429688
1494035557.4972319603,       -0.1142578125,        0.6367187500,        0.0268554688,       12.0697021484,        2.4261474609,       22.6440429688
1494035557.4999310970,       -0.1142578125,        0.6367187500,        0.0268554688,       12.0697021484,        2.4261474609,       22.6440429688
1494035557.5026290417,       -0.1142578125,        0.6279296875,       -0.0073242188,       12.9699707031,        1.3732910156,       21.6369628906
1494035557.5053310394,       -0.1679687500,        0.6279296875,       -0.0073242188,       12.9699707031,        1.3732910156,       21.6369628906
1494035557.5080320835,       -0.1679687500,        0.6279296875,       -0.0073242188,       14.3432617188,        0.3204345703,       20.8435058594
1494035557.5109651089,       -0.1679687500,        0.6279296875,       -0.0073242188,       14.3432617188,        0.3204345703,       19.9432373047
1494035557.5140249729,       -0.2187500000,        0.6562500000,       -0.0463867188,       15.8233642578,        0.2899169922,       19.9432373047
1494035557.5167291164,       -0.2187500000,        0.6562500000,       -0.0463867188,       15.8233642578,        0.2899169922,       19.2108154297
1494035557.5194270611,       -0.2187500000,        0.6562500000,       -0.0463867188,       15.8691406250,        0.3051757812,       19.2108154297
1494035557.5221269131,       -0.2187500000,        0.6562500000,       -0.0463867188,       15.8691406250,        0.3051757812,       19.9737548828
1494035557.5248730183,       -0.2744140625,        0.6635742188,       -0.0781250000,       14.2364501953,        0.1831054688,       19.9737548828
1494035557.5275690556,       -0.2744140625,        0.6635742188,       -0.0781250000,       14.2364501953,        0.1831054688,       20.7214355469
1494035557.5302629471,       -0.2744140625,        0.6635742188,       -0.0781250000,       13.1072998047,        0.4577636719,       20.7214355469
1494035557.5329608917,       -0.2744140625,        0.6582031250,       -0.0659179688,       13.1072998047,        0.4577636719,       19.7906494141
1494035557.5355710983,       -0.3417968750,        0.6582031250,       -0.0659179688,       10.7116699219,        0.6103515625,       19.7906494141
1494035557.5381319523,       -0.3417968750,        0.6582031250,       -0.0659179688,       10.7116699219,        0.6103515625,       15.8843994141
1494035557.5406880379,       -0.3417968750,        0.6582031250,       -0.0659179688,        8.1176757812,        1.9989013672,       18.9971923828
1494035557.5432178974,       -0.3417968750,        0.6816406250,       -0.0908203125,        8.1176757812,        1.9989013672,       18.9971923828
1494035557.5457799435,       -0.3525390625,        0.6816406250,       -0.0908203125,        5.3863525391,        3.9062500000,       17.8527832031
1494035557.5483360291,       -0.3525390625,        0.6816406250,       -0.0908203125,        5.3863525391,        3.9062500000,       17.8527832031
1494035557.5508909225,       -0.3525390625,        0.6816406250,       -0.0908203125,        3.1280517578,        5.8135986328,       17.8833007812
1494035557.5534849167,       -0.3564453125,        0.7172851562,       -0.0883789062,        3.1280517578,        5.8135986328,       17.8833007812
1494035557.5560419559,       -0.3564453125,        0.7172851562,       -0.0883789062,       -0.4272460938,        7.0648193359,       17.2729492188
1494035557.5585999489,       -0.3564453125,        0.7172851562,       -0.0883789062,       -0.4272460938,        7.0648193359,       17.2729492188
1494035557.5611519814,       -0.3564453125,        0.7172851562,       -0.0883789062,        0.9307861328,        8.4381103516,       16.1895751953
1494035557.5638179779,       -0.3583984375,        0.7021484375,       -0.0488281250,        0.9307861328,        8.4381103516,       16.1895751953
1494035557.5664839745,       -0.3583984375,        0.7021484375,       -0.0488281250,        7.6599121094,        9.9945068359,       14.9536132812
1494035557.5690460205,       -0.3583984375,        0.7021484375,       -0.0488281250,        7.6599121094,        9.9945068359,       14.9536132812
1494035557.5715970993,       -0.3583984375,        0.7021484375,       -0.0488281250,       11.5661621094,        9.7198486328,       13.8549804688
1494035557.5741879940,       -0.4018554688,        0.7373046875,       -0.0375976562,        9.4451904297,        9.7198486328,       13.8549804688
1494035557.5767440796,       -0.4018554688,        0.7373046875,       -0.0375976562,        9.4451904297,        9.7198486328,       11.6729736328
1494035557.5793020725,       -0.4018554688,        0.7373046875,       -0.0375976562,        8.2397460938,        8.8043212891,       11.6729736328
1494035557.5818541050,       -0.4018554688,        0.7373046875,       -0.0375976562,        8.2397460938,        8.8043212891,        8.2092285156
1494035557.5845129490,       -0.4682617188,        0.7304687500,        0.0029296875,        9.2010498047,       10.6353759766,        8.2092285156
1494035557.5872099400,       -0.4682617188,        0.7304687500,        0.0029296875,        9.2010498047,       10.6353759766,        6.1645507812
1494035557.5899031162,       -0.4682617188,        0.7304687500,        0.0029296875,       12.8479003906,       11.7950439453,        6.1645507812
1494035557.5925960541,       -0.4682617188,        0.7304687500,        0.0029296875,       12.8479003906,       11.7950439453,        6.2103271484
1494035557.5953090191,       -0.4458007812,        0.7153320312,       -0.0024414062,       16.0827636719,       11.9323730469,        6.2103271484
1494035557.5980091095,       -0.4458007812,        0.7153320312,       -0.0024414062,       16.0827636719,       11.9323730469,        6.7901611328
1494035557.6007080078,       -0.4458007812,        0.7153320312,       -0.0024414062,       15.2282714844,       11.5509033203,        6.7901611328
1494035557.6034479141,       -0.4458007812,        0.6591796875,        0.0322265625,       15.2282714844,       11.5509033203,        6.7901611328
1494035557.6060049534,       -0.4248046875,        0.6591796875,        0.0322265625,       10.9863281250,       12.2375488281,        5.4321289062
1494035557.6085660458,       -0.4248046875,        0.6591796875,        0.0322265625,       10.9863281250,       12.2375488281,        5.4321289062
1494035557.6111209393,       -0.4248046875,        0.6591796875,        0.0322265625,        0.9460449219,       13.6871337891,        0.5187988281
1494035557.6137270927,       -0.4248046875,        0.6606445312,        0.0400390625,        0.9460449219,       13.6871337891,        0.5187988281
1494035557.6164240837,       -0.4584960938,        0.6606445312,        0.0400390625,       -3.0517578125,       15.0146484375,       -2.3803710938
1494035557.6191139221,       -0.4584960938,        0.6606445312,        0.0400390625,       -3.0517578125,       15.0146484375,       -2.3803710938
1494035557.6218099594,       -0.4584960938,        0.6606445312,        0.0400390625,       -2.9754638672,       14.2517089844,        2.7923583984
1494035557.6245388985,       -0.3764648438,        0.8193359375,        0.0576171875,       -2.9754638672,       14.2517089844,        2.7923583984
1494035557.6270899773,       -0.3764648438,        0.8193359375,        0.0576171875,       -4.0588378906,       11.5661621094,        9.3688964844
1494035557.6299080849,       -0.3764648438,        0.8193359375,        0.0576171875,       -4.0588378906,       11.5661621094,        9.3688964844
1494035557.6324648857,       -0.3764648438,        0.8193359375,        0.0576171875,       -3.0517578125,        8.8500976562,       11.0321044922
1494035557.6352770329,       -0.3330078125,        0.7573242188,        0.0756835938,       -3.0517578125,        8.8500976562,       11.0321044922
1494035557.6379370689,       -0.3330078125,        0.7573242188,        0.0756835938,       -1.0833740234,        7.5073242188,       12.3138427734
1494035557.6407051086,       -0.3330078125,        0.7573242188,        0.0756835938,       -1.0833740234,        7.5073242188,       12.3138427734
1494035557.6434230804,       -0.3330078125,        0.7573242188,        0.0683593750,       -0.6866455078,        6.3934326172,       14.1143798828
1494035557.6461119652,       -0.2729492188,        0.7294921875,        0.0683593750,       -0.6866455078,        6.3934326172,       14.1143798828
1494035557.6488039494,       -0.2729492188,        0.7294921875,        0.0683593750,       -2.0446777344,        5.5541992188,       15.7623291016
1494035557.6514968872,       -0.2729492188,        0.7294921875,        0.0683593750,       -2.0446777344,        5.5541992188,       15.7623291016
1494035557.6541919708,       -0.1479492188,        0.6538085938,        0.0747070312,       -1.4953613281,        5.3405761719,       15.1977539062
1494035557.6568880081,       -0.2026367188,        0.6538085938,        0.0747070312,       -1.4953613281,        5.3405761719,       15.1977539062
1494035557.6595780849,       -0.2026367188,        0.6538085938,        0.0747070312,        0.3662109375,        4.4250488281,       14.3737792969
1494035557.6622650623,       -0.2026367188,        0.6538085938,        0.0747070312,        0.3662109375,        4.4250488281,       14.3737792969
1494035557.6648890972,       -0.1352539062,        0.6010742188,        0.0693359375,        0.5187988281,        3.6773681641,       14.9078369141
1494035557.6674439907,       -0.1352539062,        0.6010742188,        0.0693359375,        0.5187988281,        3.6773681641,       14.9078369141
1494035557.6699941158,       -0.1352539062,        0.6010742188,        0.0693359375,        1.5258789062,        2.5939941406,       15.0299072266
1494035557.6725471020,       -0.1352539062,        0.6010742188,        0.0693359375,        1.5258789062,        2.5939941406,       15.0299072266
1494035557.6751019955,       -0.0512695312,        0.5366210938,        0.0371093750,        5.7373046875,        0.7934570312,       12.0849609375
1494035557.6776568890,       -0.0512695312,        0.5366210938,        0.0371093750,        5.7373046875,        0.7934570312,       12.0849609375
1494035557.6802079678,       -0.0512695312,        0.5366210938,        0.0371093750,        5.7373046875,        1.2817382812,        4.3334960938
1494035557.6827468872,       -0.0512695312,        0.5366210938,        0.0371093750,       15.3198242188,        1.2817382812,        4.3334960938
1494035557.6854779720,       -0.1269531250,        0.2231445312,       -0.0141601562,       15.3198242188,        5.1879882812,       -4.7454833984
1494035557.6880280972,       -0.1269531250,        0.2231445312,       -0.0141601562,       27.6336669922,        3.9062500000,       -4.7454833984
1494035557.6905820370,       -0.1269531250,        0.2231445312,       -0.0141601562,       27.6336669922,        3.9062500000,      -14.8620605469
1494035557.6931419373,       -0.1269531250,        0.2231445312,       -0.0141601562,       32.7911376953,        3.6163330078,      -14.8620605469
1494035557.6959869862,       -0.3803710938,       -0.0561523438,       -0.1098632812,       32.7911376953,        3.6163330078,      -20.9503173828
1494035557.6986830235,       -0.3803710938,       -0.0561523438,       -0.1098632812,       28.9611816406,       -0.3662109375,      -20.9503173828
1494035557.7013769150,       -0.3803710938,       -0.0561523438,       -0.1098632812,       28.9611816406,       -0.3662109375,      -25.3143310547
1494035557.7040820122,       -0.3803710938,       -0.0561523438,       -0.0385742188,       19.8059082031,       -3.0670166016,      -25.3143310547
1494035557.7067821026,       -0.4365234375,       -0.0712890625,       -0.0385742188,       19.8059082031,       -3.0670166016,      -33.1268310547
1494035557.7094769478,       -0.4365234375,       -0.0712890625,       -0.0385742188,       13.1530761719,       -0.5187988281,      -31.8908691406
1494035557.7122709751,       -0.4365234375,       -0.0712890625,       -0.0385742188,       13.1530761719,       -0.5187988281,      -38.8641357422
1494035557.7149798870,       -0.3569335938,        0.0146484375,       -0.1103515625,        8.0261230469,        2.6702880859,      -38.8641357422
1494035557.7176749706,       -0.3569335938,        0.0146484375,       -0.1103515625,        8.0261230469,        2.6702880859,      -46.6766357422
1494035557.7203700542,       -0.3569335938,        0.0146484375,       -0.1103515625,        4.2572021484,        3.7841796875,      -43.8995361328
1494035557.7230579853,       -0.3569335938,        0.0146484375,       -0.1103515625,        4.2572021484,        3.7841796875,      -47.8057861328
1494035557.7256309986,       -0.3071289062,        0.1596679688,       -0.0849609375,        3.5095214844,        2.5482177734,      -49.2858886719
1494035557.7281830311,       -0.3071289062,        0.1596679688,       -0.0849609375,        3.5095214844,        2.5482177734,      -49.2858886719
1494035557.7307310104,       -0.3071289062,        0.1596679688,       -0.0849609375,        4.0435791016,        1.8920898438,      -55.9387207031
1494035557.7332909107,       -0.3071289062,        0.1596679688,       -0.0849609375,        4.0435791016,        1.8920898438,      -55.9387207031
1494035557.7359950542,       -0.3242187500,        0.1416015625,       -0.0375976562,        5.0506591797,        1.9683837891,      -63.2629394531
1494035557.7386870384,       -0.3242187500,        0.1416015625,       -0.0375976562,        5.0506591797,        1.9683837891,      -63.2629394531
1494035557.7413840294,       -0.3242187500,        0.1416015625,       -0.0375976562,        6.6986083984,        2.3803710938,      -69.8547363281
1494035557.7440960407,       -0.3242187500,        0.1416015625,       -0.0375976562,        6.6986083984,        2.3803710938,      -69.8547363281
1494035557.7467861176,       -0.3583984375,        0.1459960938,       -0.0297851562,        6.8511962891,        1.9683837891,      -75.4394531250
1494035557.7496690750,       -0.3583984375,        0.1459960938,       -0.0297851562,        6.8511962891,        1.9683837891,      -75.4394531250
1494035557.7523529530,       -0.3583984375,        0.1459960938,       -0.0297851562,        5.9814453125,        1.3427734375,      -80.3222656250
1494035557.7554910183,       -0.3613281250,        0.1772460938,       -0.0146484375,        5.9814453125,        1.3427734375,      -80.3222656250
1494035557.7581870556,       -0.3613281250,        0.1772460938,       -0.0146484375,        6.3934326172,        0.7934570312,      -85.0067138672
1494035557.7608840466,       -0.3613281250,        0.1772460938,       -0.0146484375,        6.3934326172,        0.7934570312,      -85.0067138672
1494035557.7635669708,       -0.3613281250,        0.1772460938,       -0.0146484375,        8.3007812500,       -0.0152587891,      -90.1031494141
1494035557.7661240101,       -0.3627929688,        0.2509765625,       -0.0048828125,        8.3007812500,       -0.0152587891,      -90.1031494141
1494035557.7686839104,       -0.3627929688,        0.2509765625,       -0.0048828125,       12.1765136719,       -0.7629394531,      -95.5200195312
1494035557.7712459564,       -0.3627929688,        0.2509765625,       -0.0048828125,       12.1765136719,       -0.7629394531,      -95.5200195312
1494035557.7738790512,       -0.3627929688,        0.2509765625,       -0.0048828125,       17.2576904297,       -1.4190673828,     -100.6469726562
1494035557.7765779495,       -0.3623046875,        0.3330078125,        0.0087890625,       17.2576904297,       -1.4190673828,     -100.6469726562
1494035557.7792730331,       -0.3623046875,        0.3330078125,        0.0087890625,       22.1710205078,       -2.6092529297,     -104.9804687500
1494035557.7819709778,       -0.3623046875,        0.3330078125,        0.0087890625,       22.1710205078,       -2.6092529297,     -104.9804687500
1494035557.7846179008,       -0.3623046875,        0.3330078125,        0.0131835938,       26.5808105469,       -4.5776367188,     -108.8714599609
1494035557.7872889042,       -0.3735351562,        0.3818359375,        0.0131835938,       26.5808105469,       -4.5776367188,     -108.8714599609
1494035557.7898499966,       -0.3735351562,        0.3818359375,        0.0131835938,       29.8004150391,       -6.0424804688,     -112.8997802734
1494035557.7924098969,       -0.3735351562,        0.3818359375,        0.0131835938,       29.8004150391,       -6.0424804688,     -112.8997802734
1494035557.7950139046,       -0.3735351562,        0.3818359375,        0.0117187500,       33.1420898438,       -7.2631835938,     -116.8060302734
1494035557.7975769043,       -0.4023437500,        0.4096679688,        0.0117187500,       33.1420898438,       -7.2631835938,     -116.8060302734
1494035557.8001379967,       -0.4023437500,        0.4096679688,        0.0117187500,       37.0483398438,       -8.5754394531,     -119.9951171875
1494035557.8026940823,       -0.4023437500,        0.4096679688,        0.0117187500,       37.0330810547,       -8.5754394531,     -119.9951171875
1494035557.8053910732,       -0.4023437500,        0.4638671875,       -0.0053710938,       37.0330810547,      -10.1318359375,     -122.8179931641
1494035557.8079540730,       -0.4272460938,        0.4638671875,       -0.0053710938,       40.0848388672,      -10.1318359375,     -122.8179931641
1494035557.8105208874,       -0.4272460938,        0.4638671875,       -0.0053710938,       40.0848388672,      -10.1318359375,     -124.7711181641
1494035557.8130819798,       -0.4272460938,        0.4638671875,       -0.0053710938,       42.5109863281,      -11.5661621094,     -124.7711181641
1494035557.8157629967,       -0.4272460938,        0.4921875000,       -0.0214843750,       42.5109863281,      -11.5661621094,     -128.6773681641
1494035557.8183250427,       -0.4560546875,        0.4921875000,       -0.0214843750,       44.6777343750,      -12.7716064453,     -126.1138916016
1494035557.8208808899,       -0.4560546875,        0.4921875000,       -0.0214843750,       44.6777343750,      -12.7716064453,     -126.1138916016
1494035557.8234910965,       -0.4560546875,        0.4921875000,       -0.0214843750,       44.0673828125,      -13.9160156250,     -126.9836425781
1494035557.8261959553,       -0.4716796875,        0.4848632812,       -0.0551757812,       44.0673828125,      -13.9160156250,     -126.9836425781
1494035557.8288960457,       -0.4716796875,        0.4848632812,       -0.0551757812,       42.3736572266,      -15.0146484375,     -128.0975341797
1494035557.8315989971,       -0.4716796875,        0.4848632812,       -0.0551757812,       42.3736572266,      -15.0146484375,     -128.0975341797
1494035557.8343069553,       -0.4716796875,        0.4848632812,       -0.0551757812,       38.8793945312,      -15.2740478516,     -128.9367675781
1494035557.8370089531,       -0.4868164062,        0.4848632812,       -0.0659179688,       38.8793945312,      -15.2740478516,     -128.9367675781
1494035557.8397119045,       -0.4868164062,        0.4848632812,       -0.0659179688,       34.8358154297,      -15.4113769531,     -129.5471191406
1494035557.8424139023,       -0.4868164062,        0.4848632812,       -0.0659179688,       34.8358154297,      -15.4113769531,     -129.5471191406
1494035557.8450279236,       -0.4868164062,        0.4848632812,       -0.0659179688,       30.1055908203,      -15.2740478516,     -129.9743652344
1494035557.8475859165,       -0.4790039062,        0.4990234375,       -0.0698242188,       30.1055908203,      -15.2740478516,     -129.9743652344
1494035557.8501470089,       -0.4790039062,        0.4990234375,       -0.0698242188,       24.4445800781,      -15.1977539062,     -130.0354003906
1494035557.8527100086,       -0.4790039062,        0.4990234375,       -0.0698242188,       24.4445800781,      -15.1977539062,     -130.0354003906
1494035557.8553779125,       -0.4790039062,        0.4990234375,       -0.0659179688,       17.6849365234,      -15.3503417969,     -130.6610107422
1494035557.8579330444,       -0.4750976562,        0.4936523438,       -0.0659179688,       17.6849365234,      -15.3503417969,     -130.6610107422
1494035557.8606050014,       -0.4750976562,        0.4936523438,       -0.0659179688,       11.7492675781,      -15.5639648438,     -131.8054199219
1494035557.8632159233,       -0.4750976562,        0.4936523438,       -0.0659179688,       11.7492675781,      -15.5639648438,     -131.8054199219
1494035557.8657739162,       -0.4750976562,        0.6186523438,       -0.0585937500,        7.3699951172,      -16.1437988281,     -133.3618164062
1494035557.8683381081,       -0.4780273438,        0.5048828125,       -0.0585937500,        7.3699951172,      -16.1437988281,     -133.3618164062
1494035557.8711090088,       -0.4780273438,        0.5048828125,       -0.0585937500,        4.2572021484,      -16.1437988281,     -134.5672607422
1494035557.8739490509,       -0.4780273438,        0.5048828125,       -0.0585937500,        4.2572021484,      -16.1437988281,     -134.5672607422
1494035557.8766469955,       -0.5009765625,        0.5024414062,       -0.0581054688,        1.7242431641,      -16.0217285156,     -135.2996826172
1494035557.8793430328,       -0.5009765625,        0.5024414062,       -0.0581054688,        1.7242431641,      -16.0217285156,     -135.2996826172
1494035557.8820400238,       -0.5009765625,        0.5024414062,       -0.0581054688,        0.3814697266,      -15.3961181641,     -135.9100341797
1494035557.8847489357,       -0.5009765625,        0.5024414062,       -0.0581054688,        0.3814697266,      -15.3961181641,     -135.9100341797
1494035557.8874549866,       -0.5058593750,        0.5029296875,       -0.0590820312,       -0.1373291016,      -16.0980224609,     -134.8876953125
1494035557.8901519775,       -0.5058593750,        0.5029296875,       -0.0590820312,       -0.1373291016,      -16.0980224609,     -134.8876953125
1494035557.8928539753,       -0.5058593750,        0.5029296875,       -0.0590820312,       -4.3029785156,      -17.6849365234,     -135.4217529297
1494035557.8955659866,       -0.5058593750,        0.5029296875,       -0.0590820312,       -4.3029785156,      -17.6849365234,     -135.4217529297
1494035557.8982660770,       -0.5351562500,        0.5146484375,       -0.0507812500,       -6.7443847656,      -18.8903808594,     -137.0086669922
1494035557.9009609222,       -0.5351562500,        0.5146484375,       -0.0507812500,       -6.7443847656,      -18.8903808594,     -137.0086669922
1494035557.9036540985,       -0.5351562500,        0.5146484375,       -0.0507812500,       -6.7443847656,      -19.1040039062,     -138.5192871094
1494035557.9062149525,       -0.5351562500,        0.5659179688,       -0.0239257812,       -5.6762695312,      -19.1040039062,     -138.5192871094
1494035557.9087769985,       -0.5488281250,        0.5659179688,       -0.0239257812,       -5.6762695312,      -23.0102539062,     -138.4582519531
1494035557.9113340378,       -0.5488281250,        0.5659179688,       -0.0239257812,       -3.9367675781,      -19.8669433594,     -138.4582519531
1494035557.9138939381,       -0.5488281250,        0.5659179688,       -0.0239257812,       -3.9367675781,      -19.8669433594,     -137.7105712891
1494035557.9164550304,       -0.5488281250,        0.6445312500,       -0.0317382812,       -5.3253173828,      -20.3399658203,     -137.7105712891
1494035557.9190111160,       -0.5913085938,        0.6445312500,       -0.0317382812,       -5.3253173828,      -20.3399658203,     -133.8043212891
1494035557.9215669632,       -0.5913085938,        0.6445312500,       -0.0317382812,       -3.4027099609,      -19.1345214844,     -136.5966796875
1494035557.9242179394,       -0.5913085938,        0.6445312500,       -0.0317382812,       -3.4027099609,      -19.1345214844,     -136.5966796875
1494035557.9267768860,       -0.5913085938,        0.6840820312,       -0.0400390625,        1.0681152344,      -18.5699462891,     -134.7045898438
1494035557.9293420315,       -0.5991210938,        0.6840820312,       -0.0400390625,        1.0681152344,      -18.5699462891,     -134.7045898438
1494035557.9320089817,       -0.5991210938,        0.6840820312,       -0.0400390625,        1.4953613281,      -19.2108154297,     -132.9040527344
1494035557.9347970486,       -0.5991210938,        0.6840820312,       -0.0400390625,        1.4953613281,      -19.2108154297,     -132.9040527344
1494035557.9375040531,       -0.6098632812,        0.6723632812,       -0.0581054688,        0.9918212891,      -18.1579589844,     -130.6762695312
1494035557.9402070045,       -0.6098632812,        0.6723632812,       -0.0581054688,        0.9918212891,      -18.1579589844,     -130.6762695312
1494035557.9429059029,       -0.6098632812,        0.6723632812,       -0.0581054688,        1.0375976562,      -17.7307128906,     -128.1280517578
1494035557.9456110001,       -0.6098632812,        0.6723632812,       -0.0581054688,        1.0375976562,      -17.7307128906,     -128.1280517578
1494035557.9483098984,       -0.5893554688,        0.6176757812,       -0.0727539062,        1.2664794922,      -16.9830322266,     -126.3885498047
1494035557.9510080814,       -0.5893554688,        0.6176757812,       -0.0727539062,        1.2664794922,      -16.9830322266,     -126.3885498047
1494035557.9537138939,       -0.5893554688,        0.6176757812,       -0.0727539062,        1.6174316406,      -17.1508789062,     -125.3967285156
1494035557.9564020634,       -0.5893554688,        0.6176757812,       -0.0805664062,        1.6174316406,      -17.1508789062,     -125.3967285156
1494035557.9590981007,       -0.5908203125,        0.5737304688,       -0.0805664062,       -0.9613037109,      -16.8914794922,     -124.9237060547
1494035557.9617900848,       -0.5908203125,        0.5737304688,       -0.0805664062,       -0.9613037109,      -16.8914794922,     -124.9237060547
1494035557.9644339085,       -0.5908203125,        0.5737304688,       -0.0805664062,       -2.2583007812,      -17.3645019531,     -125.4425048828
1494035557.9669959545,       -0.5908203125,        0.5678710938,       -0.0937500000,       -2.2583007812,      -17.3645019531,     -125.4425048828
1494035557.9695560932,       -0.5942382812,        0.5678710938,       -0.0937500000,        0.4730224609,      -17.6086425781,     -125.6866455078
1494035557.9721200466,       -0.5942382812,        0.5678710938,       -0.0937500000,        0.4730224609,      -17.6086425781,     -125.6866455078
1494035557.9747729301,       -0.5942382812,        0.5678710938,       -0.0937500000,        3.6163330078,      -17.3034667969,     -125.1678466797
1494035557.9773249626,       -0.6362304688,        0.5844726562,       -0.0834960938,        3.6163330078,      -17.3034667969,     -125.1678466797
1494035557.9798839092,       -0.6362304688,        0.5844726562,       -0.0834960938,        4.5471191406,      -16.9067382812,     -123.7182617188
1494035557.9824419022,       -0.6362304688,        0.5844726562,       -0.0834960938,        4.5471191406,      -16.9067382812,     -123.7182617188
1494035557.9851291180,       -0.6362304688,        0.5844726562,       -0.0834960938,        4.5471191406,      -16.1132812500,     -122.0245361328
1494035557.9878160954,       -0.6440429688,        0.5307617188,       -0.0830078125,        7.0037841797,      -16.1132812500,     -122.0245361328
1494035557.9906411171,       -0.6440429688,        0.5307617188,       -0.0830078125,        3.0975341797,      -17.2882080078,     -121.1090087891
1494035557.9937150478,       -0.6440429688,        0.5307617188,       -0.0830078125,        3.7994384766,      -17.2882080078,     -121.1090087891
1494035557.9964220524,       -0.6440429688,        0.5307617188,       -0.0830078125,       -1.8463134766,      -17.1203613281,     -120.3918457031
1494035557.9991159439,       -0.6577148438,        0.5048828125,       -0.0732421875,       -1.8463134766,      -17.1203613281,     -120.3918457031
1494035558.0018150806,       -0.6577148438,        0.5048828125,       -0.0732421875,       -4.6234130859,      -17.6391601562,     -119.4610595703
1494035558.0045258999,       -0.6577148438,        0.5048828125,       -0.0732421875,       -4.6234130859,      -17.6391601562,     -119.4610595703
1494035558.0073380470,       -0.6577148438,        0.5068359375,       -0.0556640625,       -5.4626464844,      -17.5628662109,     -119.6746826172
1494035558.0100369453,       -0.6699218750,        0.5068359375,       -0.0556640625,       -5.4626464844,      -17.5628662109,     -119.6746826172
1494035558.0127339363,       -0.6699218750,        0.5068359375,       -0.0556640625,       -4.4708251953,      -17.8070068359,     -119.7052001953
1494035558.0154778957,       -0.6699218750,        0.5068359375,       -0.0556640625,       -4.4708251953,      -17.8070068359,     -119.7052001953
1494035558.0181739330,       -0.7075195312,        0.5161132812,       -0.0366210938,       -2.4414062500,      -18.2952880859,     -118.2708740234
1494035558.0208721161,       -0.7075195312,        0.5161132812,       -0.0366210938,       -2.4414062500,      -18.2952880859,     -118.2708740234
1494035558.0235719681,       -0.7075195312,        0.5161132812,       -0.0366210938,       -3.0212402344,      -19.3023681641,     -117.5689697266
1494035558.0261359215,       -0.7075195312,        0.5161132812,       -0.0366210938,       -3.0212402344,      -19.3023681641,     -117.5689697266
1494035558.0286939144,       -0.7353515625,        0.5590820312,       -0.0380859375,       -6.9274902344,      -18.8598632812,     -116.8212890625
1494035558.0312480927,       -0.7353515625,        0.5590820312,       -0.0380859375,       -5.6610107422,      -18.8598632812,     -116.8212890625
1494035558.0338521004,       -0.7353515625,        0.5590820312,       -0.0380859375,       -5.6610107422,      -18.8598632812,     -115.0665283203
1494035558.0364129543,       -0.7353515625,        0.5590820312,       -0.0380859375,       -5.2185058594,      -17.8375244141,     -115.0665283203
1494035558.0389709473,       -0.7329101562,        0.5380859375,       -0.0400390625,       -5.2185058594,      -17.8375244141,     -114.1510009766
1494035558.0415298939,       -0.7329101562,        0.5380859375,       -0.0400390625,       -3.6010742188,      -17.2271728516,     -114.1510009766
1494035558.0442020893,       -0.7329101562,        0.5380859375,       -0.0400390625,       -3.6010742188,      -17.2271728516,     -110.2447509766
1494035558.0467629433,       -0.7329101562,        0.5380859375,       -0.0400390625,       -2.1514892578,      -16.6168212891,     -112.9913330078
1494035558.0493259430,       -0.7211914062,        0.5097656250,       -0.0444335938,       -2.1514892578,      -16.6168212891,     -112.9913330078
1494035558.0518848896,       -0.7211914062,        0.5097656250,       -0.0444335938,       -1.7395019531,      -14.7857666016,     -111.0382080078
1494035558.0546300411,       -0.7211914062,        0.5097656250,       -0.0444335938,       -1.7395019531,      -14.7857666016,     -111.0382080078
1494035558.0573360920,       -0.7211914062,        0.3847656250,       -0.0581054688,       -2.5329589844,      -13.5345458984,     -108.8867187500
1494035558.0600240231,       -0.7138671875,        0.4765625000,       -0.0581054688,       -2.5329589844,      -13.5345458984,     -108.8867187500
1494035558.0627229214,       -0.7138671875,        0.4765625000,       -0.0581054688,       -2.7160644531,      -12.9089355469,     -108.2305908203
1494035558.0654730797,       -0.7138671875,        0.4765625000,       -0.0581054688,       -2.7160644531,      -12.9089355469,     -108.2305908203
1494035558.0681650639,       -0.6943359375,        0.4545898438,       -0.0712890625,       -2.5482177734,      -13.7939453125,     -107.8186035156
1494035558.0708630085,       -0.6943359375,        0.4545898438,       -0.0712890625,       -2.5482177734,      -13.7939453125,     -107.8186035156
1494035558.0735709667,       -0.6943359375,        0.4545898438,       -0.0712890625,       -1.3427734375,      -13.2446289062,     -107.3913574219
1494035558.0762670040,       -0.6943359375,        0.4545898438,       -0.0712890625,       -1.3427734375,      -13.2446289062,     -107.3913574219
1494035558.0789670944,       -0.7104492188,        0.4501953125,       -0.0986328125,        0.5798339844,      -12.5579833984,     -106.1706542969
1494035558.0817759037,       -0.7104492188,        0.4501953125,       -0.0986328125,        0.5798339844,      -12.5579833984,     -106.1706542969
1494035558.0844330788,       -0.7104492188,        0.4501953125,       -0.0986328125,        1.7395019531,      -11.9628906250,     -105.0415039062
1494035558.0869920254,       -0.7104492188,        0.4501953125,       -0.0986328125,        1.7395019531,      -11.9628906250,     -105.0415039062
1494035558.0895459652,       -0.7045898438,        0.4042968750,       -0.1049804688,        0.7781982422,      -11.0473632812,     -104.1870117188
1494035558.0921099186,       -0.7045898438,        0.4042968750,       -0.1049804688,        0.7781982422,      -11.0473632812,     -104.1870117188
1494035558.0948069096,       -0.7045898438,        0.4042968750,       -0.1049804688,       -1.2512207031,       -9.9029541016,     -103.7139892578
1494035558.0973579884,       -0.7045898438,        0.4042968750,       -0.1049804688,       -1.2512207031,       -9.9029541016,     -103.7139892578
1494035558.0999159813,       -0.7221679688,        0.3242187500,       -0.0976562500,       -4.7912597656,       -9.0179443359,     -102.8442382812
1494035558.1024670601,       -0.7221679688,        0.3242187500,       -0.0976562500,       -4.7912597656,       -9.0179443359,     -102.8442382812
1494035558.1051859856,       -0.7221679688,        0.3242187500,       -0.0976562500,       -9.3078613281,       -7.7514648438,     -102.5238037109
1494035558.1078479290,       -0.7221679688,        0.3242187500,       -0.0664062500,       -9.3078613281,       -7.7514648438,     -102.5238037109
1494035558.1106109619,       -0.7324218750,        0.2700195312,       -0.0664062500,      -14.4195556641,       -6.3934326172,     -102.2033691406
1494035558.1136739254,       -0.7324218750,        0.2700195312,       -0.0664062500,      -14.4195556641,       -6.3934326172,     -102.2033691406
1494035558.1163740158,       -0.7324218750,        0.2700195312,       -0.0664062500,      -19.2718505859,       -5.8288574219,     -102.9968261719
1494035558.1190710068,       -0.7202148438,        0.2421875000,       -0.0590820312,      -19.2718505859,       -5.8288574219,     -102.9968261719
1494035558.1217699051,       -0.7202148438,        0.2421875000,       -0.0590820312,      -23.1628417969,       -5.1574707031,     -104.1107177734
1494035558.1244819164,       -0.7202148438,        0.2421875000,       -0.0590820312,      -23.1628417969,       -5.1574707031,     -104.1107177734
1494035558.1271779537,       -0.7202148438,        0.2421875000,       -0.0590820312,      -25.1159667969,       -5.2032470703,     -105.2551269531
1494035558.1298699379,       -0.7094726562,        0.2758789062,       -0.0541992188,      -25.1159667969,       -5.2032470703,     -105.2551269531
1494035558.1325659752,       -0.7094726562,        0.2758789062,       -0.0541992188,      -24.3530273438,       -5.2947998047,     -105.5145263672
1494035558.1352779865,       -0.7094726562,        0.2758789062,       -0.0541992188,      -24.3530273438,       -5.2947998047,     -105.5145263672
1494035558.1379740238,       -0.7094726562,        0.2758789062,       -0.0595703125,      -23.8952636719,       -4.0893554688,     -104.9499511719
1494035558.1406741142,       -0.7221679688,        0.2939453125,       -0.0595703125,      -23.8952636719,       -4.0893554688,     -104.9499511719
1494035558.1434180737,       -0.7221679688,        0.2939453125,       -0.0595703125,      -24.3682861328,       -2.3498535156,     -104.0496826172
1494035558.1459689140,       -0.7221679688,        0.2939453125,       -0.0595703125,      -24.3682861328,       -2.3498535156,     -104.0496826172
1494035558.1485309601,       -0.7221679688,        0.2690429688,       -0.0654296875,      -24.3682861328,       -1.4801025391,     -104.2785644531
1494035558.1510848999,       -0.7050781250,        0.2690429688,       -0.0654296875,      -24.5056152344,       -1.4801025391,     -104.2785644531
1494035558.1537919044,       -0.7050781250,        0.2690429688,       -0.0654296875,      -24.5056152344,       -0.4577636719,     -104.6905517578
1494035558.1563570499,       -0.7050781250,        0.2690429688,       -0.0654296875,      -23.8800048828,       -0.4577636719,     -104.6905517578
1494035558.1589109898,       -0.7050781250,        0.2529296875,       -0.0615234375,      -23.8800048828,       -0.4577636719,     -105.2398681641
1494035558.1614670753,       -0.6806640625,        0.2529296875,       -0.0615234375,      -23.1781005859,       -0.1678466797,     -105.2398681641
1494035558.1641750336,       -0.6806640625,        0.2529296875,       -0.0615234375,      -23.1781005859,       -0.1678466797,     -105.7739257812
1494035558.1667289734,       -0.6806640625,        0.2529296875,       -0.0615234375,      -22.5372314453,       -0.6866455078,     -105.7739257812
1494035558.1692869663,       -0.6513671875,        0.2734375000,       -0.0791015625,      -22.5372314453,       -0.6866455078,     -105.7739257812
1494035558.1718409061,       -0.6513671875,        0.2734375000,       -0.0791015625,      -21.0266113281,       -0.8544921875,     -106.2316894531
