time_stamp before, Acceleration x, Acceleration y, Acceleration z, Gyro x, Gyro y, Gyro z
1494294251.8695158958,       -0.1142578125,        0.0756835938,       -0.1171875000,        3.7994384766,       -0.6103515625,      -52.8564453125
1494294251.8745589256,       -0.1142578125,        0.0756835938,       -0.1171875000,        3.7994384766,       -0.6103515625,      -53.1311035156
1494294251.8773200512,       -0.1142578125,        0.0756835938,       -0.0981445312,       15.2435302734,       -3.0822753906,      -53.1311035156
1494294251.8798758984,       -0.1000976562,        0.0766601562,       -0.0981445312,       15.2435302734,       -3.0822753906,      -53.2836914062
1494294251.8827219009,       -0.1000976562,        0.0766601562,       -0.0981445312,       26.6113281250,       -5.6152343750,      -53.2836914062
1494294251.8853759766,       -0.1000976562,        0.0766601562,       -0.0981445312,       26.6113281250,       -5.6152343750,      -52.1850585938
1494294251.8882980347,       -0.0888671875,        0.1357421875,       -0.0668945312,       38.5437011719,       -8.1634521484,      -52.1850585938
1494294251.8909959793,       -0.0888671875,        0.1357421875,       -0.0668945312,       38.5437011719,       -8.1634521484,      -50.1098632812
1494294251.8936851025,       -0.0888671875,        0.1357421875,       -0.0668945312,       49.1180419922,      -10.7116699219,      -50.1098632812
1494294251.8963799477,       -0.0888671875,        0.1357421875,       -0.0668945312,       49.1180419922,      -10.7116699219,      -47.1649169922
1494294251.8990790844,       -0.0805664062,        0.2231445312,       -0.0156250000,       55.8471679688,      -12.6037597656,      -47.1649169922
1494294251.9017829895,       -0.0805664062,        0.2231445312,       -0.0156250000,       55.8471679688,      -12.6037597656,      -43.2586669922
1494294251.9044780731,       -0.0805664062,        0.2231445312,       -0.0156250000,       62.8204345703,      -13.7939453125,      -43.5485839844
1494294251.9071669579,       -0.0805664062,        0.2231445312,       -0.0156250000,       62.8204345703,      -13.7939453125,      -39.6423339844
1494294251.9098570347,       -0.0966796875,        0.3012695312,       -0.0117187500,       68.9239501953,      -14.0533447266,      -39.3066406250
1494294251.9124660492,       -0.0966796875,        0.3012695312,       -0.0117187500,       68.9239501953,      -14.0533447266,      -39.3066406250
1494294251.9150199890,       -0.0966796875,        0.3012695312,       -0.0117187500,       71.7010498047,      -13.6108398438,      -34.9884033203
1494294251.9175729752,       -0.0966796875,        0.3012695312,       -0.0117187500,       71.7010498047,      -13.6108398438,      -34.9884033203
1494294251.9201319218,       -0.0986328125,        0.3403320312,       -0.0209960938,       72.5097656250,      -13.0462646484,      -29.6936035156
1494294251.9227039814,       -0.0986328125,        0.3403320312,       -0.0209960938,       72.5097656250,      -13.0462646484,      -29.6936035156
1494294251.9252610207,       -0.0986328125,        0.3403320312,       -0.0209960938,       74.6612548828,      -10.5590820312,      -23.8647460938
1494294251.9278171062,       -0.0986328125,        0.3403320312,       -0.0756835938,       74.6612548828,      -10.5590820312,      -23.8647460938
1494294251.9303739071,       -0.1376953125,        0.2456054688,       -0.0756835938,       76.2939453125,       -7.4310302734,      -17.7764892578
1494294251.9330179691,       -0.1376953125,        0.2456054688,       -0.0756835938,       76.2939453125,       -7.4310302734,      -17.7764892578
1494294251.9355759621,       -0.1376953125,        0.2456054688,       -0.0756835938,       74.0203857422,       -4.1503906250,      -11.1083984375
1494294251.9381320477,       -0.1376953125,        0.1206054688,       -0.1157226562,       74.0203857422,       -4.1503906250,      -11.1083984375
1494294251.9407958984,       -0.1494140625,        0.1186523438,       -0.1157226562,       68.9392089844,       -1.5563964844,       -2.9449462891
1494294251.9434909821,       -0.1494140625,        0.1186523438,       -0.1157226562,       68.9392089844,       -1.5563964844,       -2.9449462891
1494294251.9463520050,       -0.1494140625,        0.1186523438,       -0.1157226562,       64.0869140625,        0.8087158203,        6.1035156250
1494294251.9490480423,       -0.1679687500,        0.1230468750,       -0.1533203125,       64.0869140625,        0.8087158203,        6.1035156250
1494294251.9517550468,       -0.1679687500,        0.1230468750,       -0.1533203125,       57.6629638672,        3.9062500000,       15.1977539062
1494294251.9544489384,       -0.1679687500,        0.1230468750,       -0.1533203125,       57.6629638672,        3.9062500000,       15.1977539062
1494294251.9571390152,       -0.1679687500,        0.1230468750,       -0.1533203125,       52.6580810547,        6.4086914062,       24.9786376953
1494294251.9598290920,       -0.1020507812,        0.2543945312,       -0.0976562500,       52.6580810547,        6.4086914062,       24.9786376953
1494294251.9624741077,       -0.1020507812,        0.2543945312,       -0.0976562500,       44.8455810547,        8.6517333984,       35.1257324219
1494294251.9650249481,       -0.1020507812,        0.2543945312,       -0.0976562500,       46.4324951172,        8.6517333984,       35.1257324219
1494294251.9675810337,       -0.1020507812,        0.2543945312,       -0.0976562500,       46.4324951172,        4.7454833984,       59.1888427734
1494294251.9701330662,       -0.4658203125,        1.4360351562,       -0.0893554688,       29.4799804688,        6.8817138672,       59.1888427734
1494294251.9728109837,       -0.4658203125,        1.4360351562,       -0.0893554688,       29.4799804688,        6.8817138672,      135.5590820312
1494294251.9755098820,       -0.4658203125,        1.4360351562,       -0.0893554688,        2.7770996094,       11.3525390625,      135.5590820312
1494294251.9782071114,       -0.4658203125,        1.4360351562,        1.0957031250,        2.7770996094,       11.3525390625,      199.1424560547
1494294251.9809429646,        0.1357421875,        6.8051757812,        1.0957031250,      -32.5164794922,       28.5491943359,      199.1424560547
1494294251.9836430550,        0.1357421875,        6.8051757812,        1.0957031250,      -32.5164794922,       28.5491943359,      227.9663085938
1494294251.9863390923,        0.1357421875,        6.8051757812,        1.0957031250,     -144.9890136719,       42.9077148438,      227.9663085938
1494294251.9890339375,        0.2607421875,        5.5151367188,        0.2465820312,     -144.9890136719,       42.9077148438,      252.3498535156
1494294251.9917700291,        0.2758789062,        5.5151367188,        0.2465820312,     -105.8197021484,       25.6347656250,      252.3498535156
1494294251.9944679737,        0.2758789062,        5.5151367188,        0.2465820312,     -105.8197021484,       25.6347656250,      252.3040771484
1494294251.9972259998,        0.2758789062,        5.5151367188,        0.2465820312,      -19.9584960938,        1.8157958984,      252.3040771484
1494294251.9999289513,       -4.0786132812,       -3.1743164062,        0.6030273438,      -19.9584960938,        1.8157958984,      200.1800537109
1494294252.0026390553,       -4.0786132812,       -3.1743164062,        0.6030273438,       68.7408447266,      -17.2576904297,      200.1800537109
1494294252.0053360462,       -4.0786132812,       -3.1743164062,        0.6030273438,       68.7408447266,      -17.2576904297,      180.7861328125
1494294252.0080349445,       -4.0786132812,       -3.1743164062,        0.6030273438,       50.3692626953,      -40.3137207031,      180.7861328125
1494294252.0107460022,       -3.2817382812,       -4.0781250000,        0.8105468750,       50.3692626953,      -40.3137207031,      161.2548828125
1494294252.0133030415,       -3.2817382812,       -4.0781250000,        0.8105468750,      -68.5882568359,      -39.5355224609,      163.4674072266
1494294252.0158629417,       -3.2817382812,       -4.0781250000,        0.8105468750,      -68.5882568359,      -39.5355224609,      163.4674072266
1494294252.0185348988,       -3.2817382812,       -4.0781250000,        0.2177734375,     -135.2691650391,       -3.2043457031,      144.9279785156
1494294252.0211598873,       -1.6845703125,       -1.4916992188,        0.2177734375,     -135.2691650391,       -3.2043457031,      144.9279785156
1494294252.0238618851,       -1.6845703125,       -1.4916992188,        0.2177734375,     -164.5507812500,       12.2222900391,      170.0897216797
1494294252.0265591145,       -1.6845703125,       -1.4916992188,        0.2177734375,     -164.5507812500,       12.2222900391,      170.0897216797
1494294252.0292580128,       -1.6845703125,        1.5424804688,        0.5292968750,     -154.8156738281,      -18.2342529297,      200.2563476562
1494294252.0319120884,       -1.0664062500,        1.5424804688,        0.5292968750,     -154.8156738281,      -18.2342529297,      200.2563476562
1494294252.0344650745,       -1.0664062500,        1.5424804688,        0.5292968750,     -115.2343750000,      -20.3704833984,      183.3801269531
1494294252.0370290279,       -1.0664062500,        1.5424804688,        0.5292968750,     -115.2343750000,      -20.3704833984,      183.3801269531
1494294252.0395860672,       -1.4599609375,        2.4960937500,        0.2744140625,      -83.5876464844,      -22.2320556641,      138.4887695312
1494294252.0422480106,       -1.4599609375,        2.4960937500,        0.2744140625,      -83.5876464844,      -22.2320556641,      138.4887695312
1494294252.0448119640,       -1.4599609375,        2.4960937500,        0.2744140625,      -44.0673828125,      -33.8134765625,      102.8594970703
1494294252.0473690033,       -1.4599609375,        2.4960937500,        0.2744140625,      -44.0673828125,      -33.8134765625,      102.8594970703
1494294252.0499300957,       -1.0722656250,        0.0839843750,        0.0146484375,       -9.7656250000,      -38.7573242188,       88.3636474609
1494294252.0527060032,       -1.0722656250,        0.0839843750,        0.0146484375,       -9.7656250000,      -38.7573242188,       88.3636474609
1494294252.0553979874,       -1.0722656250,        0.0839843750,        0.0146484375,      -11.1083984375,      -44.2657470703,       78.5980224609
1494294252.0581018925,       -1.0722656250,        0.0839843750,        0.0146484375,      -11.1083984375,      -44.2657470703,       78.5980224609
1494294252.0608139038,       -0.7812500000,       -0.0458984375,        0.3969726562,       -3.5400390625,      -29.4494628906,       77.6367187500
1494294252.0633740425,       -0.7812500000,       -0.0458984375,        0.3969726562,       -3.5400390625,      -29.4494628906,       77.6367187500
1494294252.0659339428,       -0.7812500000,       -0.0458984375,        0.3969726562,        0.3662109375,       -7.9345703125,       71.6094970703
1494294252.0684869289,       -0.7812500000,       -0.0458984375,        0.3969726562,        0.6866455078,       -7.9345703125,       71.6094970703
1494294252.0710620880,       -0.8300781250,        1.1425781250,        0.0800781250,        0.6866455078,      -12.8021240234,       55.3741455078
1494294252.0737519264,       -0.8300781250,        1.1425781250,        0.0800781250,      -27.5573730469,      -12.8021240234,       55.3741455078
1494294252.0764350891,       -0.8300781250,        1.1425781250,        0.0800781250,      -27.5573730469,      -16.7083740234,       39.9017333984
1494294252.0791199207,       -0.8300781250,        1.1425781250,       -0.6542968750,      -20.4772949219,      -18.8751220703,       39.9017333984
1494294252.0818119049,       -1.7363281250,        1.1689453125,       -0.6542968750,      -20.4772949219,       -3.2501220703,       22.3846435547
1494294252.0844891071,       -1.7363281250,        1.1689453125,       -0.6542968750,       18.9819335938,       -2.2888183594,       22.3846435547
1494294252.0871710777,       -1.7363281250,        1.1689453125,       -0.6542968750,       18.9819335938,       21.1486816406,       13.6108398438
1494294252.0898520947,       -2.6113281250,        0.7788085938,       -1.0864257812,       25.0854492188,       20.9197998047,       13.6108398438
1494294252.0926558971,       -2.5473632812,        0.7788085938,       -1.0864257812,       25.0854492188,       24.8260498047,       20.9503173828
1494294252.0952620506,       -2.5473632812,        0.7788085938,       -1.0864257812,        4.5471191406,       27.2064208984,       20.9503173828
1494294252.0978150368,       -2.5473632812,        0.7788085938,       -1.0864257812,        4.5471191406,       27.2064208984,       36.5753173828
1494294252.1003708839,       -2.0781250000,        0.1152343750,       -0.2856445312,      -20.6451416016,       27.0843505859,       37.3535156250
1494294252.1031289101,       -2.0781250000,        0.1152343750,       -0.2856445312,      -20.6451416016,       27.0843505859,       52.9785156250
1494294252.1057879925,       -2.0781250000,        0.1152343750,       -0.2856445312,      -41.7785644531,       29.1442871094,       51.5594482422
1494294252.1085429192,       -2.0781250000,        0.1152343750,       -0.2856445312,      -41.7785644531,       29.1442871094,       53.6193847656
1494294252.1113739014,       -0.8383789062,        0.5820312500,        0.3222656250,      -50.5981445312,       24.0783691406,       53.6193847656
1494294252.1139359474,       -0.8383789062,        0.5820312500,        0.3222656250,      -50.5981445312,       24.0783691406,       53.6193847656
1494294252.1164979935,       -0.8383789062,        0.5820312500,        0.3222656250,      -41.9311523438,       18.3868408203,       42.7246093750
1494294252.1190578938,       -0.8383789062,        0.5820312500,        0.3222656250,      -41.9311523438,       18.3868408203,       42.7246093750
1494294252.1216750145,       -0.4648437500,        0.7167968750,        0.2822265625,      -24.9786376953,       12.5122070312,       28.2745361328
1494294252.1243739128,       -0.4648437500,        0.7167968750,        0.2822265625,      -24.9786376953,       12.5122070312,       28.2745361328
1494294252.1270658970,       -0.4648437500,        0.7167968750,        0.2822265625,      -11.4898681641,        5.1422119141,       13.0004882812
1494294252.1297531128,       -0.4648437500,        0.7167968750,        0.1015625000,      -11.4898681641,        5.1422119141,       13.0004882812
1494294252.1324529648,       -0.4545898438,        0.6503906250,        0.1015625000,       -4.6386718750,        0.2899169922,        0.9918212891
1494294252.1351430416,       -0.4545898438,        0.6503906250,        0.1015625000,       -4.6386718750,        0.2899169922,        0.9918212891
1494294252.1378281116,       -0.4545898438,        0.6503906250,        0.1015625000,       -1.4343261719,       -1.7089843750,       -9.1400146484
1494294252.1405179501,       -0.4692382812,        0.6718750000,       -0.0468750000,       -1.4343261719,       -1.7089843750,       -9.1400146484
1494294252.1430840492,       -0.4692382812,        0.6718750000,       -0.0468750000,       -0.2899169922,       -4.4555664062,      -18.6309814453
1494294252.1456279755,       -0.4692382812,        0.6718750000,       -0.0468750000,       -0.2899169922,       -4.4555664062,      -18.6309814453
1494294252.1481750011,       -0.4692382812,        0.6718750000,       -0.0468750000,        0.9765625000,       -7.4615478516,      -27.9541015625
1494294252.1507139206,       -0.6030273438,        0.6049804688,       -0.0659179688,        0.9765625000,       -7.4615478516,      -27.9541015625
1494294252.1532649994,       -0.6030273438,        0.6049804688,       -0.0659179688,        0.0457763672,       -8.3312988281,      -35.5529785156
1494294252.1558160782,       -0.6030273438,        0.6049804688,       -0.0659179688,        0.0457763672,       -8.3312988281,      -35.5529785156
1494294252.1583650112,       -0.6030273438,        0.6049804688,       -0.0659179688,       -3.8604736328,       -9.0942382812,      -41.4886474609
1494294252.1610779762,       -0.6425781250,        0.5595703125,       -0.0615234375,       -1.7547607422,       -9.0942382812,      -41.4886474609
1494294252.1636319160,       -0.6425781250,        0.5595703125,       -0.0615234375,       -1.7547607422,       -9.0942382812,      -47.0886230469
1494294252.1662969589,       -0.6425781250,        0.5595703125,       -0.0615234375,       -2.3345947266,       -8.6975097656,      -47.0886230469
1494294252.1688439846,       -0.6425781250,        0.5595703125,       -0.0615234375,       -2.3345947266,       -8.6975097656,      -52.2918701172
1494294252.1717720032,       -0.6972656250,        0.5795898438,        0.0239257812,       -2.3040771484,       -8.1176757812,      -52.2918701172
1494294252.1754219532,       -0.6972656250,        0.5795898438,        0.0239257812,       -2.8991699219,       -8.8043212891,      -56.8695068359
1494294252.1781079769,       -0.6972656250,        0.5795898438,        0.0239257812,       -2.8991699219,       -8.8043212891,      -56.8695068359
1494294252.1808009148,       -0.7226562500,        0.5322265625,        0.0561523438,       -2.6397705078,       -9.9792480469,      -60.9130859375
1494294252.1834781170,       -0.7226562500,        0.5322265625,        0.0561523438,       -2.6397705078,       -9.9792480469,      -60.9130859375
1494294252.1861619949,       -0.7226562500,        0.5322265625,        0.0561523438,        0.8697509766,      -10.6506347656,      -64.6057128906
1494294252.1888480186,       -0.7226562500,        0.5322265625,        0.0561523438,        0.8697509766,      -10.6506347656,      -64.6057128906
1494294252.1915481091,       -0.7363281250,        0.5078125000,        0.0961914062,        5.8898925781,      -11.9171142578,      -67.7795410156
1494294252.1942350864,       -0.7363281250,        0.5078125000,        0.0961914062,        5.8898925781,      -11.9171142578,      -67.7795410156
1494294252.1969189644,       -0.7363281250,        0.5078125000,        0.0961914062,        8.3312988281,      -12.9394531250,      -69.5190429688
1494294252.1996068954,       -0.7363281250,        0.5078125000,        0.0961914062,        8.3312988281,      -12.9394531250,      -69.5190429688
1494294252.2023539543,       -0.7895507812,        0.4584960938,        0.1250000000,       12.3291015625,      -13.2446289062,      -70.6481933594
1494294252.2050380707,       -0.7895507812,        0.4584960938,        0.1250000000,       12.3291015625,      -13.2446289062,      -70.6481933594
1494294252.2077279091,       -0.7895507812,        0.4584960938,        0.1250000000,       17.3797607422,      -13.1988525391,      -72.2656250000
1494294252.2104148865,       -0.7895507812,        0.4584960938,        0.1601562500,       17.3797607422,      -13.1988525391,      -72.2656250000
1494294252.2131490707,       -0.8325195312,        0.4306640625,        0.1601562500,       22.0489501953,      -14.0533447266,      -72.8302001953
1494294252.2158360481,       -0.8325195312,        0.4306640625,        0.1601562500,       22.0489501953,      -14.0533447266,      -72.8302001953
1494294252.2185180187,       -0.8325195312,        0.4306640625,        0.1601562500,       26.2756347656,      -15.3808593750,      -72.2503662109
1494294252.2213621140,       -0.8422851562,        0.3837890625,        0.1508789062,       26.2756347656,      -15.3808593750,      -72.2503662109
1494294252.2240090370,       -0.8422851562,        0.3837890625,        0.1508789062,       28.9154052734,      -16.9372558594,      -70.9991455078
1494294252.2267880440,       -0.8422851562,        0.3837890625,        0.1508789062,       28.9154052734,      -16.9372558594,      -70.9991455078
1494294252.2295799255,       -0.8422851562,        0.3837890625,        0.1508789062,       31.4483642578,      -16.8304443359,      -70.4803466797
1494294252.2326059341,       -0.8647460938,        0.3403320312,        0.1308593750,       31.4483642578,      -16.8304443359,      -70.4803466797
1494294252.2353088856,       -0.8647460938,        0.3403320312,        0.1308593750,       34.0881347656,      -14.8773193359,      -69.1528320312
1494294252.2380108833,       -0.8647460938,        0.3403320312,        0.1308593750,       34.0881347656,      -14.8773193359,      -69.1528320312
1494294252.2409060001,       -0.8647460938,        0.3002929688,        0.1435546875,       35.7971191406,      -12.4664306641,      -66.8792724609
1494294252.2443659306,       -0.7944335938,        0.3002929688,        0.1435546875,       35.7971191406,      -12.4664306641,      -62.9730224609
1494294252.2472999096,       -0.7944335938,        0.3002929688,        0.1435546875,       32.2265625000,      -11.8255615234,      -65.1397705078
1494294252.2500030994,       -0.7944335938,        0.3002929688,        0.1435546875,       32.2265625000,      -11.8255615234,      -69.0460205078
1494294252.2527110577,       -0.8129882812,        0.2353515625,        0.1879882812,       20.4467773438,      -14.3127441406,      -66.9555664062
1494294252.2554140091,       -0.8129882812,        0.2353515625,        0.1879882812,       20.4467773438,      -14.3127441406,      -66.9555664062
1494294252.2581140995,       -0.8129882812,        0.2353515625,        0.1879882812,        3.8452148438,      -16.4337158203,      -69.9768066406
1494294252.2608110905,       -0.8129882812,        0.2353515625,        0.1494140625,        3.8452148438,      -16.4337158203,      -69.9768066406
1494294252.2633690834,       -0.7797851562,        0.1762695312,        0.1494140625,       -2.1209716797,       -9.2315673828,      -65.9027099609
1494294252.2659249306,       -0.7797851562,        0.1762695312,        0.1494140625,       -2.1209716797,       -9.2315673828,      -65.9027099609
1494294252.2684729099,       -0.7797851562,        0.1762695312,        0.1494140625,       -5.8898925781,       -0.0152587891,      -55.6793212891
1494294252.2710471153,       -0.7797851562,        0.1762695312,        0.1191406250,       -5.8898925781,       -0.0152587891,      -55.6793212891
1494294252.2737429142,       -0.6411132812,        0.1699218750,        0.1191406250,      -15.9301757812,        6.2713623047,      -46.8444824219
1494294252.2764399052,       -0.6411132812,        0.1699218750,        0.1191406250,      -15.9301757812,        6.2713623047,      -46.8444824219
1494294252.2791409492,       -0.6411132812,        0.1699218750,        0.1191406250,      -18.6309814453,       11.1389160156,      -39.6881103516
1494294252.2818000317,       -0.4731445312,        0.2041015625,        0.0747070312,      -18.6309814453,       11.1389160156,      -39.6881103516
1494294252.2843649387,       -0.4731445312,        0.2041015625,        0.0747070312,      -18.8751220703,       14.3890380859,      -31.9671630859
1494294252.2869260311,       -0.4731445312,        0.2041015625,        0.0747070312,      -18.8751220703,       14.3890380859,      -31.9671630859
1494294252.2894809246,       -0.4731445312,        0.2041015625,        0.0747070312,      -24.6124267578,       17.8070068359,      -25.4211425781
1494294252.2922270298,       -0.3583984375,        0.3144531250,        0.0522460938,      -24.6124267578,       17.8070068359,      -25.4211425781
1494294252.2947900295,       -0.3583984375,        0.3144531250,        0.0522460938,      -27.9846191406,       21.2402343750,      -22.8118896484
1494294252.2973480225,       -0.3583984375,        0.3144531250,        0.0522460938,      -27.9846191406,       21.2402343750,      -22.8118896484
1494294252.2999079227,       -0.3583984375,        0.3144531250,        0.0522460938,      -34.5153808594,       25.1159667969,      -21.9268798828
1494294252.3027040958,       -0.3374023438,        0.3603515625,       -0.0009765625,      -34.5153808594,       25.1159667969,      -21.9268798828
1494294252.3054070473,       -0.3374023438,        0.3603515625,       -0.0009765625,      -46.2341308594,       29.1900634766,      -21.2554931641
1494294252.3081059456,       -0.3374023438,        0.3603515625,       -0.0009765625,      -44.1284179688,       29.1900634766,      -21.2554931641
1494294252.3108129501,       -0.3374023438,        0.3603515625,       -0.0009765625,      -51.9409179688,       33.7219238281,      -23.7579345703
1494294252.3133640289,       -0.2719726562,        0.2973632812,       -0.0830078125,      -54.1687011719,       33.7219238281,      -23.7579345703
1494294252.3160369396,       -0.2719726562,        0.2973632812,       -0.0830078125,      -54.1687011719,       37.6281738281,      -35.0799560547
1494294252.3185980320,       -0.2719726562,        0.2973632812,       -0.0830078125,      -59.8297119141,       37.3229980469,      -35.0799560547
1494294252.3211989403,       -0.2719726562,        0.2973632812,       -0.2231445312,      -59.8297119141,       37.3229980469,      -49.4384765625
1494294252.3238959312,       -0.2919921875,       -0.1186523438,       -0.2231445312,      -56.3354492188,       40.9088134766,      -49.4384765625
1494294252.3265969753,       -0.2919921875,       -0.1186523438,       -0.2231445312,      -56.3354492188,       40.9088134766,      -55.0689697266
1494294252.3292939663,       -0.2919921875,       -0.1186523438,       -0.2231445312,      -43.3654785156,       44.6929931641,      -55.0689697266
1494294252.3320000172,       -0.2919921875,       -0.0522460938,       -0.3256835938,      -43.3654785156,       44.6929931641,      -58.9447021484
1494294252.3347001076,       -0.3359375000,       -0.0522460938,       -0.3256835938,      -34.5764160156,       48.3398437500,      -58.9447021484
1494294252.3374040127,       -0.3359375000,       -0.0522460938,       -0.3256835938,      -34.5764160156,       48.3398437500,      -75.8514404297
1494294252.3401019573,       -0.3359375000,       -0.0522460938,       -0.3256835938,      -35.9954833984,       47.9583740234,      -75.8514404297
1494294252.3428049088,       -0.2817382812,       -0.2924804688,       -0.2065429688,      -35.9954833984,       47.9583740234,      -94.4976806641
1494294252.3455009460,       -0.2817382812,       -0.2924804688,       -0.2065429688,      -42.2821044922,       46.1730957031,      -94.4976806641
1494294252.3481979370,       -0.2817382812,       -0.2924804688,       -0.2065429688,      -42.2821044922,       46.1730957031,     -105.0872802734
1494294252.3509469032,       -0.2817382812,       -0.2924804688,       -0.2065429688,      -49.3774414062,       44.0216064453,     -105.0872802734
1494294252.3536410332,       -0.3964843750,       -0.4365234375,       -0.0898437500,      -49.3774414062,       44.0216064453,     -107.5592041016
1494294252.3563408852,       -0.3964843750,       -0.4365234375,       -0.0898437500,      -54.5501708984,       40.9545898438,     -107.5592041016
1494294252.3590528965,       -0.3964843750,       -0.4365234375,       -0.0898437500,      -54.5501708984,       40.9545898438,     -104.4921875000
1494294252.3617200851,       -0.3964843750,       -0.3115234375,        0.0429687500,      -61.4624023438,       37.9028320312,     -104.4921875000
1494294252.3642840385,       -0.5288085938,       -0.3095703125,        0.0429687500,      -61.4624023438,       37.9028320312,     -104.4921875000
1494294252.3668448925,       -0.5288085938,       -0.3095703125,        0.0429687500,      -74.7375488281,       35.7055664062,      -95.5963134766
1494294252.3694109917,       -0.5288085938,       -0.3095703125,        0.0429687500,      -74.7375488281,       35.7055664062,      -95.5963134766
1494294252.3720660210,       -0.5288085938,       -0.0161132812,        0.0942382812,      -82.5042724609,       32.8216552734,      -86.1663818359
1494294252.3747661114,       -0.6020507812,       -0.0161132812,        0.0942382812,      -82.5042724609,       32.8216552734,      -86.1663818359
1494294252.3774690628,       -0.6020507812,       -0.0161132812,        0.0942382812,      -87.7532958984,       25.6805419922,      -79.3151855469
1494294252.3801670074,       -0.6020507812,       -0.0161132812,        0.0942382812,      -87.7532958984,       25.6805419922,      -79.3151855469
1494294252.3828799725,       -0.5722656250,        0.2167968750,        0.0551757812,      -96.3897705078,       18.4326171875,      -72.2808837891
1494294252.3855729103,       -0.5722656250,        0.2167968750,        0.0551757812,      -96.3897705078,       18.4326171875,      -72.2808837891
1494294252.3882670403,       -0.5722656250,        0.2167968750,        0.0551757812,     -103.6682128906,       12.1917724609,      -62.7441406250
1494294252.3910799026,       -0.5722656250,        0.2167968750,        0.0551757812,     -103.6682128906,       12.1917724609,      -62.7441406250
1494294252.3936450481,       -0.5600585938,        0.2744140625,       -0.0156250000,     -104.8278808594,        7.7056884766,      -53.9703369141
1494294252.3962039948,       -0.5600585938,        0.2744140625,       -0.0156250000,     -104.8278808594,        7.7056884766,      -53.9703369141
1494294252.3987629414,       -0.5600585938,        0.2744140625,       -0.0156250000,      -87.0819091797,        3.1738281250,      -43.0145263672
1494294252.4014658928,       -0.5600585938,        0.2744140625,       -0.0156250000,      -87.0819091797,        3.1738281250,      -43.0145263672
1494294252.4040238857,       -0.1000976562,        1.6118164062,        0.8481445312,      -43.1518554688,      -15.2587890625,       13.8549804688
1494294252.4065859318,       -0.1000976562,        1.6118164062,        0.8481445312,      -43.1518554688,      -15.2587890625,       13.8549804688
1494294252.4091379642,       -0.1000976562,        1.6118164062,        0.8481445312,      -17.0745849609,       -7.1105957031,       57.3272705078
1494294252.4118390083,       -0.1000976562,        1.6118164062,       -0.3886718750,      -17.0745849609,       -7.1105957031,       57.3272705078
1494294252.4143970013,       -0.7534179688,        2.9570312500,       -0.3886718750,       26.5350341797,       12.7868652344,       29.3731689453
1494294252.4169549942,       -0.7534179688,        2.9570312500,       -0.3886718750,       26.5350341797,       12.7868652344,       29.3731689453
1494294252.4195189476,       -0.7534179688,        2.9570312500,       -0.3886718750,       26.5350341797,       -5.9204101562,        5.2490234375
1494294252.4221930504,       -0.7534179688,        1.4570312500,        0.0473632812,       71.7315673828,       -5.9204101562,        5.2490234375
1494294252.4248929024,       -0.5346679688,        1.4003906250,        0.0473632812,       71.7315673828,      -11.2609863281,       -5.2490234375
1494294252.4275929928,       -0.5346679688,        1.4003906250,        0.0473632812,       50.5523681641,      -11.2609863281,       -5.2490234375
1494294252.4302880764,       -0.5346679688,        1.4003906250,        0.0473632812,       50.5523681641,      -24.2614746094,      -20.1110839844
1494294252.4330039024,       -0.6503906250,       -0.8437500000,        0.1860351562,       36.6973876953,      -24.2614746094,      -20.1110839844
1494294252.4357039928,       -0.6503906250,       -0.8437500000,        0.1860351562,       36.6973876953,      -24.2614746094,      -18.3258056641
1494294252.4384040833,       -0.6503906250,       -0.8437500000,        0.1860351562,       67.1997070312,      -26.3519287109,      -18.3258056641
1494294252.4411549568,       -0.6503906250,       -0.8437500000,        0.1860351562,       67.1997070312,      -15.3503417969,      -12.1154785156
1494294252.4438579082,       -0.7412109375,       -0.8325195312,        0.3842773438,       58.5327148438,      -15.3503417969,      -12.1154785156
1494294252.4465630054,       -0.7412109375,       -0.8325195312,        0.3842773438,       58.5327148438,       -9.4757080078,       -3.2653808594
1494294252.4493260384,       -0.7412109375,       -0.8325195312,        0.3842773438,       24.5208740234,       -9.4757080078,       -3.2653808594
1494294252.4520969391,       -0.7412109375,       -0.8325195312,        0.3842773438,       24.5208740234,       -0.6561279297,        8.5144042969
1494294252.4547469616,       -0.7124023438,        0.0825195312,        0.4667968750,        2.2277832031,       -0.6561279297,        8.5144042969
1494294252.4575049877,       -0.7124023438,        0.0825195312,        0.4667968750,        2.2277832031,        7.1563720703,       15.7165527344
1494294252.4605419636,       -0.7124023438,        0.0825195312,        0.4667968750,       -7.2174072266,        5.2032470703,       15.7165527344
1494294252.4632320404,       -0.8369140625,        0.5268554688,        0.2739257812,       -7.2174072266,        9.3383789062,       20.0500488281
1494294252.4657890797,       -0.8369140625,        0.5268554688,        0.2739257812,       -7.6599121094,        9.3383789062,       20.0500488281
1494294252.4683380127,       -0.8369140625,        0.5268554688,        0.2739257812,       -7.6599121094,       13.2446289062,       21.9726562500
1494294252.4709479809,       -0.8369140625,        0.5268554688,        0.2739257812,       -5.9661865234,       12.7105712891,       21.9726562500
1494294252.4736440182,       -1.0107421875,        0.1440429688,        0.1757812500,       -5.9661865234,       12.7105712891,       20.7824707031
1494294252.4763360023,       -1.0107421875,        0.1440429688,        0.1757812500,       -6.1798095703,       12.6953125000,       20.7824707031
1494294252.4790279865,       -1.0107421875,        0.1440429688,        0.1757812500,       -6.1798095703,        8.7890625000,       20.5993652344
1494294252.4817640781,       -1.0107421875,        0.1440429688,        0.1757812500,       -7.2784423828,       11.2609863281,       20.5993652344
1494294252.4844620228,       -1.0595703125,        0.0649414062,        0.1894531250,       -7.2784423828,       11.2609863281,       21.9726562500
1494294252.4871559143,       -1.0595703125,        0.0649414062,        0.1894531250,       -2.8839111328,        9.1857910156,       21.9726562500
1494294252.4898500443,       -1.0595703125,        0.0649414062,        0.1894531250,       -2.8839111328,        9.1857910156,       20.0653076172
1494294252.4924550056,       -1.0595703125,        0.0649414062,        0.1894531250,        5.4779052734,        5.8441162109,       20.0653076172
1494294252.4950048923,       -0.9848632812,        0.4106445312,        0.1342773438,        5.4779052734,        5.8441162109,       12.2528076172
1494294252.4975559711,       -0.9848632812,        0.4106445312,        0.1342773438,       13.0004882812,        4.7149658203,       15.3808593750
1494294252.5001080036,       -0.9848632812,        0.4106445312,        0.1342773438,       13.0004882812,        4.7149658203,       15.3808593750
1494294252.5028119087,       -0.9848632812,        0.4106445312,       -0.0756835938,       15.9149169922,        4.3945312500,       11.7187500000
1494294252.5053629875,       -1.0195312500,        0.2646484375,       -0.0756835938,       15.9149169922,        4.3945312500,       11.7187500000
1494294252.5079159737,       -1.0195312500,        0.2646484375,       -0.0756835938,       15.1824951172,        4.2724609375,       10.5133056641
1494294252.5104689598,       -1.0195312500,        0.2646484375,       -0.0756835938,       15.1824951172,        4.2724609375,       10.5133056641
1494294252.5132989883,       -1.0195312500,        0.2080078125,       -0.1928710938,       11.3067626953,        4.9591064453,       11.5356445312
1494294252.5159950256,       -1.0551757812,        0.2080078125,       -0.1928710938,       11.3067626953,        4.9591064453,       11.5356445312
1494294252.5186889172,       -1.0551757812,        0.2080078125,       -0.1928710938,        7.8887939453,        5.1727294922,       12.7410888672
1494294252.5213890076,       -1.0551757812,        0.2080078125,       -0.1928710938,        7.8887939453,        5.1727294922,       12.7410888672
1494294252.5240728855,       -0.9580078125,        0.4233398438,       -0.1938476562,        5.4626464844,        4.0740966797,       11.2457275391
1494294252.5267620087,       -0.9580078125,        0.4233398438,       -0.1938476562,        5.4626464844,        4.0740966797,       11.2457275391
1494294252.5294499397,       -0.9580078125,        0.4233398438,       -0.1938476562,        3.9520263672,        0.9307861328,        8.3312988281
1494294252.5321469307,       -0.9580078125,        0.4233398438,       -0.1938476562,        3.9520263672,        0.9307861328,        8.3312988281
1494294252.5348320007,       -0.8330078125,        0.3554687500,       -0.1909179688,        2.5482177734,       -2.6092529297,        4.2877197266
1494294252.5376219749,       -0.8330078125,        0.3554687500,       -0.1909179688,        2.5482177734,       -2.6092529297,        4.2877197266
1494294252.5403110981,       -0.8330078125,        0.3554687500,       -0.1909179688,        0.8544921875,       -4.7760009766,        1.9989013672
1494294252.5430068970,       -0.8330078125,        0.3554687500,       -0.1757812500,        0.8544921875,       -4.7760009766,        1.9989013672
1494294252.5456929207,       -0.8032226562,        0.3330078125,       -0.1757812500,       -0.3509521484,       -5.4779052734,        1.1749267578
1494294252.5483760834,       -0.8032226562,        0.3330078125,       -0.1757812500,       -0.3509521484,       -5.4779052734,        1.1749267578
1494294252.5510449409,       -0.8032226562,        0.3330078125,       -0.1757812500,       -0.5187988281,       -5.6152343750,        0.0305175781
1494294252.5535941124,       -0.8032226562,        0.3569335938,       -0.1005859375,       -0.5187988281,       -5.6152343750,        0.0305175781
1494294252.5561399460,       -0.7900390625,        0.3569335938,       -0.1005859375,       -0.1068115234,       -5.4473876953,       -0.9765625000
1494294252.5586850643,       -0.7900390625,        0.3569335938,       -0.1005859375,       -0.1068115234,       -5.4473876953,       -0.9765625000
1494294252.5612668991,       -0.7900390625,        0.3569335938,       -0.1005859375,       -0.9613037109,       -5.2185058594,       -2.1667480469
1494294252.5639519691,       -0.7900390625,        0.2568359375,        0.0009765625,       -0.9613037109,       -5.2185058594,       -2.1667480469
1494294252.5666821003,       -0.7700195312,        0.2568359375,        0.0009765625,       -2.9296875000,       -4.9896240234,       -3.1433105469
1494294252.5694539547,       -0.7700195312,        0.2568359375,        0.0009765625,       -2.9296875000,       -4.9896240234,       -3.1433105469
1494294252.5722870827,       -0.7700195312,        0.2568359375,        0.0009765625,       -6.6070556641,       -4.3487548828,       -2.6245117188
1494294252.5749731064,       -0.7211914062,        0.2084960938,        0.0556640625,       -6.6070556641,       -4.3487548828,       -2.6245117188
1494294252.5776629448,       -0.7211914062,        0.2084960938,        0.0556640625,      -10.7727050781,       -3.1890869141,       -1.1138916016
1494294252.5803539753,       -0.7211914062,        0.2084960938,        0.0556640625,      -10.7727050781,       -3.1890869141,       -1.1138916016
1494294252.5830609798,       -0.7211914062,        0.2084960938,        0.0556640625,      -14.2974853516,       -1.8920898438,       -0.3509521484
1494294252.5857579708,       -0.7011718750,        0.2719726562,        0.0688476562,      -14.2974853516,       -1.8920898438,       -0.3509521484
1494294252.5884521008,       -0.7011718750,        0.2719726562,        0.0688476562,      -14.1296386719,       -0.6256103516,        0.3509521484
1494294252.5911610126,       -0.7011718750,        0.2719726562,        0.0688476562,      -14.1296386719,       -0.6256103516,        0.3509521484
1494294252.5938539505,       -0.7011718750,        0.2895507812,        0.0942382812,      -14.1296386719,       -0.4577636719,        0.2899169922
1494294252.5965499878,       -0.6318359375,        0.2895507812,        0.0942382812,      -12.2375488281,       -0.4577636719,        0.2899169922
1494294252.5992460251,       -0.6318359375,        0.2895507812,        0.0942382812,       -8.3312988281,       -0.8697509766,        0.5798339844
1494294252.6018788815,       -0.6318359375,        0.2895507812,        0.0942382812,      -10.2539062500,       -0.8697509766,        0.5798339844
1494294252.6044330597,       -0.5844726562,        0.2651367188,        0.1176757812,      -10.2539062500,       -0.8697509766,        0.6408691406
1494294252.6069900990,       -0.5844726562,        0.2651367188,        0.1176757812,       -8.4228515625,       -1.7089843750,        0.6408691406
1494294252.6095409393,       -0.5844726562,        0.2651367188,        0.1176757812,       -8.4228515625,       -1.7089843750,        0.6103515625
1494294252.6122519970,       -0.5844726562,        0.2651367188,        0.1176757812,       -7.7667236328,       -2.2430419922,        0.6103515625
1494294252.6148040295,       -0.5761718750,        0.2583007812,        0.1118164062,       -7.7667236328,       -2.2430419922,        0.6103515625
1494294252.6173560619,       -0.5761718750,        0.2583007812,        0.1118164062,       -6.7291259766,       -1.6479492188,        1.6174316406
1494294252.6198999882,       -0.5761718750,        0.2583007812,        0.1118164062,       -6.7291259766,       -1.6479492188,        1.6174316406
1494294252.6226100922,       -0.5761718750,        0.2583007812,        0.1118164062,       -4.9591064453,       -1.2054443359,        2.8381347656
1494294252.6251530647,       -0.5551757812,        0.2612304688,        0.1044921875,       -4.9591064453,       -1.2054443359,        2.8381347656
1494294252.6276938915,       -0.5551757812,        0.2612304688,        0.1044921875,       -3.1890869141,       -0.9765625000,        4.2419433594
1494294252.6302390099,       -0.5551757812,        0.2612304688,        0.1044921875,       -3.1890869141,       -0.9765625000,        4.2419433594
1494294252.6330630779,       -0.5551757812,        0.2612304688,        0.1044921875,       -2.0599365234,       -0.6256103516,        5.1574707031
1494294252.6357519627,       -0.5473632812,        0.2749023438,        0.0971679688,       -2.0599365234,       -0.6256103516,        5.1574707031
1494294252.6384398937,       -0.5473632812,        0.2749023438,        0.0971679688,       -0.7476806641,       -1.1444091797,        6.5307617188
1494294252.6411409378,       -0.5473632812,        0.2749023438,        0.0971679688,       -0.7476806641,       -1.1444091797,        6.5307617188
1494294252.6438300610,       -0.5473632812,        0.2749023438,        0.1020507812,        0.3356933594,       -1.3580322266,        7.5988769531
1494294252.6465189457,       -0.5502929688,        0.2929687500,        0.1020507812,        0.3356933594,       -1.3580322266,        7.5988769531
1494294252.6492080688,       -0.5502929688,        0.2929687500,        0.1020507812,        1.3122558594,       -0.7934570312,        9.1400146484
1494294252.6518790722,       -0.5502929688,        0.2929687500,        0.1020507812,        1.3122558594,       -0.7934570312,        9.1400146484
1494294252.6544260979,       -0.5502929688,        0.2915039062,        0.0883789062,        2.7008056641,       -0.6713867188,       10.5895996094
1494294252.6569759846,       -0.5424804688,        0.2915039062,        0.0883789062,        2.7008056641,       -0.6713867188,       10.5895996094
1494294252.6595289707,       -0.5424804688,        0.2915039062,        0.0883789062,        5.1116943359,       -0.5798339844,       11.7340087891
1494294252.6621971130,       -0.5424804688,        0.2915039062,        0.0883789062,        5.1116943359,       -0.5798339844,       11.7340087891
1494294252.6648910046,       -0.5361328125,        0.3007812500,        0.0878906250,        8.1481933594,       -0.5340576172,       13.0767822266
1494294252.6675930023,       -0.5361328125,        0.3007812500,        0.0878906250,        8.1481933594,       -0.5340576172,       13.0767822266
1494294252.6702809334,       -0.5361328125,        0.3007812500,        0.0878906250,       11.0168457031,       -1.0070800781,       14.7857666016
1494294252.6729929447,       -0.5361328125,        0.3007812500,        0.0878906250,       11.0168457031,       -1.0070800781,       14.7857666016
1494294252.6756930351,       -0.5249023438,        0.3002929688,        0.1420898438,       13.9312744141,       -2.1362304688,       16.2048339844
1494294252.6783950329,       -0.5249023438,        0.3002929688,        0.1420898438,       13.9312744141,       -2.1362304688,       16.2048339844
1494294252.6811010838,       -0.5249023438,        0.3002929688,        0.1420898438,       17.6544189453,       -4.1656494141,       17.4713134766
1494294252.6839079857,       -0.5249023438,        0.3002929688,        0.1420898438,       17.6544189453,       -4.1656494141,       17.4713134766
1494294252.6866068840,       -0.5278320312,        0.2797851562,        0.1567382812,       20.4772949219,       -6.1950683594,       19.9279785156
1494294252.6894209385,       -0.5278320312,        0.2797851562,        0.1567382812,       20.4772949219,       -6.1950683594,       19.9279785156
1494294252.6925580502,       -0.5278320312,        0.2797851562,        0.1567382812,       22.5219726562,       -8.8500976562,       22.6745605469
1494294252.6952600479,       -0.5322265625,        0.2553710938,        0.1376953125,       22.5219726562,       -8.8500976562,       22.6745605469
1494294252.6979579926,       -0.5322265625,        0.2553710938,        0.1376953125,       24.4903564453,      -12.6495361328,       25.4974365234
1494294252.7006640434,       -0.5322265625,        0.2553710938,        0.1376953125,       24.4903564453,      -12.6495361328,       25.4974365234
1494294252.7032289505,       -0.5322265625,        0.2553710938,        0.1376953125,       27.1301269531,      -15.7775878906,       28.3355712891
1494294252.7057878971,       -0.5517578125,        0.2460937500,        0.0966796875,       27.1301269531,      -15.7775878906,       28.3355712891
1494294252.7083489895,       -0.5517578125,        0.2460937500,        0.0966796875,       30.3497314453,      -17.9748535156,       30.3344726562
1494294252.7109599113,       -0.5517578125,        0.2460937500,        0.0966796875,       30.3497314453,      -17.9748535156,       30.3344726562
1494294252.7136619091,       -0.5517578125,        0.2460937500,        0.0966796875,       32.3638916016,      -19.6838378906,       32.5012207031
1494294252.7163650990,       -0.6372070312,        0.2163085938,        0.0478515625,       32.3638916016,      -19.6838378906,       32.5012207031
1494294252.7190649509,       -0.6372070312,        0.2163085938,        0.0478515625,       28.4576416016,      -19.5617675781,       35.6750488281
1494294252.7217319012,       -0.6372070312,        0.2163085938,        0.0478515625,       30.7006835938,      -19.5617675781,       35.6750488281
1494294252.7242870331,       -0.6372070312,        0.2163085938,        0.0478515625,       30.7006835938,      -17.9901123047,       40.2526855469
1494294252.7268440723,       -0.7421875000,        0.0952148438,        0.0229492188,       25.5889892578,      -17.9901123047,       40.2526855469
1494294252.7294039726,       -0.7421875000,        0.0952148438,        0.0229492188,       25.5889892578,      -17.9901123047,       46.2951660156
1494294252.7319660187,       -0.7421875000,        0.0952148438,        0.0229492188,       15.4571533203,      -14.8162841797,       46.2951660156
1494294252.7345271111,       -0.7421875000,        0.0952148438,       -0.0078125000,       15.4571533203,      -14.8162841797,       54.1076660156
1494294252.7370889187,       -0.8100585938,        0.0361328125,       -0.0078125000,        3.4637451172,      -11.3677978516,       52.8106689453
1494294252.7396450043,       -0.8100585938,        0.0361328125,       -0.0078125000,        3.4637451172,      -11.3677978516,       52.8106689453
1494294252.7422499657,       -0.8100585938,        0.0361328125,       -0.0078125000,       -5.6915283203,       -8.4381103516,       59.7839355469
1494294252.7448010445,       -0.8100585938,        0.0361328125,       -0.0190429688,       -5.6915283203,       -8.4381103516,       59.7839355469
1494294252.7473549843,       -0.8828125000,        0.1982421875,       -0.0190429688,      -12.6190185547,       -6.3781738281,       65.2008056641
1494294252.7499110699,       -0.8828125000,        0.1982421875,       -0.0190429688,      -12.6190185547,       -6.3781738281,       65.2008056641
1494294252.7527050972,       -0.8828125000,        0.1982421875,       -0.0190429688,      -17.1051025391,       -3.6773681641,       67.8558349609
1494294252.7553989887,       -0.8828125000,        0.3232421875,       -0.0375976562,      -17.1051025391,       -3.6773681641,       67.8558349609
1494294252.7582139969,       -0.9604492188,        0.3232421875,       -0.0375976562,      -19.3328857422,       -2.9449462891,       69.5343017578
1494294252.7609519958,       -0.9604492188,        0.3232421875,       -0.0375976562,      -19.3328857422,       -2.9449462891,       69.5343017578
1494294252.7636499405,       -0.9604492188,        0.3232421875,       -0.0375976562,      -19.2565917969,       -4.2266845703,       70.9838867188
1494294252.7663419247,       -0.9980468750,        0.2998046875,       -0.0351562500,      -19.2565917969,       -4.2266845703,       70.9838867188
1494294252.7690351009,       -0.9980468750,        0.2998046875,       -0.0351562500,      -18.2647705078,       -6.7749023438,       72.8454589844
1494294252.7717630863,       -0.9980468750,        0.2998046875,       -0.0351562500,      -18.2647705078,       -6.7749023438,       72.8454589844
1494294252.7744579315,       -0.9980468750,        0.2998046875,       -0.0351562500,      -16.7541503906,       -9.9639892578,       74.7985839844
1494294252.7771549225,       -0.9848632812,        0.2685546875,        0.0292968750,      -16.7541503906,       -9.9639892578,       74.7985839844
1494294252.7798540592,       -0.9848632812,        0.2685546875,        0.0292968750,      -14.8468017578,      -14.2517089844,       77.1636962891
1494294252.7825629711,       -0.9848632812,        0.2685546875,        0.0292968750,      -14.8468017578,      -14.2517089844,       77.1636962891
1494294252.7852580547,       -0.9848632812,        0.2685546875,        0.0966796875,      -10.6353759766,      -19.8059082031,       79.4219970703
1494294252.7879469395,       -0.9086914062,        0.3198242188,        0.0966796875,      -10.6353759766,      -19.8059082031,       79.4219970703
1494294252.7906749249,       -0.9086914062,        0.3198242188,        0.0966796875,       -4.8828125000,      -25.7873535156,       80.4138183594
1494294252.7932341099,       -0.9086914062,        0.3198242188,        0.0966796875,       -4.8828125000,      -25.7873535156,       80.4138183594
1494294252.7957899570,       -0.7836914062,        0.3369140625,        0.1357421875,        0.8087158203,      -31.3415527344,       80.4443359375
1494294252.7983400822,       -0.8647460938,        0.3369140625,        0.1357421875,        0.8087158203,      -31.3415527344,       80.4443359375
1494294252.8009550571,       -0.8647460938,        0.3369140625,        0.1357421875,        6.4392089844,      -35.3240966797,       80.5511474609
1494294252.8036549091,       -0.8647460938,        0.3369140625,        0.1357421875,        6.4392089844,      -35.3240966797,       80.5511474609
1494294252.8063569069,       -0.8447265625,        0.3193359375,        0.0639648438,       12.0849609375,      -37.3687744141,       81.0241699219
1494294252.8091468811,       -0.8447265625,        0.3193359375,        0.0639648438,       12.0849609375,      -37.3687744141,       81.0241699219
1494294252.8122410774,       -0.8447265625,        0.3193359375,        0.0639648438,       15.9454345703,      -37.3535156250,       82.4432373047
1494294252.8149390221,       -0.8447265625,        0.3193359375,        0.0639648438,       15.9454345703,      -37.3535156250,       82.4432373047
1494294252.8176419735,       -0.7329101562,        0.2890625000,       -0.0356445312,       16.8762207031,      -34.4543457031,       84.5336914062
1494294252.8203439713,       -0.7329101562,        0.2890625000,       -0.0356445312,       16.8762207031,      -34.4543457031,       84.5336914062
1494294252.8230481148,       -0.7329101562,        0.2890625000,       -0.0356445312,       15.1824951172,      -29.0832519531,       87.0971679688
1494294252.8257451057,       -0.7329101562,        0.3452148438,       -0.0507812500,       15.1824951172,      -29.0832519531,       87.0971679688
1494294252.8284449577,       -0.5004882812,        0.3452148438,       -0.0507812500,       11.9628906250,      -23.4832763672,       88.7145996094
1494294252.8311328888,       -0.5004882812,        0.3452148438,       -0.0507812500,       11.9628906250,      -23.4832763672,       88.7145996094
1494294252.8337950706,       -0.5004882812,        0.3452148438,       -0.0507812500,        9.8724365234,      -19.1650390625,       89.7369384766
1494294252.8363530636,       -0.2504882812,        0.4663085938,       -0.0253906250,        9.8724365234,      -19.1650390625,       89.7369384766
1494294252.8389050961,       -0.2504882812,        0.4663085938,       -0.0253906250,        8.7127685547,      -15.1367187500,       89.4317626953
1494294252.8415238857,       -0.2504882812,        0.4663085938,       -0.0253906250,        8.7127685547,      -15.1367187500,       89.4317626953
1494294252.8440740108,       -0.2504882812,        0.4663085938,       -0.0253906250,        8.7127685547,      -11.3525390625,       86.5325927734
1494294252.8466260433,       -0.0820312500,        0.5092773438,        0.0444335938,        7.7362060547,      -11.3525390625,       86.5325927734
1494294252.8491780758,       -0.0820312500,        0.5092773438,        0.0444335938,        7.7362060547,      -11.3525390625,       82.8247070312
1494294252.8517510891,       -0.0820312500,        0.5092773438,        0.0444335938,        8.1481933594,       -9.0332031250,       82.8247070312
1494294252.8543078899,       -0.0820312500,        0.5092773438,        0.0444335938,        8.1481933594,       -9.0332031250,       78.9184570312
1494294252.8568630219,       -0.0288085938,        0.4267578125,        0.1196289062,        8.1024169922,       -6.8969726562,       79.6356201172
1494294252.8594150543,       -0.0288085938,        0.4267578125,        0.1196289062,        8.1024169922,       -6.8969726562,       79.6356201172
1494294252.8621220589,       -0.0288085938,        0.4267578125,        0.1196289062,        3.3569335938,       -5.1727294922,       78.8116455078
1494294252.8646779060,       -0.0288085938,        0.4267578125,        0.1196289062,        3.3569335938,       -5.1727294922,       78.8116455078
1494294252.8672299385,       -0.0717773438,        0.3691406250,        0.2304687500,       -3.2196044922,       -4.1351318359,       77.8961181641
1494294252.8697841167,       -0.0717773438,        0.3691406250,        0.2304687500,       -3.2196044922,       -4.1351318359,       77.8961181641
1494294252.8725171089,       -0.0717773438,        0.3691406250,        0.2304687500,       -4.6844482422,       -3.0975341797,       75.0732421875
1494294252.8752050400,       -0.0717773438,        0.3691406250,        0.2304687500,       -4.6844482422,       -3.0975341797,       75.0732421875
1494294252.8778951168,       -0.1147460938,        0.4829101562,        0.2758789062,       -4.6081542969,       -4.7760009766,       72.5097656250
1494294252.8805859089,       -0.1147460938,        0.4829101562,        0.2758789062,       -4.6081542969,       -4.7760009766,       72.5097656250
1494294252.8831419945,       -0.1147460938,        0.4829101562,        0.2758789062,       -3.6163330078,       -8.3465576172,       69.3664550781
1494294252.8856949806,       -0.1147460938,        0.4829101562,        0.1508789062,       -3.6163330078,       -8.3465576172,       69.3664550781
1494294252.8882501125,       -0.2202148438,        0.5551757812,        0.2470703125,        0.9307861328,      -13.0157470703,       64.1937255859
1494294252.8908131123,       -0.2202148438,        0.5551757812,        0.2470703125,        0.9307861328,      -13.0157470703,       64.1937255859
1494294252.8935129642,       -0.2202148438,        0.5551757812,        0.2470703125,        5.8593750000,      -17.7917480469,       59.4940185547
1494294252.8962099552,       -0.2202148438,        0.5551757812,        0.1796875000,        5.8593750000,      -17.7917480469,       59.4940185547
1494294252.8989040852,       -0.4418945312,        0.5000000000,        0.1796875000,       10.5133056641,      -22.4304199219,       55.6182861328
1494294252.9015710354,       -0.4418945312,        0.5000000000,        0.1796875000,       10.5133056641,      -22.4304199219,       55.6182861328
1494294252.9042439461,       -0.4418945312,        0.5000000000,        0.1796875000,       14.7857666016,      -24.3072509766,       54.0924072266
1494294252.9068090916,       -0.5668945312,        0.4584960938,        0.0766601562,       14.7857666016,      -24.3072509766,       54.0924072266
1494294252.9093699455,       -0.5971679688,        0.4584960938,        0.0766601562,       14.7857666016,      -24.4293212891,       53.7414550781
1494294252.9120199680,       -0.5971679688,        0.4584960938,        0.0766601562,       17.0288085938,      -24.4293212891,       53.7414550781
1494294252.9147129059,       -0.5971679688,        0.4584960938,        0.0766601562,       17.0288085938,      -20.5230712891,       53.3142089844
1494294252.9174020290,       -0.7172851562,        0.4663085938,        0.0249023438,       18.0816650391,      -20.5230712891,       53.3142089844
1494294252.9200959206,       -0.7172851562,        0.4663085938,        0.0249023438,       18.0816650391,      -16.6168212891,       52.2308349609
1494294252.9227020741,       -0.7172851562,        0.4663085938,        0.0249023438,       17.5628662109,      -16.6015625000,       52.2308349609
1494294252.9252638817,       -0.7172851562,        0.4663085938,        0.0249023438,       17.5628662109,      -16.6015625000,       51.0253906250
1494294252.9280378819,       -0.8305664062,        0.5014648438,        0.0039062500,       15.5181884766,      -11.3372802734,       51.0253906250
1494294252.9306058884,       -0.8305664062,        0.5014648438,        0.0039062500,       15.5181884766,      -11.3372802734,       51.6357421875
1494294252.9336259365,       -0.8305664062,        0.5014648438,        0.0039062500,       11.3830566406,       -7.8582763672,       51.6357421875
1494294252.9363260269,       -0.8305664062,        0.5014648438,       -0.0146484375,       11.3830566406,       -3.9520263672,       53.6804199219
1494294252.9390270710,       -0.9233398438,        0.5102539062,       -0.0146484375,        5.9356689453,       -4.5013427734,       53.6804199219
1494294252.9417619705,       -0.9233398438,        0.5102539062,       -0.0146484375,        5.9356689453,       -0.5950927734,       55.8013916016
1494294252.9444599152,       -0.9233398438,        0.5102539062,       -0.0146484375,        3.4790039062,       -0.6713867188,       55.8013916016
1494294252.9471569061,       -0.9233398438,        0.5527343750,       -0.0043945312,        3.4790039062,        3.2348632812,       57.1441650391
1494294252.9498460293,       -0.9755859375,        0.5527343750,       -0.0043945312,        1.5106201172,        2.4261474609,       57.1441650391
1494294252.9525489807,       -0.9755859375,        0.5527343750,       -0.0043945312,        1.5106201172,        2.4261474609,       58.5327148438
1494294252.9552381039,       -0.9755859375,        0.5527343750,       -0.0043945312,       -0.7629394531,        5.7525634766,       58.5327148438
1494294252.9579300880,       -0.9409179688,        0.5986328125,       -0.0180664062,       -0.7629394531,        5.7525634766,       59.0515136719
1494294252.9606239796,       -0.9409179688,        0.5986328125,       -0.0180664062,       -1.8920898438,        9.3994140625,       59.0515136719
1494294252.9632198811,       -0.9409179688,        0.5986328125,       -0.0180664062,       -1.8920898438,        9.3994140625,       55.1452636719
1494294252.9657759666,       -0.9409179688,        0.5986328125,       -0.0180664062,       -1.9989013672,       13.3361816406,       57.9376220703
1494294252.9683320522,       -0.9746093750,        0.6376953125,        0.0073242188,       -1.9989013672,       13.3361816406,       57.9376220703
1494294252.9709379673,       -0.9746093750,        0.6376953125,        0.0073242188,       -2.2125244141,       16.9677734375,       57.1899414062
1494294252.9734990597,       -0.9746093750,        0.6376953125,        0.0073242188,       -2.2125244141,       16.9677734375,       57.1899414062
1494294252.9760549068,       -0.9746093750,        0.6376953125,        0.0073242188,       -2.5787353516,       19.6838378906,       56.8695068359
1494294252.9787280560,       -0.8662109375,        0.5751953125,        0.0693359375,       -2.5787353516,       19.6838378906,       56.8695068359
1494294252.9814589024,       -0.8662109375,        0.5751953125,        0.0693359375,       -3.4637451172,       21.3775634766,       55.9692382812
1494294252.9840118885,       -0.8662109375,        0.5751953125,        0.0693359375,       -3.4637451172,       21.3775634766,       55.9692382812
1494294252.9865679741,       -0.8662109375,        0.5751953125,        0.1943359375,       -5.3863525391,       20.9197998047,       54.6875000000
1494294252.9891200066,       -0.6464843750,        0.5551757812,        0.1533203125,       -5.3863525391,       20.9197998047,       54.6875000000
1494294252.9918699265,       -0.6464843750,        0.5551757812,        0.1533203125,       -5.4931640625,       18.8598632812,       52.5360107422
1494294252.9945631027,       -0.6464843750,        0.5551757812,        0.1533203125,       -5.4931640625,       18.8598632812,       52.5360107422
1494294252.9972560406,       -0.6464843750,        0.5747070312,        0.1767578125,       -3.9825439453,       17.0440673828,       49.5300292969
1494294252.9999508858,       -0.4648437500,        0.5747070312,        0.1767578125,       -3.9825439453,       17.0440673828,       49.5300292969
1494294253.0026578903,       -0.4648437500,        0.5747070312,        0.1767578125,       -1.8157958984,       14.5263671875,       45.3033447266
1494294253.0053539276,       -0.4648437500,        0.5747070312,        0.1767578125,       -1.8157958984,       14.5263671875,       45.3033447266
1494294253.0080409050,       -0.4047851562,        0.5737304688,        0.1455078125,        0.1068115234,       11.0015869141,       40.9088134766
1494294253.0107491016,       -0.4047851562,        0.5737304688,        0.1455078125,        0.1068115234,       11.0015869141,       40.9088134766
1494294253.0134480000,       -0.4047851562,        0.5737304688,        0.1455078125,        1.8157958984,        8.4686279297,       37.3229980469
1494294253.0161340237,       -0.4047851562,        0.5737304688,        0.1455078125,        1.8157958984,        8.4686279297,       37.3229980469
1494294253.0188219547,       -0.3984375000,        0.5527343750,        0.0615234375,        3.0822753906,        7.2479248047,       33.8592529297
1494294253.0215120316,       -0.3984375000,        0.5527343750,        0.0615234375,        3.0822753906,        7.2479248047,       33.8592529297
1494294253.0240600109,       -0.3984375000,        0.5527343750,        0.0615234375,        2.7465820312,        6.6680908203,       30.2581787109
1494294253.0266120434,       -0.3984375000,        0.5527343750,        0.0615234375,        2.7465820312,        6.6680908203,       30.2581787109
1494294253.0291609764,       -0.3950195312,        0.5693359375,       -0.0156250000,        2.7465820312,        6.6986083984,       26.6418457031
1494294253.0318019390,       -0.3950195312,        0.5693359375,       -0.0156250000,        1.3275146484,        6.6986083984,       26.6418457031
1494294253.0344989300,       -0.3950195312,        0.5693359375,       -0.0156250000,        1.3275146484,        7.3242187500,       23.1323242188
1494294253.0371909142,       -0.3950195312,        0.5693359375,       -0.0532226562,       -0.3051757812,        7.3242187500,       23.1323242188
1494294253.0398869514,       -0.3637695312,        0.5932617188,       -0.0532226562,       -0.3051757812,        7.8887939453,       19.4854736328
1494294253.0425939560,       -0.3637695312,        0.5932617188,       -0.0532226562,       -2.4719238281,        7.8887939453,       19.4854736328
1494294253.0452868938,       -0.3637695312,        0.5932617188,       -0.0532226562,       -2.4719238281,        7.8887939453,       15.5944824219
1494294253.0480940342,       -0.3549804688,        0.5898437500,       -0.0727539062,       -5.8135986328,        8.9263916016,       15.5944824219
1494294253.0511760712,       -0.3549804688,        0.5898437500,       -0.0727539062,       -8.3160400391,       10.3759765625,       12.1154785156
1494294253.0539889336,       -0.3549804688,        0.5898437500,       -0.0727539062,       -8.3160400391,       10.3759765625,       12.1154785156
1494294253.0566890240,       -0.3549804688,        0.5898437500,       -0.0727539062,      -10.7116699219,       11.2609863281,        8.2397460938
1494294253.0593869686,       -0.3554687500,        0.6240234375,       -0.0659179688,      -10.7116699219,       11.2609863281,        8.2397460938
1494294253.0620899200,       -0.3554687500,        0.6240234375,       -0.0659179688,      -13.0004882812,       12.3901367188,        4.0435791016
1494294253.0647859573,       -0.3554687500,        0.6240234375,       -0.0659179688,      -13.0004882812,       12.3901367188,        4.0435791016
1494294253.0674788952,       -0.3554687500,        0.6240234375,       -0.0351562500,      -15.8843994141,       13.5650634766,       -0.1220703125
1494294253.0701711178,       -0.3398437500,        0.6298828125,       -0.0351562500,      -15.8843994141,       13.5650634766,       -0.1220703125
1494294253.0727660656,       -0.3398437500,        0.6298828125,       -0.0351562500,      -15.8843994141,       14.8010253906,       -4.0740966797
1494294253.0753209591,       -0.3398437500,        0.6298828125,       -0.0351562500,      -16.8304443359,       14.8010253906,       -4.0740966797
1494294253.0778770447,       -0.3398437500,        0.6406250000,        0.0034179688,      -16.8304443359,       14.8010253906,       -9.2163085938
1494294253.0804319382,       -0.3476562500,        0.6406250000,        0.0034179688,      -14.9841308594,       15.5639648438,       -9.2163085938
1494294253.0830399990,       -0.3476562500,        0.6406250000,        0.0034179688,      -14.9841308594,       15.5639648438,      -14.9688720703
1494294253.0855998993,       -0.3476562500,        0.6406250000,        0.0034179688,      -12.2070312500,       15.6707763672,      -14.9688720703
1494294253.0881609917,       -0.3476562500,        0.6220703125,        0.0747070312,      -12.2070312500,       15.6707763672,      -14.9688720703
1494294253.0907020569,       -0.4487304688,        0.6220703125,        0.0747070312,      -10.8184814453,       15.1519775391,      -21.1639404297
1494294253.0932600498,       -0.4487304688,        0.6220703125,        0.0747070312,      -10.8184814453,       15.1519775391,      -21.1639404297
1494294253.0958149433,       -0.4487304688,        0.6220703125,        0.0747070312,      -11.3525390625,       13.6566162109,      -25.9857177734
1494294253.0983779430,       -0.4487304688,        0.5581054688,        0.1284179688,      -11.3525390625,       13.6566162109,      -25.9857177734
1494294253.1011021137,       -0.4501953125,        0.5581054688,        0.1284179688,      -11.3220214844,       12.1765136719,      -29.1748046875
1494294253.1036639214,       -0.4501953125,        0.5581054688,        0.1284179688,      -11.3220214844,       12.1765136719,      -29.1748046875
1494294253.1062219143,       -0.4501953125,        0.5581054688,        0.1284179688,       -9.7045898438,       12.0391845703,      -33.4625244141
1494294253.1087729931,       -0.4643554688,        0.6093750000,        0.1831054688,       -9.7045898438,       12.0391845703,      -33.4625244141
1494294253.1114668846,       -0.4643554688,        0.6093750000,        0.1831054688,       -7.3852539062,       12.0697021484,      -38.9709472656
1494294253.1140201092,       -0.4643554688,        0.6093750000,        0.1831054688,       -7.3852539062,       12.0697021484,      -38.9709472656
1494294253.1165709496,       -0.4643554688,        0.6093750000,        0.1831054688,       -6.8969726562,       10.9710693359,      -45.4559326172
1494294253.1191210747,       -0.5317382812,        0.6064453125,        0.1967773438,       -6.8969726562,       10.9710693359,      -45.4559326172
1494294253.1217670441,       -0.5317382812,        0.6064453125,        0.1967773438,       -6.8969726562,        9.5520019531,      -51.4831542969
1494294253.1245660782,       -0.5317382812,        0.6064453125,        0.1967773438,       -6.2866210938,        9.5520019531,      -51.4831542969
1494294253.1272540092,       -0.5317382812,        0.6064453125,        0.1967773438,       -2.3803710938,        8.4838867188,      -56.6406250000
1494294253.1299378872,       -0.5644531250,        0.6196289062,        0.2026367188,       -3.8757324219,        8.4838867188,      -56.6406250000
1494294253.1326339245,       -0.5644531250,        0.6196289062,        0.2026367188,       -3.8757324219,        8.1176757812,      -63.1866455078
1494294253.1353240013,       -0.5644531250,        0.6196289062,        0.2026367188,       -0.4425048828,        8.1176757812,      -63.1866455078
1494294253.1380128860,       -0.5644531250,        0.6196289062,        0.1518554688,        3.4637451172,        6.6833496094,      -71.5332031250
1494294253.1407160759,       -0.7133789062,        0.7114257812,        0.1518554688,        3.0670166016,        6.6833496094,      -71.5332031250
1494294253.1434040070,       -0.7133789062,        0.7114257812,        0.1518554688,        3.0670166016,        5.6762695312,      -82.0312500000
1494294253.1460900307,       -0.7133789062,        0.7114257812,        0.1518554688,        6.1950683594,        5.6762695312,      -82.0312500000
1494294253.1487739086,       -0.9633789062,        0.7192382812,        0.0791015625,        6.1950683594,        5.5236816406,      -91.7205810547
1494294253.1514720917,       -0.9218750000,        0.7192382812,        0.0791015625,        7.3089599609,        5.5236816406,      -91.7205810547
1494294253.1541581154,       -0.9218750000,        0.7192382812,        0.0791015625,        7.3089599609,        5.5236816406,      -98.8311767578
1494294253.1568520069,       -0.9218750000,        0.7192382812,        0.0791015625,        6.8817138672,        5.5389404297,      -98.8311767578
1494294253.1595389843,       -1.0273437500,        0.6977539062,        0.0175781250,        6.8817138672,        5.5389404297,     -105.5450439453
1494294253.1621649265,       -1.0273437500,        0.6977539062,        0.0175781250,        6.8359375000,        5.4779052734,     -105.5450439453
1494294253.1647150517,       -1.0273437500,        0.6977539062,        0.0175781250,        6.8359375000,        5.4779052734,     -113.2202148438
1494294253.1673340797,       -1.0273437500,        0.6977539062,        0.0175781250,        6.0424804688,        7.4310302734,     -113.2202148438
1494294253.1699070930,       -1.1289062500,        0.7797851562,       -0.0488281250,        6.0424804688,        7.4310302734,     -121.3989257812
1494294253.1729800701,       -1.1289062500,        0.7797851562,       -0.0488281250,        5.3558349609,        9.8724365234,     -121.3989257812
1494294253.1756510735,       -1.1289062500,        0.7797851562,       -0.0488281250,        5.3558349609,        9.8724365234,     -128.3721923828
1494294253.1783280373,       -1.1289062500,        0.7797851562,       -0.0810546875,        5.3253173828,       12.2680664062,     -128.3721923828
1494294253.1810219288,       -1.2714843750,        0.8281250000,       -0.0810546875,        5.3253173828,       12.2680664062,     -135.4522705078
1494294253.1837038994,       -1.2714843750,        0.8281250000,       -0.0810546875,        6.9427490234,       16.2658691406,     -135.4522705078
1494294253.1863789558,       -1.2714843750,        0.8281250000,       -0.0810546875,        6.9427490234,       16.2658691406,     -142.0745849609
1494294253.1890540123,       -1.2714843750,        0.7954101562,       -0.0605468750,        6.9732666016,       17.8527832031,     -142.0745849609
1494294253.1917409897,       -1.3881835938,        0.7954101562,       -0.0605468750,        6.9732666016,       17.8527832031,     -145.9808349609
1494294253.1944189072,       -1.3881835938,        0.7954101562,       -0.0605468750,        7.0495605469,       19.2718505859,     -148.4375000000
1494294253.1970949173,       -1.3881835938,        0.7954101562,       -0.0605468750,        7.0495605469,       19.2718505859,     -156.2500000000
1494294253.1998779774,       -1.4023437500,        0.6962890625,        0.0073242188,        5.1422119141,       18.2952880859,     -156.0821533203
1494294253.2024888992,       -1.4023437500,        0.6962890625,        0.0073242188,        5.1422119141,       18.2952880859,     -156.0821533203
1494294253.2050440311,       -1.4023437500,        0.6962890625,        0.0073242188,       -0.0152587891,       14.2822265625,     -166.6259765625
1494294253.2076010704,       -1.4023437500,        0.6962890625,        0.0073242188,       -0.0152587891,       14.2822265625,     -166.6259765625
1494294253.2101509571,       -1.4912109375,        0.5053710938,        0.0629882812,        8.6212158203,       11.6271972656,     -175.7354736328
1494294253.2128520012,       -1.4912109375,        0.5053710938,        0.0629882812,        8.6212158203,       11.6271972656,     -175.7354736328
1494294253.2154059410,       -1.4912109375,        0.5053710938,        0.0629882812,       20.9197998047,       12.2375488281,     -180.7708740234
1494294253.2179589272,       -1.4912109375,        0.5053710938,        0.0629882812,       20.9197998047,       12.2375488281,     -180.7708740234
1494294253.2205150127,       -1.5146484375,        0.3325195312,        0.1923828125,       25.4211425781,        9.9487304688,     -183.3343505859
1494294253.2231960297,       -1.5146484375,        0.3325195312,        0.1923828125,       25.4211425781,        9.9487304688,     -183.3343505859
1494294253.2257540226,       -1.5146484375,        0.3325195312,        0.1923828125,       26.2451171875,        7.2174072266,     -183.7615966797
1494294253.2283051014,       -1.5146484375,        0.3325195312,        0.1923828125,       26.2451171875,        7.2174072266,     -183.7615966797
1494294253.2310318947,       -1.2988281250,        0.1103515625,        0.2465820312,       21.8048095703,        4.0740966797,     -185.8978271484
1494294253.2337288857,       -1.2988281250,        0.1103515625,        0.2465820312,       21.8048095703,        4.0740966797,     -185.8978271484
1494294253.2364199162,       -1.2988281250,        0.1103515625,        0.2465820312,       20.1721191406,        3.2501220703,     -188.2476806641
1494294253.2391159534,       -1.2988281250,       -0.0146484375,        0.2099609375,       20.1721191406,        3.2501220703,     -188.2476806641
1494294253.2418220043,       -0.9692382812,       -0.0336914062,        0.2099609375,       22.7966308594,        4.4097900391,     -187.1185302734
1494294253.2445259094,       -0.9692382812,       -0.0336914062,        0.2099609375,       22.7966308594,        4.4097900391,     -187.1185302734
1494294253.2472240925,       -0.9692382812,       -0.0336914062,        0.2099609375,       29.1290283203,        5.7983398438,     -186.4318847656
1494294253.2499160767,       -0.8740234375,       -0.0610351562,        0.1362304688,       29.1290283203,        5.7983398438,     -186.4318847656
1494294253.2526121140,       -0.8740234375,       -0.0610351562,        0.1362304688,       40.2679443359,        8.3312988281,     -184.2803955078
1494294253.2553000450,       -0.8740234375,       -0.0610351562,        0.1362304688,       40.2679443359,        8.3312988281,     -184.2803955078
1494294253.2579920292,       -0.8740234375,       -0.0610351562,        0.1362304688,       51.7120361328,       14.0533447266,     -179.3670654297
1494294253.2607049942,       -0.9541015625,        0.1655273438,        0.0908203125,       51.7120361328,       14.0533447266,     -179.3670654297
1494294253.2632629871,       -0.9541015625,        0.1655273438,        0.0908203125,       63.4307861328,       19.6228027344,     -178.6651611328
1494294253.2658200264,       -0.9541015625,        0.1655273438,        0.0908203125,       63.5223388672,       19.6228027344,     -178.6651611328
1494294253.2683761120,       -0.9541015625,        0.1655273438,        0.0908203125,       63.5223388672,       19.6228027344,     -173.1567382812
1494294253.2709949017,       -0.9545898438,        0.5439453125,        0.1562500000,       67.0623779297,       24.4140625000,     -173.1567382812
1494294253.2738089561,       -0.9545898438,        0.5439453125,        0.1562500000,       67.0623779297,       24.4140625000,     -153.7475585938
1494294253.2765159607,       -0.9545898438,        0.5439453125,        0.1562500000,       64.0258789062,       24.1088867188,     -153.7475585938
1494294253.2792179585,       -0.9545898438,        0.5439453125,        0.2661132812,       64.0258789062,       20.2026367188,     -130.6457519531
1494294253.2819640636,       -0.8925781250,        1.1259765625,        0.2661132812,       60.5163574219,       23.1475830078,     -130.6457519531
1494294253.2846629620,       -0.8925781250,        1.1259765625,        0.2661132812,       60.5163574219,       23.1475830078,     -115.3869628906
1494294253.2875320911,       -0.8925781250,        1.1259765625,        0.2661132812,       62.3931884766,       21.4843750000,     -115.3869628906
1494294253.2906200886,       -0.2543945312,        1.8139648438,        0.4521484375,       73.6541748047,       11.4440917969,      -98.3581542969
1494294253.2933681011,       -0.2543945312,        1.8139648438,        0.4521484375,       73.6541748047,       11.4440917969,      -98.3581542969
1494294253.2960689068,       -0.2543945312,        1.8139648438,        0.4521484375,       64.4531250000,       -5.2642822266,      -92.4987792969
1494294253.2987670898,       -0.2543945312,        1.8139648438,        0.4521484375,       64.4531250000,       -5.2642822266,      -92.4987792969
1494294253.3014640808,       -0.1933593750,        1.4052734375,        0.4423828125,       44.9218750000,      -12.5732421875,      -95.0164794922
1494294253.3041629791,       -0.1933593750,        1.4052734375,        0.4423828125,       46.4782714844,      -12.5732421875,      -95.0164794922
1494294253.3068590164,       -0.1933593750,        1.4052734375,        0.4423828125,       42.5720214844,      -19.5312500000,      -87.6159667969
1494294253.3095500469,       -0.1933593750,        1.4052734375,        0.2324218750,       39.1845703125,      -19.5312500000,      -87.6159667969
1494294253.3121840954,       -0.1616210938,        0.4326171875,        0.2324218750,       39.1845703125,      -23.4680175781,      -71.8688964844
1494294253.3147399426,       -0.1616210938,        0.4326171875,        0.2324218750,       35.0646972656,      -23.4680175781,      -71.8688964844
1494294253.3172988892,       -0.1616210938,        0.4326171875,        0.2324218750,       35.0646972656,      -23.4680175781,      -52.4444580078
1494294253.3198568821,       -0.1616210938,        0.0576171875,        0.0043945312,       38.1774902344,      -29.5562744141,      -52.4444580078
1494294253.3224720955,       -0.2163085938,        0.0395507812,        0.0043945312,       38.1774902344,      -29.5562744141,      -32.9132080078
1494294253.3250329494,       -0.2163085938,        0.0395507812,        0.0043945312,       44.9066162109,      -33.1268310547,      -34.1491699219
1494294253.3275899887,       -0.2163085938,        0.0395507812,        0.0043945312,       44.9066162109,      -33.1268310547,      -34.1491699219
1494294253.3301479816,       -0.2163085938,        0.0166015625,       -0.0009765625,       47.6226806641,      -35.4309082031,      -21.4233398438
1494294253.3328130245,       -0.1562500000,        0.0166015625,       -0.0009765625,       47.6226806641,      -35.4309082031,      -21.4233398438
1494294253.3353691101,       -0.1562500000,        0.0166015625,       -0.0009765625,       47.9431152344,      -36.3311767578,      -14.3585205078
1494294253.3379271030,       -0.1562500000,        0.0166015625,       -0.0009765625,       47.9431152344,      -36.3311767578,      -14.3585205078
1494294253.3404879570,       -0.0312500000,        0.0009765625,       -0.0390625000,       49.5758056641,      -37.0788574219,      -10.8337402344
1494294253.3433101177,       -0.0976562500,        0.0009765625,       -0.0390625000,       49.5758056641,      -37.0788574219,      -10.8337402344
1494294253.3461101055,       -0.0976562500,        0.0009765625,       -0.0390625000,       51.6967773438,      -36.8652343750,       -3.8757324219
1494294253.3488121033,       -0.0976562500,        0.0009765625,       -0.0390625000,       51.6967773438,      -36.8652343750,       -3.8757324219
1494294253.3515179157,       -0.0678710938,        0.0239257812,       -0.0708007812,       53.4820556641,      -36.6058349609,        1.9378662109
1494294253.3540780544,       -0.0678710938,        0.0239257812,       -0.0708007812,       53.4820556641,      -36.6058349609,        1.9378662109
1494294253.3566339016,       -0.0678710938,        0.0239257812,       -0.0708007812,       57.6934814453,      -35.2935791016,        6.2866210938
1494294253.3591890335,       -0.0678710938,        0.0239257812,       -0.0708007812,       57.6934814453,      -35.2935791016,        6.2866210938
1494294253.3618259430,       -0.0937500000,        0.0112304688,       -0.0722656250,       61.5386962891,      -33.3709716797,       10.1928710938
1494294253.3645279408,       -0.0937500000,        0.0112304688,       -0.0722656250,       61.5386962891,      -33.3709716797,       10.1928710938
1494294253.3672230244,       -0.0937500000,        0.0112304688,       -0.0722656250,       63.7207031250,      -30.7922363281,       11.5509033203
1494294253.3699250221,       -0.0937500000,        0.0112304688,       -0.1254882812,       63.7207031250,      -30.7922363281,       11.5509033203
1494294253.3725380898,       -0.1606445312,       -0.0961914062,       -0.1254882812,       62.5762939453,      -26.1077880859,       12.1459960938
1494294253.3750998974,       -0.1606445312,       -0.0961914062,       -0.1254882812,       62.5762939453,      -26.1077880859,       12.1459960938
1494294253.3776569366,       -0.1606445312,       -0.0961914062,       -0.1254882812,       54.7637939453,      -20.5078125000,       14.3890380859
1494294253.3802158833,       -0.1606445312,       -0.0961914062,       -0.1391601562,       57.0526123047,      -20.5078125000,       14.3890380859
1494294253.3829069138,       -0.2031250000,       -0.2358398438,       -0.1391601562,       57.0526123047,      -14.1296386719,       17.3797607422
1494294253.3856070042,       -0.2031250000,       -0.2358398438,       -0.1391601562,       49.2095947266,      -14.1296386719,       17.3797607422
1494294253.3883020878,       -0.2031250000,       -0.2358398438,       -0.1391601562,       49.2095947266,       -7.7209472656,       19.6075439453
1494294253.3910119534,       -0.1967773438,       -0.3901367188,       -0.1411132812,       39.1082763672,       -7.7209472656,       19.6075439453
1494294253.3937089443,       -0.1967773438,       -0.3901367188,       -0.1411132812,       39.1082763672,       -2.5482177734,       19.7906494141
1494294253.3964068890,       -0.1967773438,       -0.3901367188,       -0.1411132812,       28.0914306641,       -2.5482177734,       19.7906494141
1494294253.3991420269,       -0.1967773438,       -0.3901367188,       -0.1411132812,       28.0914306641,        0.9613037109,       17.5628662109
1494294253.4020140171,       -0.1772460938,       -0.4833984375,       -0.1523437500,       18.7530517578,        0.9613037109,       17.5628662109
1494294253.4045879841,       -0.1772460938,       -0.4833984375,       -0.1523437500,       18.7530517578,        0.9613037109,       13.5192871094
1494294253.4071469307,       -0.1772460938,       -0.4833984375,       -0.1523437500,       10.8032226562,        2.9296875000,       13.5192871094
1494294253.4097099304,       -0.1772460938,       -0.4833984375,       -0.1523437500,       10.8032226562,        2.9296875000,        8.9263916016
1494294253.4123980999,       -0.1372070312,       -0.4814453125,       -0.1425781250,        5.8593750000,        2.9754638672,        8.9263916016
1494294253.4150910378,       -0.1372070312,       -0.4814453125,       -0.1425781250,        5.8593750000,        2.9754638672,        4.5471191406
1494294253.4177820683,       -0.1372070312,       -0.4814453125,       -0.1425781250,        2.9754638672,        1.6174316406,        4.5471191406
1494294253.4205770493,       -0.1372070312,       -0.4814453125,       -0.1889648438,        2.9754638672,        1.6174316406,        1.2817382812
1494294253.4232668877,       -0.1044921875,       -0.3945312500,       -0.1889648438,        1.6174316406,        0.7476806641,        1.2817382812
1494294253.4259500504,       -0.1044921875,       -0.3945312500,       -0.1889648438,        1.6174316406,        0.7476806641,       -2.7618408203
1494294253.4286329746,       -0.1044921875,       -0.3945312500,       -0.1889648438,        0.8850097656,        1.3732910156,       -2.7618408203
1494294253.4313321114,       -0.0761718750,       -0.3237304688,       -0.1401367188,        0.8850097656,        1.3732910156,       -6.6680908203
1494294253.4338819981,       -0.0761718750,       -0.3237304688,       -0.1401367188,        0.3662109375,        1.0528564453,       -6.4086914062
1494294253.4364249706,       -0.0761718750,       -0.3237304688,       -0.1401367188,        0.3662109375,        1.0528564453,       -6.4086914062
1494294253.4389688969,       -0.0761718750,       -0.3237304688,       -0.1401367188,       -0.0915527344,        1.1138916016,      -10.7421875000
1494294253.4415540695,       -0.0332031250,       -0.3090820312,       -0.1176757812,       -0.0915527344,        1.1138916016,      -10.7421875000
1494294253.4441099167,       -0.0332031250,       -0.3090820312,       -0.1176757812,       -1.7089843750,        0.4730224609,      -16.2200927734
1494294253.4466578960,       -0.0332031250,       -0.3090820312,       -0.1176757812,       -1.7089843750,        0.4730224609,      -16.2200927734
1494294253.4492108822,       -0.0332031250,       -0.3090820312,       -0.1176757812,       -3.3416748047,       -1.2207031250,      -22.0031738281
1494294253.4518740177,       -0.0195312500,       -0.2470703125,       -0.1015625000,       -3.3416748047,       -1.2207031250,      -22.0031738281
1494294253.4544320107,       -0.0195312500,       -0.2470703125,       -0.1015625000,       -5.1879882812,       -2.6702880859,      -28.8391113281
1494294253.4569799900,       -0.0195312500,       -0.2470703125,       -0.1015625000,       -5.1879882812,       -2.6702880859,      -28.8391113281
1494294253.4595360756,       -0.0195312500,       -0.2470703125,       -0.1015625000,       -6.4392089844,       -4.8370361328,      -35.2783203125
1494294253.4622991085,       -0.0361328125,       -0.1567382812,       -0.0961914062,       -6.4392089844,       -4.8370361328,      -35.2783203125
1494294253.4649999142,       -0.0361328125,       -0.1567382812,       -0.0961914062,       -5.4473876953,       -7.7209472656,      -41.2139892578
1494294253.4676909447,       -0.0361328125,       -0.1567382812,       -0.0961914062,       -5.4473876953,       -7.7209472656,      -41.2139892578
1494294253.4703810215,       -0.0361328125,       -0.1567382812,       -0.0961914062,       -1.7242431641,      -10.0250244141,      -45.4559326172
1494294253.4730849266,       -0.0756835938,       -0.0952148438,       -0.0527343750,       -1.7242431641,      -10.0250244141,      -45.4559326172
1494294253.4757819176,       -0.0756835938,       -0.0952148438,       -0.0527343750,        2.6245117188,      -11.7797851562,      -48.5687255859
1494294253.4784729481,       -0.0756835938,       -0.0952148438,       -0.0527343750,        2.6245117188,      -11.7797851562,      -48.5687255859
1494294253.4811799526,       -0.0756835938,       -0.0952148438,       -0.0620117188,        4.6691894531,      -12.3138427734,      -49.7741699219
1494294253.4838740826,       -0.1352539062,       -0.0751953125,       -0.0620117188,        4.6691894531,      -12.3138427734,      -49.7741699219
1494294253.4865689278,       -0.1352539062,       -0.0751953125,       -0.0620117188,        3.4484863281,      -11.6424560547,      -49.5758056641
1494294253.4892640114,       -0.1352539062,       -0.0751953125,       -0.0620117188,        3.4484863281,      -11.6424560547,      -49.5758056641
1494294253.4919009209,       -0.1557617188,       -0.0288085938,       -0.0947265625,        3.4484863281,      -11.0015869141,      -48.5076904297
1494294253.4945709705,       -0.1557617188,       -0.0288085938,       -0.0947265625,        0.7629394531,      -11.0015869141,      -48.5076904297
1494294253.4971280098,       -0.1557617188,       -0.0288085938,       -0.0947265625,        0.7629394531,      -11.0015869141,      -44.8913574219
1494294253.4996869564,       -0.1557617188,       -0.0288085938,       -0.0947265625,       -3.9520263672,       -9.9029541016,      -44.8913574219
1494294253.5023109913,       -0.1752929688,        0.0595703125,       -0.1074218750,       -3.9520263672,       -9.9029541016,      -40.2526855469
1494294253.5048620701,       -0.1752929688,        0.0595703125,       -0.1074218750,       -8.8195800781,       -7.2784423828,      -40.2526855469
1494294253.5074129105,       -0.1752929688,        0.0595703125,       -0.1074218750,       -8.8195800781,       -7.2784423828,      -32.4401855469
1494294253.5099699497,       -0.1752929688,        0.0595703125,       -0.1074218750,      -10.9405517578,       -3.9520263672,      -35.0341796875
1494294253.5126459599,       -0.1577148438,        0.2568359375,       -0.1352539062,      -10.9405517578,       -3.9520263672,      -35.0341796875
1494294253.5153429508,       -0.1577148438,        0.2568359375,       -0.1352539062,      -10.7727050781,       -0.6103515625,      -28.1677246094
1494294253.5182249546,       -0.1577148438,        0.2568359375,       -0.1352539062,      -10.7727050781,       -0.6103515625,      -20.3552246094
1494294253.5213510990,       -0.1577148438,        0.2568359375,       -0.1274414062,       -9.9182128906,        2.4261474609,      -21.6674804688
1494294253.5240490437,       -0.1215820312,        0.3979492188,       -0.1274414062,       -9.9182128906,        2.4261474609,      -15.2130126953
1494294253.5267410278,       -0.1215820312,        0.3979492188,       -0.1274414062,       -8.8043212891,        4.8675537109,      -15.2130126953
1494294253.5294311047,       -0.1215820312,        0.3979492188,       -0.1274414062,       -8.8043212891,        4.8675537109,       -7.9498291016
1494294253.5321609974,       -0.1215820312,        0.3642578125,       -0.0971679688,       -5.2032470703,        7.2784423828,       -7.9498291016
1494294253.5348489285,       -0.1074218750,        0.3642578125,       -0.0971679688,       -5.2032470703,        7.2784423828,       -1.4190673828
1494294253.5375390053,       -0.1074218750,        0.3642578125,       -0.0971679688,       -3.3111572266,        9.7503662109,       -1.4190673828
1494294253.5402240753,       -0.1074218750,        0.3642578125,       -0.0971679688,       -3.3111572266,        9.7503662109,        5.3253173828
1494294253.5429549217,       -0.1391601562,        0.2958984375,       -0.0766601562,       -2.6550292969,       11.9476318359,        5.3253173828
1494294253.5456449986,       -0.1391601562,        0.2958984375,       -0.0766601562,       -2.6550292969,       11.9476318359,       12.9699707031
1494294253.5483338833,       -0.1391601562,        0.2958984375,       -0.0766601562,       -2.0294189453,       12.8173828125,       12.9699707031
1494294253.5510320663,       -0.1391601562,        0.2958984375,       -0.0766601562,       -2.0294189453,       12.8173828125,       20.7824707031
1494294253.5535900593,       -0.1469726562,        0.3056640625,       -0.0815429688,       -1.6326904297,       12.5427246094,       22.2778320312
1494294253.5561470985,       -0.1469726562,        0.3056640625,       -0.0815429688,       -1.6326904297,       12.5427246094,       22.2778320312
1494294253.5587060452,       -0.1469726562,        0.3056640625,       -0.0815429688,       -0.0305175781,       12.2070312500,       33.4930419922
1494294253.5612690449,       -0.1469726562,        0.3056640625,       -0.0815429688,       -0.0305175781,       12.2070312500,       33.4930419922
1494294253.5638499260,       -0.1386718750,        0.3154296875,       -0.0913085938,        1.2207031250,       12.2985839844,       44.3420410156
1494294253.5667650700,       -0.1386718750,        0.3154296875,       -0.0913085938,        1.2207031250,       12.2985839844,       44.3420410156
1494294253.5693259239,       -0.1386718750,        0.3154296875,       -0.0913085938,       -1.4495849609,       12.1154785156,       53.7261962891
1494294253.5720429420,       -0.1386718750,        0.4404296875,       -0.0605468750,       -1.4495849609,       12.1154785156,       53.7261962891
1494294253.5745990276,       -0.1435546875,        0.3950195312,       -0.0605468750,       -3.0975341797,       11.4898681641,       67.7947998047
1494294253.5771570206,       -0.1435546875,        0.3950195312,       -0.0605468750,       -3.0975341797,       11.4898681641,       67.7947998047
1494294253.5797080994,       -0.1435546875,        0.3950195312,       -0.0605468750,       15.8538818359,       10.0555419922,      133.9721679688
1494294253.5825009346,        0.2314453125,        4.3173828125,        0.4951171875,       15.8538818359,       10.0555419922,      133.9721679688
1494294253.5851979256,        0.2246093750,        4.3173828125,        0.4951171875,       -2.0599365234,        8.5601806641,      220.9167480469
1494294253.5878911018,        0.2246093750,        4.3173828125,        0.4951171875,       -2.0599365234,        8.5601806641,      220.9167480469
1494294253.5905859470,        0.2246093750,        4.3173828125,        0.4951171875,     -150.4516601562,       39.0014648438,      270.8892822266
1494294253.5932860374,       -0.1718750000,        5.2216796875,        0.2338867188,     -150.4516601562,       39.0014648438,      270.8892822266
1494294253.5959849358,       -0.1718750000,        5.2216796875,        0.2338867188,     -190.6433105469,       40.9088134766,      279.1748046875
1494294253.5986819267,       -0.1718750000,        5.2216796875,        0.2338867188,     -190.6433105469,       40.9088134766,      279.1748046875
1494294253.6013610363,       -0.1718750000,        5.2216796875,        0.2338867188,      -59.4635009766,       21.3317871094,      243.0419921875
1494294253.6039190292,       -2.8515625000,       -1.3173828125,       -0.1845703125,      -59.4635009766,       21.3317871094,      243.0419921875
1494294253.6064670086,       -2.8515625000,       -1.3173828125,       -0.1845703125,       42.8619384766,       28.6254882812,      210.6323242188
1494294253.6090230942,       -2.8515625000,       -1.3173828125,       -0.1845703125,       42.8619384766,       28.6254882812,      210.6323242188
1494294253.6116359234,       -2.8515625000,       -1.3173828125,       -0.1845703125,      -15.7318115234,        6.0119628906,      197.2198486328
1494294253.6143319607,       -2.9287109375,       -2.5161132812,        0.0546875000,      -19.3786621094,        6.0119628906,      197.2198486328
1494294253.6170289516,       -2.9287109375,       -2.5161132812,        0.0546875000,      -74.0661621094,      -14.7857666016,      162.7655029297
1494294253.6197299957,       -2.9287109375,       -2.5161132812,        0.0546875000,      -71.5942382812,      -14.7857666016,      162.7655029297
1494294253.6224410534,       -2.9287109375,       -1.7661132812,        0.7226562500,      -91.1254882812,       10.7116699219,      154.9835205078
1494294253.6251370907,       -2.4375000000,       -1.8110351562,        0.7226562500,      -91.1560058594,       10.7116699219,      154.9835205078
1494294253.6278400421,       -2.4375000000,       -1.8110351562,        0.7226562500,      -91.1560058594,        8.4686279297,      195.8618164062
1494294253.6305398941,       -2.4375000000,       -1.8110351562,        0.7226562500,     -114.2883300781,        8.4686279297,      195.8618164062
1494294253.6332459450,       -2.1879882812,        1.1865234375,        0.5429687500,     -114.2883300781,       -9.9639892578,      220.4284667969
1494294253.6359379292,       -2.1879882812,        1.1865234375,        0.5429687500,      -91.3238525391,       -9.9639892578,      220.4284667969
1494294253.6387200356,       -2.1879882812,        1.1865234375,        0.5429687500,      -91.3238525391,      -14.2059326172,      200.6835937500
1494294253.6419429779,       -2.1879882812,        1.1865234375,        0.5429687500,      -43.1823730469,      -14.2059326172,      200.6835937500
1494294253.6446399689,       -2.0712890625,        1.9960937500,        0.4096679688,      -18.8751220703,      -34.5306396484,      168.4722900391
1494294253.6473360062,       -2.0712890625,        1.9960937500,        0.4096679688,      -18.8751220703,      -34.5306396484,      168.4722900391
1494294253.6500279903,       -2.0712890625,        1.9960937500,        0.4096679688,      -16.4031982422,      -58.4259033203,      147.7203369141
1494294253.6526620388,       -2.0712890625,        0.4960937500,        0.0776367188,      -16.4031982422,      -58.4259033203,      147.7203369141
1494294253.6552169323,       -0.7373046875,        0.4824218750,        0.0776367188,        7.0343017578,      -69.2749023438,      133.6669921875
1494294253.6577749252,       -0.7373046875,        0.4824218750,        0.0776367188,        4.8675537109,      -69.2749023438,      133.6669921875
1494294253.6603379250,       -0.7373046875,        0.4824218750,        0.0776367188,        4.8675537109,      -69.2749023438,      119.0338134766
1494294253.6630370617,       -0.7373046875,        0.6621093750,       -0.0283203125,       32.2265625000,      -66.8640136719,      119.0338134766
1494294253.6657369137,       -0.9316406250,        0.6621093750,       -0.0283203125,       32.2265625000,      -55.1452636719,      102.5695800781
1494294253.6684401035,       -0.9316406250,        0.6621093750,       -0.0283203125,       35.0952148438,      -57.3120117188,      102.5695800781
1494294253.6711320877,       -0.9316406250,        0.6621093750,       -0.0283203125,       35.0952148438,      -57.3120117188,       94.7418212891
1494294253.6736919880,       -1.3139648438,        0.4213867188,       -0.3559570312,       17.4102783203,      -55.5267333984,       94.7418212891
1494294253.6762509346,       -1.3139648438,        0.4213867188,       -0.3559570312,       17.4102783203,      -55.5267333984,       98.6480712891
1494294253.6788120270,       -1.3139648438,        0.4213867188,       -0.3559570312,        6.0729980469,      -56.9152832031,       97.9156494141
1494294253.6813910007,       -1.3139648438,        0.4213867188,       -0.3559570312,        6.0729980469,      -56.9152832031,       97.9156494141
1494294253.6839470863,       -1.0009765625,        0.7885742188,       -0.4291992188,       -0.9460449219,      -49.2248535156,      100.2349853516
1494294253.6865050793,       -1.0009765625,        0.7885742188,       -0.4291992188,       -0.9460449219,      -49.2248535156,      100.2349853516
1494294253.6890549660,       -1.0009765625,        0.7885742188,       -0.4291992188,       -7.5531005859,      -35.7818603516,       96.6491699219
1494294253.6917169094,       -1.0009765625,        0.7885742188,       -0.4291992188,       -7.5531005859,      -35.7818603516,       96.6491699219
1494294253.6942720413,       -0.5566406250,        0.7548828125,       -0.2973632812,      -17.4102783203,      -27.9388427734,       90.1336669922
1494294253.6968340874,       -0.5566406250,        0.7548828125,       -0.2973632812,      -17.4102783203,      -27.9388427734,       90.1336669922
1494294253.6993958950,       -0.5566406250,        0.7548828125,       -0.2973632812,      -22.9949951172,      -28.3660888672,       82.3822021484
1494294253.7020440102,       -0.5566406250,        0.7548828125,       -0.2973632812,      -22.9949951172,      -28.3660888672,       82.3822021484
1494294253.7046060562,       -0.1074218750,        0.6831054688,       -0.0131835938,      -22.6440429688,      -29.4494628906,       70.4040527344
1494294253.7071640491,       -0.1074218750,        0.6831054688,       -0.0131835938,      -22.6440429688,      -29.4494628906,       70.4040527344
1494294253.7097260952,       -0.1074218750,        0.6831054688,       -0.0131835938,      -21.4691162109,      -26.9622802734,       56.4270019531
1494294253.7124300003,       -0.1074218750,        0.6831054688,       -0.0131835938,      -21.4691162109,      -26.9622802734,       56.4270019531
1494294253.7152450085,        0.1181640625,        0.7504882812,        0.1743164062,      -18.2647705078,      -23.4069824219,       42.7093505859
1494294253.7179470062,        0.1181640625,        0.7504882812,        0.1743164062,      -18.2647705078,      -23.4069824219,       42.7093505859
1494294253.7206850052,        0.1181640625,        0.7504882812,        0.1743164062,      -12.7716064453,      -19.6990966797,       29.4952392578
1494294253.7233879566,        0.1181640625,        0.6020507812,        0.3066406250,      -12.7716064453,      -19.6990966797,       29.4952392578
1494294253.7260890007,        0.0454101562,        0.6020507812,        0.3066406250,       -8.6975097656,      -15.5639648438,       17.9290771484
1494294253.7287859917,        0.0454101562,        0.6020507812,        0.3066406250,       -8.6975097656,      -15.5639648438,       17.9290771484
1494294253.7314438820,        0.0454101562,        0.6020507812,        0.3066406250,       -4.7912597656,      -12.9547119141,        8.1329345703
1494294253.7339999676,       -0.1220703125,        0.5458984375,        0.3920898438,       -4.3945312500,      -12.9547119141,        8.1329345703
1494294253.7365520000,       -0.1220703125,        0.5458984375,        0.3920898438,       -4.3945312500,       -9.0484619141,        0.0762939453
1494294253.7391040325,       -0.1220703125,        0.5458984375,        0.3920898438,       -0.2746582031,      -11.3983154297,        0.0762939453
1494294253.7417829037,       -0.1220703125,        0.5458984375,        0.3920898438,       -0.2746582031,      -11.3983154297,       -8.8043212891
1494294253.7444820404,       -0.2558593750,        0.5488281250,        0.4370117188,        3.5400390625,      -13.0920410156,       -8.8043212891
1494294253.7471768856,       -0.2558593750,        0.5488281250,        0.4370117188,        3.5400390625,      -13.0920410156,      -18.8598632812
1494294253.7498810291,       -0.2558593750,        0.5488281250,        0.4370117188,        5.7067871094,      -15.1367187500,      -18.8598632812
1494294253.7524929047,       -0.2558593750,        0.5488281250,        0.4370117188,        5.7067871094,      -15.1367187500,      -28.4576416016
1494294253.7550480366,       -0.4033203125,        0.6069335938,        0.3691406250,        9.0942382812,      -15.8691406250,      -28.4576416016
1494294253.7577769756,       -0.4033203125,        0.6069335938,        0.3691406250,        9.0942382812,      -15.8691406250,      -36.2701416016
1494294253.7603380680,       -0.4033203125,        0.6069335938,        0.3691406250,       13.0767822266,      -14.5568847656,      -36.9110107422
1494294253.7632529736,       -0.4033203125,        0.6069335938,        0.2314453125,       13.0767822266,      -14.5568847656,      -44.7235107422
1494294253.7659590244,       -0.5537109375,        0.6069335938,        0.2314453125,       16.2963867188,      -12.2528076172,      -44.3267822266
1494294253.7686600685,       -0.5537109375,        0.6069335938,        0.2314453125,       16.2963867188,      -12.2528076172,      -48.2330322266
1494294253.7713689804,       -0.5537109375,        0.6069335938,        0.2314453125,       17.5781250000,       -8.7432861328,      -50.5523681641
1494294253.7740640640,       -0.6787109375,        0.5463867188,        0.1391601562,       17.5781250000,       -8.7432861328,      -54.4586181641
1494294253.7767570019,       -0.7065429688,        0.5463867188,        0.1391601562,       17.5323486328,       -4.2266845703,      -54.0924072266
1494294253.7794530392,       -0.7065429688,        0.5463867188,        0.1391601562,       17.5323486328,       -4.2266845703,      -57.9986572266
1494294253.7821640968,       -0.7065429688,        0.5463867188,        0.1391601562,       15.6250000000,       -0.4730224609,      -55.8471679688
1494294253.7848620415,       -0.8691406250,        0.4819335938,        0.0820312500,       15.6250000000,       -0.4730224609,      -55.8471679688
1494294253.7876670361,       -0.8691406250,        0.4819335938,        0.0820312500,       12.8631591797,        3.6621093750,      -56.3354492188
1494294253.7903640270,       -0.8691406250,        0.4819335938,        0.0820312500,       12.8631591797,        3.6621093750,      -56.3354492188
1494294253.7929589748,       -0.8691406250,        0.4819335938,        0.0820312500,        9.6588134766,        8.3618164062,      -56.4270019531
1494294253.7955119610,       -1.0830078125,        0.4550781250,        0.0327148438,        9.6588134766,        8.3618164062,      -56.4270019531
1494294253.7980680466,       -1.0830078125,        0.4550781250,        0.0327148438,        5.2490234375,       12.5122070312,      -54.6722412109
1494294253.8006269932,       -1.0830078125,        0.4550781250,        0.0327148438,        5.2490234375,       12.5122070312,      -54.6722412109
1494294253.8032329082,       -1.0830078125,        0.4550781250,        0.0327148438,        1.7547607422,       15.6402587891,      -51.3610839844
1494294253.8057849407,       -1.0561523438,        0.4570312500,        0.0136718750,        1.7547607422,       15.6402587891,      -51.3610839844
1494294253.8083419800,       -1.0561523438,        0.4570312500,        0.0136718750,       -0.9613037109,       17.6086425781,      -49.2706298828
1494294253.8110671043,       -1.0561523438,        0.4570312500,        0.0136718750,       -0.9613037109,       17.6086425781,      -49.2706298828
1494294253.8136210442,       -1.0561523438,        0.4570312500,        0.0136718750,       -3.5095214844,       19.2718505859,      -47.4853515625
1494294253.8161809444,       -0.9145507812,        0.4477539062,        0.0024414062,       -3.5095214844,       19.2718505859,      -47.4853515625
1494294253.8187329769,       -0.9145507812,        0.4477539062,        0.0024414062,       -5.0354003906,       19.4854736328,      -46.7987060547
1494294253.8214659691,       -0.9145507812,        0.4477539062,        0.0024414062,       -5.0354003906,       19.4854736328,      -46.7987060547
1494294253.8241500854,       -0.9145507812,        0.4477539062,        0.0273437500,       -5.2032470703,       18.9971923828,      -46.8597412109
1494294253.8268289566,       -0.7705078125,        0.4643554688,        0.0273437500,       -5.2032470703,       18.9971923828,      -46.8597412109
1494294253.8295090199,       -0.7705078125,        0.4643554688,        0.0273437500,       -5.4016113281,       18.6614990234,      -47.1191406250
1494294253.8321990967,       -0.7705078125,        0.4643554688,        0.0273437500,       -5.4016113281,       18.6614990234,      -47.1191406250
1494294253.8348779678,       -0.6250000000,        0.4877929688,        0.0346679688,       -5.4016113281,       17.3187255859,      -47.7905273438
1494294253.8375530243,       -0.6250000000,        0.4877929688,        0.0346679688,       -5.0354003906,       17.3187255859,      -47.7905273438
1494294253.8402280807,       -0.6250000000,        0.4877929688,        0.0346679688,       -5.0354003906,       16.0217285156,      -49.4842529297
1494294253.8429529667,       -0.6250000000,        0.4877929688,        0.0346679688,       -4.2724609375,       16.0217285156,      -49.4842529297
1494294253.8456239700,       -0.5585937500,        0.4858398438,        0.0292968750,       -0.3662109375,       15.2130126953,      -51.4831542969
1494294253.8483040333,       -0.5585937500,        0.4858398438,        0.0292968750,       -3.2958984375,       15.2130126953,      -51.4831542969
1494294253.8509850502,       -0.5585937500,        0.4858398438,        0.0292968750,       -3.2958984375,       14.2822265625,      -53.1311035156
1494294253.8536601067,       -0.5585937500,        0.4858398438,        0.0292968750,       -2.6550292969,       14.2822265625,      -53.1311035156
1494294253.8563361168,       -0.5390625000,        0.4536132812,        0.0268554688,       -2.6550292969,       13.4429931641,      -54.7637939453
1494294253.8590099812,       -0.5390625000,        0.4536132812,        0.0268554688,       -2.2430419922,       13.4429931641,      -54.7637939453
1494294253.8618049622,       -0.5390625000,        0.4536132812,        0.0268554688,       -2.2430419922,       12.1765136719,      -56.0607910156
1494294253.8644809723,       -0.5390625000,        0.4536132812,        0.0288085938,       -2.0294189453,       12.1765136719,      -56.0607910156
1494294253.8671610355,       -0.5200195312,        0.4409179688,        0.0288085938,       -2.0294189453,        8.2702636719,      -57.2357177734
1494294253.8698298931,       -0.5200195312,        0.4409179688,        0.0288085938,       -2.5482177734,       11.5966796875,      -57.2357177734
1494294253.8725469112,       -0.5200195312,        0.4409179688,        0.0288085938,       -2.5482177734,       11.5966796875,      -58.3343505859
1494294253.8752250671,       -0.5185546875,        0.4521484375,        0.0668945312,       -2.8991699219,       11.5203857422,      -58.3343505859
1494294253.8780488968,       -0.5185546875,        0.4521484375,        0.0668945312,       -2.8991699219,       11.5203857422,      -59.7229003906
1494294253.8811318874,       -0.5185546875,        0.4521484375,        0.0668945312,       -3.2348632812,       11.2457275391,      -59.7229003906
1494294253.8838338852,       -0.5185546875,        0.4521484375,        0.0668945312,       -3.2348632812,       11.0473632812,      -60.8825683594
1494294253.8865311146,       -0.5292968750,        0.4130859375,        0.0649414062,       -3.0364990234,       11.0473632812,      -60.8825683594
1494294253.8892309666,       -0.5292968750,        0.4130859375,        0.0649414062,       -3.0364990234,       11.5051269531,      -60.9283447266
1494294253.8919739723,       -0.5292968750,        0.4130859375,        0.0649414062,       -3.0059814453,       11.5051269531,      -60.9283447266
1494294253.8946669102,       -0.5292968750,        0.4130859375,        0.0737304688,       -3.0059814453,       10.5590820312,      -61.2792968750
1494294253.8973619938,       -0.5317382812,        0.3779296875,        0.0737304688,       -3.6315917969,       10.5590820312,      -61.2792968750
1494294253.9000639915,       -0.5317382812,        0.3779296875,        0.0737304688,       -3.6315917969,       10.6201171875,      -61.2487792969
1494294253.9027800560,       -0.5317382812,        0.3779296875,        0.0737304688,       -3.2501220703,       10.6201171875,      -61.2487792969
1494294253.9054811001,       -0.5292968750,        0.3803710938,        0.0898437500,       -3.2501220703,       10.9100341797,      -61.3098144531
1494294253.9081768990,       -0.5292968750,        0.3803710938,        0.0898437500,       -2.9754638672,       10.9100341797,      -61.3098144531
1494294253.9109199047,       -0.5292968750,        0.3803710938,        0.0898437500,       -2.9754638672,       10.1318359375,      -61.5081787109
1494294253.9134769440,       -0.5292968750,        0.3803710938,        0.0898437500,       -2.3040771484,       10.1318359375,      -61.5081787109
1494294253.9160380363,       -0.5317382812,        0.3686523438,        0.0991210938,       -2.3040771484,       10.1318359375,      -61.5234375000
1494294253.9185969830,       -0.5317382812,        0.3686523438,        0.0991210938,       -1.8005371094,        8.6975097656,      -61.5234375000
1494294253.9211769104,       -0.5317382812,        0.3686523438,        0.0991210938,       -1.8005371094,        8.6975097656,      -61.5234375000
1494294253.9237310886,       -0.5317382812,        0.3686523438,        0.0991210938,       -0.7476806641,        8.2397460938,      -61.5997314453
1494294253.9262840748,       -0.5419921875,        0.3183593750,        0.0864257812,       -0.7476806641,        8.2397460938,      -61.5997314453
1494294253.9288349152,       -0.5419921875,        0.3183593750,        0.0864257812,       -0.0305175781,        7.7056884766,      -60.9130859375
1494294253.9314880371,       -0.5419921875,        0.3183593750,        0.0864257812,       -0.0305175781,        7.7056884766,      -60.9130859375
1494294253.9340419769,       -0.5419921875,        0.3183593750,        0.0864257812,       -0.5340576172,        6.6833496094,      -60.5621337891
1494294253.9367089272,       -0.5400390625,        0.3286132812,        0.0947265625,       -0.5340576172,        6.6833496094,      -60.5621337891
1494294253.9392681122,       -0.5400390625,        0.3286132812,        0.0947265625,       -1.3122558594,        5.3710937500,      -59.4635009766
1494294253.9418549538,       -0.5400390625,        0.3286132812,        0.0947265625,       -1.3122558594,        5.3710937500,      -59.4635009766
1494294253.9444110394,       -0.5400390625,        0.3286132812,        0.0947265625,        0.0610351562,        4.8828125000,      -59.1125488281
1494294253.9469699860,       -0.5761718750,        0.3569335938,        0.0800781250,        0.0610351562,        4.8828125000,      -59.1125488281
1494294253.9495239258,       -0.5761718750,        0.3569335938,        0.0800781250,        1.2664794922,        4.9591064453,      -58.3496093750
1494294253.9521980286,       -0.5761718750,        0.3569335938,        0.0800781250,        1.2664794922,        4.9591064453,      -58.3496093750
1494294253.9548859596,       -0.5761718750,        0.3569335938,        0.0288085938,        1.6784667969,        5.4321289062,      -57.9071044922
1494294253.9575810432,       -0.6567382812,        0.3359375000,        0.0288085938,        1.6784667969,        5.4321289062,      -57.9071044922
1494294253.9602758884,       -0.6567382812,        0.3359375000,        0.0288085938,        1.5258789062,        6.5155029297,      -57.0678710938
1494294253.9629809856,       -0.6567382812,        0.3359375000,        0.0288085938,        1.5258789062,        6.5155029297,      -57.0678710938
1494294253.9656729698,       -0.6567382812,        0.3183593750,        0.0043945312,       -0.1831054688,        7.7209472656,      -54.8400878906
1494294253.9683659077,       -0.7099609375,        0.3183593750,        0.0043945312,       -0.1831054688,        7.7209472656,      -54.8400878906
1494294253.9710431099,       -0.7099609375,        0.3183593750,        0.0043945312,       -1.2817382812,        7.6599121094,      -53.2531738281
1494294253.9735949039,       -0.7099609375,        0.3183593750,        0.0043945312,       -1.2817382812,        7.6599121094,      -53.2531738281
1494294253.9761509895,       -0.7304687500,        0.3256835938,        0.0463867188,       -1.2817382812,        8.4991455078,      -51.6052246094
1494294253.9787089825,       -0.7304687500,        0.3256835938,        0.0463867188,       -1.7395019531,        8.4991455078,      -51.6052246094
1494294253.9813339710,       -0.7304687500,        0.3256835938,        0.0463867188,       -1.7395019531,        8.4991455078,      -49.6215820312
1494294253.9840350151,       -0.7304687500,        0.3256835938,        0.0463867188,       -2.4719238281,        8.9263916016,      -49.6215820312
1494294253.9867320061,       -0.7353515625,        0.2978515625,        0.0468750000,       -2.4719238281,        8.9263916016,      -47.8515625000
1494294253.9894189835,       -0.7353515625,        0.2978515625,        0.0468750000,       -4.3029785156,        9.7198486328,      -47.8515625000
1494294253.9920890331,       -0.7353515625,        0.2978515625,        0.0468750000,       -4.3029785156,        9.7198486328,      -46.3104248047
1494294253.9946420193,       -0.7353515625,        0.2978515625,        0.0468750000,       -5.3405761719,        9.9792480469,      -46.3104248047
1494294253.9974470139,       -0.7221679688,        0.2836914062,        0.0927734375,       -5.3405761719,        9.9792480469,      -44.2504882812
1494294254.0000209808,       -0.7221679688,        0.2836914062,        0.0927734375,       -5.9967041016,        9.9945068359,      -44.2504882812
1494294254.0028300285,       -0.7221679688,        0.2836914062,        0.0927734375,       -5.9967041016,        9.9945068359,      -41.9311523438
1494294254.0055229664,       -0.7221679688,        0.2836914062,        0.1142578125,       -5.9204101562,       10.3912353516,      -41.9311523438
1494294254.0083289146,       -0.7158203125,        0.2714843750,        0.1142578125,       -5.9204101562,       10.3912353516,      -39.5050048828
1494294254.0110399723,       -0.7158203125,        0.2714843750,        0.1142578125,       -5.7525634766,       10.4827880859,      -39.5050048828
1494294254.0137419701,       -0.7158203125,        0.2714843750,        0.1142578125,       -5.7525634766,       10.4827880859,      -36.6363525391
1494294254.0164399147,       -0.7290039062,        0.2187500000,        0.1000976562,       -5.8135986328,       11.7034912109,      -36.6363525391
1494294254.0191369057,       -0.7290039062,        0.2187500000,        0.1000976562,       -5.8135986328,       11.7034912109,      -34.1644287109
1494294254.0218460560,       -0.7290039062,        0.2187500000,        0.1000976562,       -6.1950683594,       12.3901367188,      -34.1644287109
1494294254.0245420933,       -0.7290039062,        0.2187500000,        0.1000976562,       -6.1950683594,       12.3901367188,      -31.7840576172
1494294254.0272369385,       -0.7202148438,        0.2329101562,        0.1064453125,       -7.9650878906,       12.7716064453,      -31.7840576172
