time_stamp before, Acceleration x, Acceleration y, Acceleration z, Gyro x, Gyro y, Gyro z
1494035496.0149829388,       -0.7666015625,        0.2968750000,       -0.1157226562,        2.9449462891,        7.2326660156,       15.0604248047
1494035496.0273630619,       -0.7753906250,        0.2749023438,       -0.0078125000,        1.8310546875,        7.2326660156,       15.0604248047
1494035496.0303270817,       -0.7753906250,        0.2749023438,       -0.0078125000,        0.9918212891,        7.8582763672,       15.4876708984
1494035496.0330219269,       -0.7753906250,        0.2749023438,       -0.0078125000,        0.9918212891,        7.8582763672,       15.4876708984
1494035496.0357189178,       -0.8129882812,        0.2939453125,       -0.0102539062,        0.7019042969,        8.9721679688,       15.5029296875
1494035496.0384030342,       -0.8129882812,        0.2939453125,       -0.0102539062,        0.7019042969,        8.9721679688,       15.5029296875
1494035496.0410809517,       -0.8129882812,        0.2939453125,       -0.0102539062,       -0.0152587891,        9.2315673828,       16.2658691406
1494035496.0437529087,       -0.8129882812,        0.2939453125,       -0.0102539062,       -0.0152587891,        9.2315673828,       16.2658691406
1494035496.0462999344,       -0.8417968750,        0.2631835938,       -0.0151367188,       -0.0152587891,        9.0637207031,       17.5476074219
1494035496.0488440990,       -0.8417968750,        0.2631835938,       -0.0151367188,       -0.4730224609,        9.0637207031,       17.5476074219
1494035496.0513849258,       -0.8417968750,        0.2631835938,       -0.0151367188,       -0.4730224609,        9.0637207031,       18.3410644531
1494035496.0539350510,       -0.8417968750,        0.2631835938,       -0.0151367188,       -0.7324218750,       10.2691650391,       18.3410644531
1494035496.0564839840,       -0.8979492188,        0.2719726562,       -0.0161132812,       -0.7324218750,       10.2691650391,       18.3410644531
1494035496.0590250492,       -0.8979492188,        0.2719726562,       -0.0161132812,       -1.8310546875,       11.3830566406,       17.7612304688
1494035496.0615730286,       -0.8979492188,        0.2719726562,       -0.0161132812,       -1.8310546875,       11.3830566406,       17.7612304688
1494035496.0642399788,       -0.8979492188,        0.2719726562,       -0.0161132812,       -2.4719238281,       10.8947753906,       17.6086425781
1494035496.0667889118,       -0.9204101562,        0.3374023438,       -0.0263671875,       -2.4719238281,       10.8947753906,       17.6086425781
1494035496.0693418980,       -0.9204101562,        0.3374023438,       -0.0263671875,       -1.4038085938,       10.9710693359,       18.4478759766
1494035496.0718910694,       -0.9204101562,        0.3374023438,       -0.0263671875,       -1.4038085938,       10.9710693359,       18.4478759766
1494035496.0746328831,       -0.9204101562,        0.3374023438,       -0.0239257812,        1.5258789062,        9.8571777344,       19.4244384766
1494035496.0773179531,       -0.9492187500,        0.3325195312,       -0.0239257812,        1.5258789062,        9.8571777344,       19.4244384766
1494035496.0799980164,       -0.9492187500,        0.3325195312,       -0.0239257812,        6.1950683594,        8.8653564453,       20.6298828125
1494035496.0826790333,       -0.9492187500,        0.3325195312,       -0.0239257812,        6.1950683594,        8.8653564453,       20.6298828125
1494035496.0853519440,       -0.9492187500,        0.3110351562,       -0.0087890625,        9.3841552734,        8.0413818359,       21.7895507812
1494035496.0880110264,       -0.9897460938,        0.3110351562,       -0.0087890625,        9.3841552734,        8.0413818359,       21.7895507812
1494035496.0906639099,       -0.9897460938,        0.3110351562,       -0.0087890625,       12.2833251953,        6.7291259766,       22.3388671875
1494035496.0935049057,       -0.9897460938,        0.3110351562,       -0.0087890625,       12.2833251953,        6.7291259766,       22.3388671875
1494035496.0962190628,       -1.0161132812,        0.2915039062,       -0.0405273438,       14.7399902344,        5.2642822266,       21.8811035156
1494035496.0990810394,       -1.0161132812,        0.2915039062,       -0.0405273438,       14.7399902344,        5.2642822266,       21.8811035156
1494035496.1017780304,       -1.0161132812,        0.2915039062,       -0.0405273438,       17.1966552734,        4.6234130859,       21.3012695312
1494035496.1044330597,       -1.0161132812,        0.2915039062,       -0.0405273438,       17.1966552734,        4.6234130859,       21.3012695312
1494035496.1069910526,       -1.0092773438,        0.2861328125,       -0.1025390625,       18.8293457031,        4.3640136719,       22.2015380859
1494035496.1095440388,       -1.0092773438,        0.2861328125,       -0.1025390625,       18.8293457031,        4.3640136719,       22.2015380859
1494035496.1121010780,       -1.0092773438,        0.2861328125,       -0.1025390625,       19.3786621094,        4.0740966797,       22.7355957031
1494035496.1147620678,       -1.0092773438,        0.2861328125,       -0.1025390625,       19.3786621094,        4.0740966797,       22.7355957031
1494035496.1173169613,       -0.9790039062,        0.2709960938,       -0.1093750000,       19.8516845703,        4.1656494141,       21.9573974609
1494035496.1198740005,       -0.9790039062,        0.2709960938,       -0.1093750000,       19.8516845703,        4.1656494141,       21.9573974609
1494035496.1224288940,       -0.9790039062,        0.2709960938,       -0.1093750000,       15.9454345703,        4.1656494141,       20.1721191406
1494035496.1251099110,       -0.9790039062,        0.2709960938,       -0.1254882812,       19.4854736328,        4.1656494141,       20.1721191406
1494035496.1277699471,       -0.9189453125,        0.1796875000,       -0.1254882812,       19.4854736328,        4.4860839844,       18.4020996094
1494035496.1305449009,       -0.9189453125,        0.1796875000,       -0.1254882812,       13.8702392578,        4.4860839844,       18.4020996094
1494035496.1332778931,       -0.9189453125,        0.1796875000,       -0.1254882812,        6.0577392578,        5.8593750000,       16.3116455078
1494035496.1359729767,       -0.9008789062,        0.1127929688,       -0.1435546875,        6.8511962891,        5.8593750000,       16.3116455078
1494035496.1386730671,       -0.9008789062,        0.1127929688,       -0.1435546875,        6.8511962891,        7.0648193359,       14.8162841797
1494035496.1413600445,       -0.9008789062,        0.1127929688,       -0.1435546875,        2.3498535156,        7.0648193359,       14.8162841797
1494035496.1440660954,       -0.9008789062,        0.1127929688,       -0.1435546875,        2.3498535156,        8.8043212891,       17.9290771484
1494035496.1467549801,       -0.8193359375,        0.2109375000,       -0.1030273438,       -2.9296875000,        8.8043212891,       17.9290771484
1494035496.1494429111,       -0.8193359375,        0.2109375000,       -0.1030273438,       -2.9296875000,        9.8876953125,       23.2849121094
1494035496.1521370411,       -0.8193359375,        0.2109375000,       -0.1030273438,       -8.4228515625,        9.8876953125,       23.2849121094
1494035496.1548728943,       -0.8193359375,        0.2109375000,       -0.1030273438,       -8.4228515625,        9.8876953125,       26.7181396484
1494035496.1575601101,       -0.7661132812,        0.2514648438,       -0.0112304688,      -12.2375488281,       10.9710693359,       26.7181396484
1494035496.1602571011,       -0.7661132812,        0.2514648438,       -0.0112304688,      -12.2375488281,       10.9710693359,       29.1900634766
1494035496.1629540920,       -0.7661132812,        0.2514648438,       -0.0112304688,      -12.3443603516,       11.2304687500,       29.1900634766
1494035496.1655769348,       -0.7661132812,        0.2514648438,        0.0527343750,      -12.3443603516,       11.2304687500,       32.0892333984
1494035496.1681370735,       -0.7514648438,        0.2583007812,        0.0527343750,      -12.5885009766,        9.8419189453,       32.0892333984
1494035496.1708040237,       -0.7514648438,        0.2583007812,        0.0527343750,      -12.5885009766,        9.8419189453,       34.6221923828
1494035496.1735351086,       -0.7514648438,        0.2583007812,        0.0527343750,      -13.7939453125,        9.2468261719,       34.6221923828
1494035496.1760959625,       -0.7514648438,        0.2744140625,        0.0781250000,      -13.7939453125,        9.2468261719,       38.5284423828
1494035496.1786489487,       -0.7304687500,        0.2744140625,        0.0781250000,      -15.2893066406,        8.1024169922,       37.2924804688
1494035496.1812078953,       -0.7304687500,        0.2744140625,        0.0781250000,      -15.2893066406,        8.1024169922,       37.2924804688
1494035496.1838951111,       -0.7304687500,        0.2744140625,        0.0781250000,      -15.6402587891,        6.2255859375,       39.7033691406
1494035496.1865990162,       -0.7299804688,        0.3647460938,        0.1381835938,      -15.6402587891,        6.2255859375,       39.7033691406
1494035496.1892879009,       -0.7299804688,        0.3647460938,        0.1381835938,      -15.7928466797,        3.9825439453,       42.7093505859
1494035496.1919770241,       -0.7299804688,        0.3647460938,        0.1381835938,      -15.7928466797,        3.9825439453,       42.7093505859
1494035496.1946859360,       -0.7299804688,        0.3647460938,        0.1381835938,      -15.4724121094,        1.6479492188,       44.9676513672
1494035496.1973888874,       -0.7456054688,        0.3603515625,        0.1850585938,      -15.4724121094,        1.6479492188,       44.9676513672
1494035496.2000899315,       -0.7456054688,        0.3603515625,        0.1850585938,      -12.9089355469,       -1.4953613281,       46.5087890625
1494035496.2027919292,       -0.7456054688,        0.3603515625,        0.1850585938,      -12.9089355469,       -1.4953613281,       46.5087890625
1494035496.2053821087,       -0.7456054688,        0.3603515625,        0.1850585938,      -10.8489990234,       -4.4555664062,       47.9736328125
1494035496.2079439163,       -0.7617187500,        0.4194335938,        0.1713867188,      -10.8489990234,       -4.4555664062,       47.9736328125
1494035496.2105019093,       -0.7617187500,        0.4194335938,        0.1713867188,       -9.0942382812,       -7.8430175781,       50.5828857422
1494035496.2130620480,       -0.7617187500,        0.4194335938,        0.1713867188,       -9.0942382812,       -7.8430175781,       50.5828857422
1494035496.2158451080,       -0.7617187500,        0.4194335938,        0.2124023438,       -7.2479248047,      -11.0015869141,       53.8635253906
1494035496.2184119225,       -0.7407226562,        0.6152343750,        0.2124023438,       -7.2479248047,      -11.0015869141,       53.8635253906
1494035496.2209649086,       -0.7407226562,        0.6152343750,        0.2124023438,       -3.7078857422,      -15.3808593750,       56.8542480469
1494035496.2236158848,       -0.7407226562,        0.6152343750,        0.2124023438,       -3.7078857422,      -15.3808593750,       56.8542480469
1494035496.2262849808,       -0.7407226562,        0.8652343750,        0.2753906250,        2.4261474609,      -20.9045410156,       60.9130859375
1494035496.2290129662,       -0.6962890625,        0.8549804688,        0.2753906250,        2.4261474609,      -20.9045410156,       60.9130859375
1494035496.2316830158,       -0.6962890625,        0.8549804688,        0.2753906250,       13.5040283203,      -25.6958007812,       66.1773681641
1494035496.2350099087,       -0.6962890625,        0.8549804688,        0.2753906250,       13.5040283203,      -25.6958007812,       66.1773681641
1494035496.2377090454,       -0.6831054688,        1.0366210938,        0.2500000000,       26.1230468750,      -29.8919677734,       73.8525390625
1494035496.2404069901,       -0.6831054688,        1.0366210938,        0.2500000000,       26.1230468750,      -29.8919677734,       73.8525390625
1494035496.2431049347,       -0.6831054688,        1.0366210938,        0.2500000000,       40.3137207031,      -33.4777832031,       82.5195312500
1494035496.2459259033,       -0.6831054688,        1.0366210938,        0.1250000000,       40.3137207031,      -33.4777832031,       82.5195312500
1494035496.2486279011,       -0.7739257812,        1.0722656250,        0.1865234375,       58.1970214844,      -37.2772216797,       91.7816162109
1494035496.2513270378,       -0.7739257812,        1.0722656250,        0.1865234375,       58.1970214844,      -37.2772216797,       91.7816162109
1494035496.2540290356,       -0.7739257812,        1.0722656250,        0.1865234375,       75.5004882812,      -39.2913818359,       99.5330810547
1494035496.2565879822,       -0.7739257812,        0.8793945312,        0.0888671875,       75.5004882812,      -39.2913818359,       99.5330810547
1494035496.2591469288,       -0.9887695312,        0.8793945312,        0.0888671875,       87.6312255859,      -41.0614013672,      105.1177978516
1494035496.2617061138,       -0.9887695312,        0.8793945312,        0.0888671875,       87.6312255859,      -41.0614013672,      105.1177978516
1494035496.2642738819,       -0.9887695312,        0.8793945312,        0.0888671875,       94.5129394531,      -42.9382324219,      111.2365722656
1494035496.2668321133,       -0.9887695312,        0.6757812500,        0.0620117188,       94.5129394531,      -42.9382324219,      111.2365722656
1494035496.2693901062,       -1.0625000000,        0.6757812500,        0.0620117188,       94.5129394531,      -43.6401367188,      118.1640625000
1494035496.2719500065,       -1.0625000000,        0.6757812500,        0.0620117188,       95.9014892578,      -43.6401367188,      118.1640625000
1494035496.2745180130,       -1.0625000000,        0.6757812500,        0.0620117188,       95.9014892578,      -43.6401367188,      125.3509521484
1494035496.2770750523,       -1.0625000000,        0.5727539062,        0.0747070312,       90.4541015625,      -43.3349609375,      125.3509521484
1494035496.2796299458,       -1.0991210938,        0.5727539062,        0.0747070312,       90.4541015625,      -43.3349609375,      129.2572021484
1494035496.2821900845,       -1.0991210938,        0.5727539062,        0.0747070312,       81.5124511719,      -42.7093505859,      131.3934326172
1494035496.2849268913,       -1.0991210938,        0.5727539062,        0.0747070312,       81.5124511719,      -42.7093505859,      135.2996826172
1494035496.2874839306,       -1.1132812500,        0.5893554688,        0.0786132812,       72.2045898438,      -41.3360595703,      136.6577148438
1494035496.2900390625,       -1.1132812500,        0.5893554688,        0.0786132812,       72.2045898438,      -41.3360595703,      136.6577148438
1494035496.2925999165,       -1.1132812500,        0.5893554688,        0.0786132812,       65.1855468750,      -40.2984619141,      141.1285400391
1494035496.2954039574,       -1.1132812500,        0.5893554688,        0.0786132812,       65.1855468750,      -40.2984619141,      141.1285400391
1494035496.2980999947,       -1.1396484375,        0.6645507812,        0.0371093750,       61.0046386719,      -39.4744873047,      144.8822021484
1494035496.3007929325,       -1.1396484375,        0.6645507812,        0.0371093750,       61.0046386719,      -39.4744873047,      144.8822021484
1494035496.3034958839,       -1.1396484375,        0.6645507812,        0.0371093750,       59.4177246094,      -36.5295410156,      147.7813720703
1494035496.3060569763,       -1.1396484375,        0.6645507812,        0.0371093750,       59.4177246094,      -36.5295410156,      147.7813720703
1494035496.3086159229,       -1.1748046875,        0.6992187500,        0.0039062500,       60.3179931641,      -33.7371826172,      150.1922607422
1494035496.3111679554,       -1.1748046875,        0.6992187500,        0.0039062500,       60.3179931641,      -33.7371826172,      150.1922607422
1494035496.3137750626,       -1.1748046875,        0.6992187500,        0.0039062500,       56.9915771484,      -31.8298339844,      152.9083251953
1494035496.3164780140,       -1.1748046875,        0.6992187500,       -0.1210937500,       56.9915771484,      -31.8298339844,      152.9083251953
1494035496.3192839622,       -1.1821289062,        0.6718750000,       -0.0239257812,       48.4771728516,      -29.4036865234,      154.9682617188
1494035496.3219890594,       -1.1821289062,        0.6718750000,       -0.0239257812,       48.4771728516,      -29.4036865234,      154.9682617188
1494035496.3246989250,       -1.1821289062,        0.6718750000,       -0.0239257812,       41.9311523438,      -27.6336669922,      155.7464599609
1494035496.3273990154,       -1.1821289062,        0.6210937500,       -0.0205078125,       41.9311523438,      -27.6336669922,      155.7464599609
1494035496.3300979137,       -1.1362304688,        0.6210937500,       -0.0205078125,       36.3769531250,      -26.8554687500,      155.9600830078
1494035496.3327949047,       -1.1362304688,        0.6210937500,       -0.0205078125,       36.3769531250,      -26.8554687500,      155.9600830078
1494035496.3355000019,       -1.1362304688,        0.6210937500,       -0.0205078125,       32.5469970703,      -25.8789062500,      154.8614501953
1494035496.3381950855,       -1.1044921875,        0.6342773438,        0.0063476562,       32.5469970703,      -25.8789062500,      154.8614501953
1494035496.3408880234,       -1.1044921875,        0.6342773438,        0.0063476562,       32.8979492188,      -24.2004394531,      154.1290283203
1494035496.3436009884,       -1.1044921875,        0.6342773438,        0.0063476562,       32.8979492188,      -24.2004394531,      154.1290283203
1494035496.3462979794,       -1.1044921875,        0.6342773438,        0.0063476562,       35.1715087891,      -22.5677490234,      153.3203125000
1494035496.3489940166,       -1.0742187500,        0.6660156250,       -0.0068359375,       35.1715087891,      -22.5677490234,      153.3203125000
1494035496.3518230915,       -1.0742187500,        0.6660156250,       -0.0068359375,       38.4368896484,      -21.0266113281,      151.9165039062
1494035496.3544819355,       -1.0742187500,        0.6660156250,       -0.0068359375,       38.4368896484,      -21.0266113281,      151.9165039062
1494035496.3570449352,       -1.0742187500,        0.6660156250,       -0.0068359375,       39.9780273438,      -19.2871093750,      150.4364013672
1494035496.3596069813,       -1.0302734375,        0.6459960938,       -0.0063476562,       39.9780273438,      -19.2871093750,      150.4364013672
1494035496.3621690273,       -1.0302734375,        0.6459960938,       -0.0063476562,       40.2526855469,      -18.3868408203,      149.0936279297
1494035496.3648240566,       -1.0302734375,        0.6459960938,       -0.0063476562,       40.2526855469,      -18.3868408203,      149.0936279297
1494035496.3675229549,       -1.0302734375,        0.5209960938,        0.0107421875,       41.3360595703,      -17.8070068359,      146.9879150391
1494035496.3702239990,       -0.9775390625,        0.6176757812,        0.0107421875,       41.3360595703,      -17.8070068359,      146.9879150391
1494035496.3729190826,       -0.9775390625,        0.6176757812,        0.0107421875,       41.3360595703,      -17.1966552734,      144.9584960938
1494035496.3756260872,       -0.9775390625,        0.6176757812,        0.0107421875,       42.5109863281,      -17.1966552734,      144.9584960938
1494035496.3783230782,       -0.8979492188,        0.5815429688,        0.0009765625,       46.4172363281,      -16.0827636719,      142.8833007812
1494035496.3810229301,       -0.8979492188,        0.5815429688,        0.0009765625,       43.5943603516,      -16.0827636719,      142.8833007812
1494035496.3837211132,       -0.8979492188,        0.5815429688,        0.0009765625,       43.5943603516,      -14.7857666016,      139.5721435547
1494035496.3862779140,       -0.8979492188,        0.5815429688,        0.0009765625,       44.7235107422,      -14.7857666016,      139.5721435547
1494035496.3888289928,       -0.8188476562,        0.4897460938,       -0.0024414062,       44.7235107422,      -14.7857666016,      135.9100341797
1494035496.3914940357,       -0.8188476562,        0.4897460938,       -0.0024414062,       46.1273193359,      -13.5192871094,      135.9100341797
1494035496.3941679001,       -0.8188476562,        0.4897460938,       -0.0024414062,       46.1273193359,      -13.5192871094,      131.8817138672
1494035496.3967230320,       -0.8188476562,        0.4897460938,       -0.0024414062,       46.9512939453,      -12.7716064453,      131.8817138672
1494035496.3992860317,       -0.7792968750,        0.3720703125,       -0.0375976562,       46.9512939453,      -12.7716064453,      127.9754638672
1494035496.4018449783,       -0.7792968750,        0.3720703125,       -0.0375976562,       46.1425781250,      -11.3372802734,      127.6092529297
1494035496.4045560360,       -0.7792968750,        0.3720703125,       -0.0375976562,       46.1425781250,      -11.3372802734,      127.6092529297
1494035496.4071130753,       -0.7792968750,        0.3720703125,       -0.0375976562,       43.5791015625,       -9.5672607422,      123.2452392578
1494035496.4096689224,       -0.7187500000,        0.2495117188,       -0.0883789062,       43.5791015625,       -9.5672607422,      123.2452392578
1494035496.4122331142,       -0.7187500000,        0.2495117188,       -0.0883789062,       40.1153564453,       -8.3160400391,      118.2556152344
1494035496.4149179459,       -0.7187500000,        0.2495117188,       -0.0883789062,       40.1153564453,       -8.3160400391,      118.2556152344
1494035496.4176108837,       -0.7187500000,        0.2495117188,       -0.1010742188,       33.1573486328,       -6.5917968750,      112.4877929688
1494035496.4203100204,       -0.6552734375,        0.1655273438,       -0.1010742188,       33.1573486328,       -6.5917968750,      112.4877929688
1494035496.4233219624,       -0.6552734375,        0.1655273438,       -0.1010742188,       23.3001708984,       -5.0201416016,      106.9488525391
1494035496.4259819984,       -0.6552734375,        0.1655273438,       -0.1010742188,       23.3001708984,       -5.0201416016,      106.9488525391
1494035496.4287269115,       -0.6206054688,        0.1401367188,       -0.1108398438,       14.1296386719,       -2.3193359375,      100.7385253906
1494035496.4313828945,       -0.6206054688,        0.1401367188,       -0.1108398438,       14.1296386719,       -2.3193359375,      100.7385253906
1494035496.4343690872,       -0.6206054688,        0.1401367188,       -0.1108398438,        5.0201416016,       -0.7019042969,       94.5434570312
1494035496.4370639324,       -0.6206054688,        0.1401367188,       -0.1108398438,        5.0201416016,       -0.7019042969,       94.5434570312
1494035496.4397580624,       -0.5747070312,        0.2197265625,       -0.1347656250,       -4.0740966797,       -0.4577636719,       89.9200439453
1494035496.4424529076,       -0.5747070312,        0.2197265625,       -0.1347656250,       -4.0740966797,       -0.4577636719,       89.9200439453
1494035496.4451580048,       -0.5747070312,        0.2197265625,       -0.1347656250,       -9.9487304688,        0.9765625000,       83.6486816406
1494035496.4478499889,       -0.5747070312,        0.2197265625,       -0.1289062500,       -9.9487304688,        0.9765625000,       83.6486816406
1494035496.4505429268,       -0.5346679688,        0.2509765625,       -0.1289062500,      -11.1083984375,        2.0294189453,       76.9958496094
1494035496.4532520771,       -0.5346679688,        0.2509765625,       -0.1289062500,      -11.1083984375,        2.0294189453,       76.9958496094
1494035496.4558091164,       -0.5346679688,        0.2509765625,       -0.1289062500,       -9.2315673828,        2.8991699219,       69.7174072266
1494035496.4583671093,       -0.5346679688,        0.1259765625,       -0.1357421875,       -9.2315673828,        2.8991699219,       69.7174072266
1494035496.4609239101,       -0.4829101562,        0.2290039062,       -0.1357421875,      -10.8947753906,        4.5471191406,       62.6831054688
1494035496.4635050297,       -0.4829101562,        0.2290039062,       -0.1357421875,      -10.8947753906,        4.5471191406,       62.6831054688
1494035496.4661710262,       -0.4829101562,        0.2290039062,       -0.1357421875,      -13.6413574219,        6.1492919922,       55.6182861328
1494035496.4687309265,       -0.4829101562,        0.1767578125,       -0.1323242188,      -13.6413574219,        6.1492919922,       55.6182861328
1494035496.4712851048,       -0.4399414062,        0.1767578125,       -0.1323242188,      -19.2108154297,        7.6599121094,       48.6450195312
1494035496.4738979340,       -0.4399414062,        0.1767578125,       -0.1323242188,      -19.2108154297,        7.6599121094,       48.6450195312
1494035496.4764559269,       -0.4399414062,        0.1767578125,       -0.1323242188,      -26.4434814453,        8.4533691406,       41.4428710938
1494035496.4790160656,       -0.4399414062,        0.1152343750,       -0.1108398438,      -26.4434814453,        8.4533691406,       41.4428710938
1494035496.4815769196,       -0.4077148438,        0.1152343750,       -0.1108398438,      -26.4434814453,        9.4451904297,       32.7148437500
1494035496.4842400551,       -0.4077148438,        0.1152343750,       -0.1108398438,      -33.0657958984,        9.4451904297,       32.7148437500
1494035496.4868009090,       -0.4077148438,        0.1152343750,       -0.1108398438,      -33.0657958984,        9.4451904297,       23.4527587891
1494035496.4893560410,       -0.4023437500,        0.0756835938,       -0.0810546875,      -38.0554199219,        9.9029541016,       23.4527587891
1494035496.4919168949,       -0.4023437500,        0.0756835938,       -0.0810546875,      -38.0554199219,        9.9029541016,       14.0075683594
1494035496.4946360588,       -0.4023437500,        0.0756835938,       -0.0810546875,      -40.8020019531,       11.2152099609,       14.0075683594
1494035496.4973440170,       -0.4023437500,        0.0756835938,       -0.0810546875,      -40.8020019531,       11.2152099609,        6.7291259766
1494035496.5000391006,       -0.3583984375,        0.0639648438,       -0.0854492188,      -44.6929931641,       12.7258300781,        6.7291259766
1494035496.5027389526,       -0.3583984375,        0.0639648438,       -0.0854492188,      -44.6929931641,       12.7258300781,        2.8228759766
1494035496.5053639412,       -0.3583984375,        0.0639648438,       -0.0854492188,      -49.4842529297,       13.7176513672,        0.3509521484
1494035496.5079259872,       -0.3583984375,        0.0639648438,       -0.0854492188,      -49.4842529297,       13.7176513672,        0.3509521484
1494035496.5104849339,       -0.3017578125,        0.0546875000,       -0.0786132812,      -53.8024902344,       13.7634277344,       -7.2479248047
1494035496.5130441189,       -0.3017578125,        0.0546875000,       -0.0786132812,      -53.8024902344,       13.7634277344,       -7.2479248047
1494035496.5157449245,       -0.3017578125,        0.0546875000,       -0.0786132812,      -55.8166503906,       14.5874023438,      -15.2740478516
1494035496.5184419155,       -0.3017578125,        0.0546875000,       -0.0786132812,      -55.8166503906,       14.5874023438,      -15.2740478516
1494035496.5211400986,       -0.3041992188,        0.0986328125,       -0.0468750000,      -54.4891357422,       15.0756835938,      -23.7731933594
1494035496.5238540173,       -0.3041992188,        0.0986328125,       -0.0468750000,      -54.4891357422,       15.0756835938,      -23.7731933594
1494035496.5264220238,       -0.3041992188,        0.0986328125,       -0.0468750000,      -51.1169433594,       16.0064697266,      -31.6619873047
1494035496.5289831161,       -0.3041992188,        0.0986328125,       -0.0366210938,      -51.1169433594,       16.0064697266,      -31.6619873047
1494035496.5315420628,       -0.2602539062,        0.1098632812,       -0.0366210938,      -46.2799072266,       17.8222656250,      -37.7655029297
1494035496.5342290401,       -0.2602539062,        0.1098632812,       -0.0366210938,      -46.2799072266,       17.8222656250,      -37.7655029297
1494035496.5367870331,       -0.2602539062,        0.1098632812,       -0.0366210938,      -41.8395996094,       17.6391601562,      -46.4172363281
1494035496.5394549370,       -0.2602539062,        0.0717773438,       -0.0083007812,      -41.8395996094,       17.6391601562,      -46.4172363281
1494035496.5420200825,       -0.2509765625,        0.0717773438,       -0.0083007812,      -36.2548828125,       17.8985595703,      -54.2602539062
1494035496.5446410179,       -0.2509765625,        0.0717773438,       -0.0083007812,      -36.2548828125,       17.8985595703,      -54.2602539062
1494035496.5472009182,       -0.2509765625,        0.0717773438,       -0.0083007812,      -32.3486328125,       17.8527832031,      -60.8520507812
1494035496.5499479771,       -0.1865234375,        0.0209960938,        0.0170898438,      -33.8287353516,       17.8527832031,      -60.8520507812
1494035496.5525140762,       -0.1865234375,        0.0209960938,        0.0170898438,      -33.7219238281,       18.0358886719,      -67.6269531250
1494035496.5554289818,       -0.1865234375,        0.0209960938,        0.0170898438,      -33.7219238281,       18.0358886719,      -67.6269531250
1494035496.5579919815,       -0.1865234375,        0.0209960938,        0.0170898438,      -33.7219238281,       18.2647705078,      -76.8890380859
1494035496.5605530739,       -0.2055664062,        0.0771484375,        0.0463867188,      -33.5998535156,       18.2647705078,      -76.8890380859
1494035496.5631139278,       -0.2055664062,        0.0771484375,        0.0463867188,      -33.5998535156,       18.2647705078,      -84.7320556641
1494035496.5658180714,       -0.2055664062,        0.0771484375,        0.0463867188,      -32.8674316406,       18.5241699219,      -84.7320556641
1494035496.5685141087,       -0.2055664062,        0.0771484375,        0.0463867188,      -32.8674316406,       22.4304199219,      -91.5069580078
1494035496.5712180138,       -0.1816406250,        0.1694335938,        0.0610351562,      -28.5186767578,       19.8364257812,      -91.5069580078
1494035496.5739350319,       -0.1816406250,        0.1694335938,        0.0610351562,      -28.5186767578,       19.8364257812,      -98.4039306641
1494035496.5766360760,       -0.1816406250,        0.1694335938,        0.0610351562,      -21.8353271484,       19.7448730469,      -98.4039306641
1494035496.5793368816,       -0.1816406250,        0.1694335938,        0.0532226562,      -21.8353271484,       15.8386230469,     -105.8502197266
1494035496.5820329189,       -0.1821289062,        0.1284179688,        0.0532226562,      -14.2822265625,       19.1040039062,     -105.8502197266
1494035496.5846679211,       -0.1821289062,        0.1284179688,        0.0532226562,      -14.2822265625,       19.1040039062,     -112.7624511719
1494035496.5872299671,       -0.1821289062,        0.1284179688,        0.0532226562,       -8.8500976562,       18.9361572266,     -112.7624511719
1494035496.5897879601,       -0.1821289062,        0.0561523438,        0.0336914062,       -8.8500976562,       18.9361572266,     -120.5749511719
1494035496.5923390388,       -0.2177734375,        0.0561523438,        0.0336914062,       -7.3852539062,       18.4326171875,     -118.1030273438
1494035496.5948939323,       -0.2177734375,        0.0561523438,        0.0336914062,       -7.3852539062,       18.4326171875,     -118.1030273438
1494035496.5974431038,       -0.2177734375,        0.0561523438,        0.0336914062,       -9.7656250000,       18.7530517578,     -123.3062744141
1494035496.5999929905,       -0.2177734375,        0.0307617188,        0.0058593750,       -9.7656250000,       18.7530517578,     -123.3062744141
1494035496.6025478840,       -0.2475585938,        0.0307617188,        0.0058593750,      -15.0909423828,       19.3939208984,     -128.1890869141
1494035496.6051549911,       -0.2475585938,        0.0307617188,        0.0058593750,      -15.0909423828,       19.3939208984,     -128.1890869141
1494035496.6077160835,       -0.2475585938,        0.0307617188,        0.0058593750,      -22.7661132812,       19.3786621094,     -132.5073242188
1494035496.6103830338,       -0.1977539062,        0.0561523438,       -0.0034179688,      -22.7661132812,       19.3786621094,     -132.5073242188
1494035496.6129438877,       -0.1977539062,        0.0561523438,       -0.0034179688,      -28.2897949219,       19.5465087891,     -138.5803222656
1494035496.6157810688,       -0.1977539062,        0.0561523438,       -0.0034179688,      -28.2897949219,       19.5465087891,     -138.5803222656
1494035496.6184670925,       -0.1977539062,        0.0561523438,       -0.0034179688,      -30.7922363281,       20.9655761719,     -144.8822021484
1494035496.6211509705,       -0.1943359375,        0.0815429688,       -0.0053710938,      -30.7922363281,       20.9655761719,     -144.8822021484
1494035496.6238780022,       -0.1943359375,        0.0815429688,       -0.0053710938,      -31.9824218750,       21.0266113281,     -150.0244140625
1494035496.6265540123,       -0.1943359375,        0.0815429688,       -0.0053710938,      -31.9824218750,       21.0266113281,     -150.0244140625
1494035496.6292359829,       -0.1943359375,        0.0815429688,       -0.0053710938,      -34.6374511719,       20.0042724609,     -154.0069580078
1494035496.6319150925,       -0.1650390625,        0.0908203125,        0.0136718750,      -34.6374511719,       20.0042724609,     -154.0069580078
1494035496.6345989704,       -0.1650390625,        0.0908203125,        0.0136718750,      -36.1328125000,       19.4702148438,     -157.7911376953
1494035496.6372509003,       -0.1650390625,        0.0908203125,        0.0136718750,      -36.1328125000,       19.4702148438,     -157.7911376953
1494035496.6399021149,       -0.1650390625,        0.0908203125,        0.0312500000,      -37.9180908203,       18.5394287109,     -161.2396240234
1494035496.6425590515,       -0.1542968750,        0.1049804688,        0.0312500000,      -37.9180908203,       18.5394287109,     -161.2396240234
1494035496.6451890469,       -0.1542968750,        0.1049804688,        0.0312500000,      -38.7878417969,       17.8222656250,     -164.4897460938
1494035496.6477510929,       -0.1542968750,        0.1049804688,        0.0312500000,      -38.7878417969,       17.8222656250,     -164.4897460938
1494035496.6503078938,       -0.1542968750,        0.1699218750,        0.0405273438,      -38.7878417969,       16.5557861328,     -167.1752929688
1494035496.6528649330,       -0.1640625000,        0.1699218750,        0.0405273438,      -39.3066406250,       16.5557861328,     -167.1752929688
1494035496.6554849148,       -0.1640625000,        0.1699218750,        0.0405273438,      -39.3066406250,       16.5557861328,     -169.8608398438
1494035496.6580479145,       -0.1640625000,        0.1699218750,        0.0405273438,      -39.4439697266,       16.0827636719,     -169.8608398438
1494035496.6606109142,       -0.1640625000,        0.2397460938,        0.0468750000,      -39.4439697266,       16.0827636719,     -173.7670898438
1494035496.6632199287,       -0.1972656250,        0.2397460938,        0.0468750000,      -39.6575927734,       15.5639648438,     -172.5769042969
1494035496.6659250259,       -0.1972656250,        0.2397460938,        0.0468750000,      -39.6575927734,       15.5639648438,     -172.5769042969
1494035496.6686229706,       -0.1972656250,        0.2397460938,        0.0468750000,      -39.1540527344,       14.3432617188,     -175.5523681641
1494035496.6715319157,       -0.2065429688,        0.3471679688,        0.0727539062,      -39.1540527344,       14.3432617188,     -177.9327392578
1494035496.6746768951,       -0.2065429688,        0.3471679688,        0.0727539062,      -33.1726074219,       13.2598876953,     -177.9327392578
1494035496.6773819923,       -0.2065429688,        0.3471679688,        0.0727539062,      -33.1726074219,       13.2598876953,     -179.3212890625
1494035496.6800870895,       -0.2065429688,        0.3471679688,        0.0644531250,      -24.8718261719,       11.7950439453,     -179.3212890625
1494035496.6827850342,       -0.2475585938,        0.4233398438,        0.0644531250,      -24.8718261719,        7.8887939453,     -179.0924072266
1494035496.6856009960,       -0.2475585938,        0.4233398438,        0.0644531250,      -18.0206298828,       10.1623535156,     -179.0924072266
1494035496.6882998943,       -0.2475585938,        0.4233398438,        0.0644531250,      -18.0206298828,       10.1623535156,     -178.2073974609
1494035496.6909940243,       -0.3081054688,        0.4228515625,        0.0351562500,      -14.0533447266,        9.0026855469,     -178.2073974609
1494035496.6936910152,       -0.3081054688,        0.4228515625,        0.0351562500,      -14.0533447266,        9.0026855469,     -176.6510009766
1494035496.6962480545,       -0.3081054688,        0.4228515625,        0.0351562500,      -13.2293701172,        8.1634521484,     -176.6510009766
1494035496.6988060474,       -0.3081054688,        0.4228515625,        0.0351562500,      -13.2293701172,        8.1634521484,     -174.8504638672
1494035496.7013630867,       -0.3466796875,        0.4956054688,       -0.0107421875,      -13.8854980469,        8.1481933594,     -174.8504638672
1494035496.7039229870,       -0.3466796875,        0.4956054688,       -0.0107421875,      -13.8854980469,        8.1481933594,     -174.8504638672
1494035496.7064809799,       -0.3466796875,        0.4956054688,       -0.0107421875,      -15.5487060547,        8.4991455078,     -172.8057861328
1494035496.7090370655,       -0.3466796875,        0.4956054688,       -0.0107421875,      -15.5487060547,        8.4991455078,     -172.8057861328
1494035496.7115960121,       -0.3520507812,        0.5434570312,       -0.0458984375,      -18.7530517578,        8.5449218750,     -169.7387695312
1494035496.7141621113,       -0.3520507812,        0.5434570312,       -0.0458984375,      -18.7530517578,        8.5449218750,     -169.7387695312
1494035496.7167189121,       -0.3520507812,        0.5434570312,       -0.0458984375,      -22.4151611328,        8.8806152344,     -166.4123535156
1494035496.7192730904,       -0.3520507812,        0.5434570312,       -0.0458984375,      -22.4151611328,        8.8806152344,     -166.4123535156
1494035496.7218279839,       -0.3613281250,        0.5834960938,       -0.0468750000,      -28.8543701172,        8.9569091797,     -162.2314453125
1494035496.7245399952,       -0.3613281250,        0.5834960938,       -0.0468750000,      -28.8543701172,        8.9569091797,     -162.2314453125
1494035496.7270939350,       -0.3613281250,        0.5834960938,       -0.0468750000,      -35.6903076172,        8.6822509766,     -158.6456298828
1494035496.7296490669,       -0.3613281250,        0.5834960938,       -0.0468750000,      -35.6903076172,        8.6822509766,     -158.6456298828
1494035496.7322049141,       -0.3442382812,        0.6826171875,       -0.0112304688,      -38.3453369141,        8.9111328125,     -154.8004150391
1494035496.7349660397,       -0.3442382812,        0.6826171875,       -0.0112304688,      -38.3453369141,        8.9111328125,     -154.8004150391
1494035496.7376210690,       -0.3442382812,        0.6826171875,       -0.0112304688,      -38.3453369141,        9.2773437500,     -150.2380371094
1494035496.7402789593,       -0.3442382812,        0.6826171875,       -0.0112304688,      -37.1246337891,        9.2773437500,     -150.2380371094
1494035496.7429299355,       -0.3701171875,        0.7714843750,       -0.0029296875,      -37.1246337891,        9.5520019531,     -144.6380615234
1494035496.7455809116,       -0.3701171875,        0.7714843750,       -0.0029296875,      -37.2161865234,        9.5520019531,     -144.6380615234
1494035496.7481379509,       -0.3701171875,        0.7714843750,       -0.0029296875,      -37.2161865234,        9.5520019531,     -139.0686035156
1494035496.7506918907,       -0.3701171875,        0.7714843750,        0.0361328125,      -38.9862060547,        8.9721679688,     -139.0686035156
1494035496.7532188892,       -0.3989257812,        0.8432617188,        0.0361328125,      -38.9862060547,        8.9721679688,     -133.3312988281
1494035496.7559208870,       -0.3989257812,        0.8432617188,        0.0361328125,      -39.9169921875,        8.6975097656,     -133.3312988281
1494035496.7587320805,       -0.3989257812,        0.8432617188,        0.0361328125,      -39.9169921875,        8.6975097656,     -128.0059814453
1494035496.7614300251,       -0.3989257812,        0.9853515625,        0.0737304688,      -38.1774902344,        8.2397460938,     -128.0059814453
1494035496.7641370296,       -0.4028320312,        0.9853515625,        0.0737304688,      -38.1774902344,        8.2397460938,     -122.4975585938
1494035496.7668359280,       -0.4028320312,        0.9853515625,        0.0737304688,      -32.7606201172,        8.5296630859,     -122.4975585938
1494035496.7695369720,       -0.4028320312,        0.9853515625,        0.0737304688,      -32.7606201172,        8.5296630859,     -115.6616210938
1494035496.7722361088,       -0.4409179688,        1.0820312500,        0.0986328125,      -24.5208740234,        8.6364746094,     -115.6616210938
1494035496.7749400139,       -0.4409179688,        1.0820312500,        0.0986328125,      -24.5208740234,        8.6364746094,     -107.6202392578
1494035496.7776379585,       -0.4409179688,        1.0820312500,        0.0986328125,      -17.4560546875,        8.1176757812,     -107.6202392578
1494035496.7803299427,       -0.4409179688,        1.0820312500,        0.0986328125,      -17.4560546875,        8.1176757812,      -99.8077392578
1494035496.7830269337,       -0.5151367188,        1.1015625000,        0.0903320312,      -11.9628906250,        7.4462890625,      -98.4954833984
1494035496.7856040001,       -0.5151367188,        1.1015625000,        0.0903320312,      -11.9628906250,        7.4462890625,      -98.4954833984
1494035496.7881588936,       -0.5151367188,        1.1015625000,        0.0903320312,       -8.6822509766,        6.7443847656,      -89.1113281250
1494035496.7908029556,       -0.5151367188,        1.1015625000,        0.0903320312,       -8.6822509766,        6.7443847656,      -89.1113281250
1494035496.7938179970,       -0.5322265625,        1.0644531250,        0.0395507812,       -6.6986083984,        6.9274902344,      -80.2764892578
1494035496.7963709831,       -0.5322265625,        1.0644531250,        0.0395507812,       -6.6986083984,        6.9274902344,      -80.2764892578
1494035496.7989261150,       -0.5322265625,        1.0644531250,        0.0395507812,       -5.2032470703,        7.8735351562,      -71.4111328125
1494035496.8014810085,       -0.5322265625,        0.9394531250,       -0.0234375000,       -5.2032470703,        7.8735351562,      -71.4111328125
1494035496.8041310310,       -0.4843750000,        0.9785156250,       -0.0234375000,       -5.5541992188,        8.5601806641,      -62.7899169922
1494035496.8068261147,       -0.4843750000,        0.9785156250,       -0.0234375000,       -5.5541992188,        8.5601806641,      -62.7899169922
1494035496.8095169067,       -0.4843750000,        0.9785156250,       -0.0234375000,       -7.0037841797,        9.0026855469,      -54.6417236328
1494035496.8122100830,       -0.4902343750,        0.9052734375,       -0.0122070312,       -7.0037841797,        9.0026855469,      -54.6417236328
1494035496.8149139881,       -0.4902343750,        0.9052734375,       -0.0122070312,       -7.5073242188,        9.6588134766,      -47.3480224609
1494035496.8176119328,       -0.4902343750,        0.9052734375,       -0.0122070312,       -7.5073242188,        9.6588134766,      -47.3480224609
1494035496.8203039169,       -0.4902343750,        0.9052734375,       -0.0122070312,       -7.3242187500,        9.5367431641,      -40.4510498047
1494035496.8229949474,       -0.4453125000,        0.8730468750,       -0.0156250000,       -7.3242187500,        9.5367431641,      -40.4510498047
1494035496.8255720139,       -0.4453125000,        0.8730468750,       -0.0156250000,       -6.0424804688,        9.5214843750,      -33.5693359375
1494035496.8281209469,       -0.4453125000,        0.8730468750,       -0.0156250000,       -6.0424804688,        9.5214843750,      -33.5693359375
1494035496.8307840824,       -0.4453125000,        0.8730468750,       -0.0156250000,       -4.5471191406,        9.4146728516,      -27.5421142578
1494035496.8333919048,       -0.4150390625,        0.7983398438,       -0.0322265625,       -4.5471191406,        9.4146728516,      -27.5421142578
1494035496.8359439373,       -0.4150390625,        0.7983398438,       -0.0322265625,       -2.8228759766,        9.7808837891,      -22.4304199219
1494035496.8384990692,       -0.4150390625,        0.7983398438,       -0.0322265625,       -2.8228759766,        9.7808837891,      -22.4304199219
1494035496.8410561085,       -0.4150390625,        0.7983398438,       -0.0322265625,       -2.8228759766,        9.2773437500,      -17.6544189453
1494035496.8437790871,       -0.4140625000,        0.6767578125,       -0.0317382812,       -2.5787353516,        9.2773437500,      -17.6544189453
1494035496.8463380337,       -0.4140625000,        0.6767578125,       -0.0317382812,       -2.5787353516,        8.3465576172,      -13.4124755859
1494035496.8488910198,       -0.4140625000,        0.6767578125,       -0.0317382812,       -3.8146972656,        8.3465576172,      -13.4124755859
1494035496.8514409065,       -0.4140625000,        0.6767578125,        0.2182617188,       -3.8146972656,        4.4403076172,       -9.4757080078
1494035496.8541779518,       -0.5429687500,        0.7270507812,        0.1523437500,       -9.4604492188,        6.3934326172,       -9.4757080078
1494035496.8568658829,       -0.5429687500,        0.7270507812,        0.1523437500,       -9.4604492188,        2.4871826172,       -3.1127929688
1494035496.8595540524,       -0.5429687500,        0.7270507812,        0.1523437500,      -26.5502929688,        1.2817382812,       -3.1127929688
1494035496.8622450829,       -0.5429687500,        1.7666015625,        0.2910156250,      -26.5502929688,        1.2817382812,       22.0642089844
1494035496.8648710251,       -0.7929687500,        1.7666015625,        0.2910156250,      -25.2380371094,        0.1983642578,       22.0642089844
1494035496.8674299717,       -0.7929687500,        1.7666015625,        0.2910156250,      -25.2380371094,        0.1983642578,       49.4079589844
1494035496.8699829578,       -0.7929687500,        1.7666015625,        0.2910156250,       -4.9438476562,       -7.0953369141,       49.0875244141
1494035496.8725368977,       -1.2929687500,        2.3217773438,        0.4140625000,       -4.9438476562,       -7.0953369141,       49.0875244141
1494035496.8752028942,       -1.2758789062,        2.3217773438,        0.4140625000,       16.1743164062,       -6.5917968750,       55.9082031250
1494035496.8778951168,       -1.2758789062,        2.3217773438,        0.4140625000,       16.1743164062,       -6.5917968750,       55.9082031250
1494035496.8805849552,       -1.2758789062,        2.3217773438,        0.4140625000,       26.4282226562,       -1.9226074219,       49.2401123047
1494035496.8832800388,       -0.9335937500,        0.6083984375,       -0.2661132812,       26.4282226562,       -1.9226074219,       49.2401123047
1494035496.8859739304,       -0.9335937500,        0.6083984375,       -0.2661132812,       25.3143310547,       -2.0904541016,       49.1638183594
1494035496.8886690140,       -0.9335937500,        0.6083984375,       -0.2661132812,       25.3143310547,       -2.0904541016,       49.1638183594
1494035496.8913669586,       -0.9335937500,        0.6083984375,       -0.2661132812,        9.8419189453,       -0.2441406250,       49.0112304688
1494035496.8940660954,       -0.8305664062,       -0.2631835938,       -0.3154296875,        9.8419189453,       -0.2441406250,       49.0112304688
1494035496.8967599869,       -0.8305664062,       -0.2631835938,       -0.3154296875,       -4.0893554688,        4.8370361328,       46.4935302734
1494035496.8994460106,       -0.8305664062,       -0.2631835938,       -0.3154296875,       -4.0893554688,        4.8370361328,       46.4935302734
1494035496.9021339417,       -0.8305664062,       -0.2631835938,       -0.2241210938,       -4.4860839844,        6.2866210938,       44.8455810547
1494035496.9049839973,       -0.7221679688,       -0.2778320312,       -0.2241210938,       -4.4860839844,        6.2866210938,       44.8455810547
1494035496.9076778889,       -0.7221679688,       -0.2778320312,       -0.2241210938,        0.2746582031,        2.4566650391,       43.7927246094
1494035496.9105830193,       -0.7221679688,       -0.2778320312,       -0.2241210938,        0.2746582031,        2.4566650391,       43.7927246094
1494035496.9136629105,       -0.6845703125,       -0.0195312500,       -0.0688476562,        2.8533935547,        1.0986328125,       44.5556640625
1494035496.9162259102,       -0.6845703125,       -0.0195312500,       -0.0688476562,        2.8533935547,        1.0986328125,       44.5556640625
1494035496.9187829494,       -0.6845703125,       -0.0195312500,       -0.0688476562,       -3.3569335938,        1.8310546875,       47.7447509766
1494035496.9213349819,       -0.6845703125,       -0.0195312500,       -0.0688476562,       -3.3569335938,        1.8310546875,       47.7447509766
1494035496.9239308834,       -0.6728515625,        0.3818359375,        0.1064453125,       -8.6364746094,        2.2125244141,       50.2319335938
1494035496.9266281128,       -0.6728515625,        0.3818359375,        0.1064453125,       -8.6364746094,        2.2125244141,       50.2319335938
1494035496.9293251038,       -0.6728515625,        0.3818359375,        0.1064453125,       -7.1105957031,        1.3732910156,       50.1708984375
1494035496.9320220947,       -0.6728515625,        0.3818359375,        0.2314453125,       -7.1105957031,        1.3732910156,       50.1708984375
1494035496.9347209930,       -0.5620117188,        0.5766601562,        0.1606445312,       -1.4953613281,        0.1068115234,       48.6297607422
1494035496.9374120235,       -0.5620117188,        0.5766601562,        0.1606445312,       -1.4953613281,        0.1068115234,       48.6297607422
1494035496.9401049614,       -0.5620117188,        0.5766601562,        0.1606445312,        0.9307861328,       -1.1749267578,       45.4254150391
1494035496.9427959919,       -0.5620117188,        0.4726562500,        0.0966796875,        0.9307861328,       -1.1749267578,       45.4254150391
1494035496.9453880787,       -0.4643554688,        0.4726562500,        0.0966796875,        0.0610351562,       -1.9226074219,       41.4581298828
1494035496.9479451180,       -0.4643554688,        0.4726562500,        0.0966796875,        0.0610351562,       -1.9226074219,       41.4581298828
1494035496.9505009651,       -0.4643554688,        0.4726562500,        0.0966796875,        1.1138916016,       -3.1585693359,       38.5131835938
1494035496.9530529976,       -0.4643554688,        0.4628906250,       -0.0073242188,        1.1138916016,       -3.1585693359,       38.5131835938
1494035496.9556210041,       -0.5048828125,        0.4628906250,       -0.0073242188,       -1.4038085938,       -4.1656494141,       36.1175537109
1494035496.9581780434,       -0.5048828125,        0.4628906250,       -0.0073242188,       -1.4038085938,       -4.1656494141,       36.1175537109
1494035496.9607329369,       -0.5048828125,        0.4628906250,       -0.0073242188,       -5.3100585938,       -5.1879882812,       33.8897705078
1494035496.9633729458,       -0.5048828125,        0.4287109375,       -0.1401367188,       -4.1198730469,       -5.1879882812,       33.8897705078
1494035496.9659469128,       -0.5112304688,        0.4287109375,       -0.1401367188,       -4.1198730469,       -5.1879882812,       32.8216552734
1494035496.9684989452,       -0.5112304688,        0.4287109375,       -0.1401367188,       -5.3253173828,       -6.5612792969,       32.8216552734
1494035496.9710540771,       -0.5112304688,        0.4287109375,       -0.1401367188,       -5.3253173828,       -6.5612792969,       32.9284667969
1494035496.9737870693,       -0.5170898438,        0.4091796875,       -0.1723632812,       -5.6152343750,       -7.6446533203,       32.9284667969
1494035496.9764859676,       -0.5170898438,        0.4091796875,       -0.1723632812,       -5.6152343750,       -7.6446533203,       31.9519042969
1494035496.9792909622,       -0.5170898438,        0.4091796875,       -0.1723632812,       -6.1798095703,       -7.3699951172,       31.9519042969
1494035496.9819760323,       -0.5170898438,        0.4091796875,       -0.1723632812,       -6.1798095703,       -7.3699951172,       30.6701660156
1494035496.9846749306,       -0.5429687500,        0.4077148438,       -0.1342773438,       -7.4005126953,       -7.1411132812,       30.6701660156
1494035496.9873619080,       -0.5429687500,        0.4077148438,       -0.1342773438,       -7.4005126953,       -7.1411132812,       28.8543701172
1494035496.9900550842,       -0.5429687500,        0.4077148438,       -0.1342773438,      -11.0168457031,       -6.7138671875,       28.8543701172
1494035496.9927539825,       -0.5429687500,        0.4077148438,       -0.0468750000,      -11.0168457031,       -6.7138671875,       27.0080566406
1494035496.9954860210,       -0.5693359375,        0.3818359375,       -0.0468750000,      -19.4854736328,       -5.7373046875,       27.0080566406
1494035496.9981770515,       -0.5693359375,        0.3818359375,       -0.0468750000,      -19.4854736328,       -5.7373046875,       24.6276855469
1494035497.0008699894,       -0.5693359375,        0.3818359375,       -0.0468750000,      -24.2462158203,       -4.5928955078,       24.6276855469
1494035497.0035719872,       -0.5693359375,        0.4531250000,        0.0092773438,      -24.2462158203,       -4.5928955078,       20.7214355469
1494035497.0061280727,       -0.6684570312,        0.4531250000,        0.0092773438,      -25.2685546875,       -4.5166015625,       22.7050781250
1494035497.0086870193,       -0.6684570312,        0.4531250000,        0.0092773438,      -25.2685546875,       -4.5166015625,       22.7050781250
1494035497.0112419128,       -0.6684570312,        0.4531250000,        0.0092773438,      -23.5443115234,       -4.7302246094,       20.2789306641
1494035497.0138919353,       -0.7719726562,        0.3872070312,        0.0615234375,      -23.5443115234,       -4.7302246094,       20.2789306641
1494035497.0164620876,       -0.7719726562,        0.3872070312,        0.0615234375,      -20.6451416016,       -6.7291259766,       18.6004638672
1494035497.0190169811,       -0.7719726562,        0.3872070312,        0.0615234375,      -20.6451416016,       -6.7291259766,       18.6004638672
1494035497.0215759277,       -0.7719726562,        0.3872070312,        0.0615234375,      -16.5863037109,       -9.8876953125,       17.8833007812
1494035497.0241889954,       -0.8090820312,        0.3159179688,        0.0556640625,      -16.5863037109,       -9.8876953125,       17.8833007812
1494035497.0268878937,       -0.8090820312,        0.3159179688,        0.0556640625,      -10.8337402344,      -12.0239257812,       17.7612304688
1494035497.0297100544,       -0.8090820312,        0.3159179688,        0.0556640625,      -10.8337402344,      -12.0239257812,       17.7612304688
1494035497.0325689316,       -0.8090820312,        0.3159179688,        0.0556640625,       -7.4768066406,      -12.8021240234,       17.3950195312
1494035497.0356340408,       -0.7607421875,        0.3041992188,        0.0292968750,       -7.4768066406,      -12.8021240234,       17.3950195312
1494035497.0383379459,       -0.7607421875,        0.3041992188,        0.0292968750,       -7.4005126953,      -13.1225585938,       17.5781250000
1494035497.0410380363,       -0.7607421875,        0.3041992188,        0.0292968750,       -7.4005126953,      -13.1225585938,       17.5781250000
1494035497.0437490940,       -0.7607421875,        0.3789062500,        0.0415039062,       -6.3018798828,      -13.4429931641,       17.3034667969
1494035497.0464520454,       -0.7226562500,        0.3789062500,        0.0415039062,       -6.3018798828,      -13.4429931641,       17.3034667969
1494035497.0491459370,       -0.7226562500,        0.3789062500,        0.0415039062,       -4.2572021484,      -12.3291015625,       16.1132812500
1494035497.0519580841,       -0.7226562500,        0.3789062500,        0.0415039062,       -4.2572021484,      -12.3291015625,       16.1132812500
1494035497.0546720028,       -0.6494140625,        0.4321289062,        0.0708007812,       -4.6844482422,      -11.7187500000,       15.5487060547
1494035497.0573749542,       -0.6494140625,        0.4321289062,        0.0708007812,       -4.6844482422,      -11.7187500000,       15.5487060547
1494035497.0600728989,       -0.6494140625,        0.4321289062,        0.0708007812,       -4.8522949219,      -12.3748779297,       15.7012939453
1494035497.0627710819,       -0.6494140625,        0.4321289062,        0.0708007812,       -4.8522949219,      -12.3748779297,       15.7012939453
1494035497.0653638840,       -0.6210937500,        0.4204101562,        0.0776367188,       -3.4790039062,      -13.0157470703,       14.5568847656
1494035497.0679180622,       -0.6210937500,        0.4204101562,        0.0776367188,       -3.4790039062,      -13.0157470703,       14.5568847656
1494035497.0704720020,       -0.6210937500,        0.4204101562,        0.0776367188,       -0.7629394531,      -13.0310058594,       13.1835937500
1494035497.0730290413,       -0.6210937500,        0.4204101562,        0.0776367188,       -0.7629394531,      -13.0310058594,       13.1835937500
1494035497.0756170750,       -0.6240234375,        0.4321289062,        0.0136718750,        0.3356933594,      -12.6342773438,       12.1307373047
1494035497.0781719685,       -0.6240234375,        0.4321289062,        0.0136718750,        0.3356933594,      -12.6342773438,       12.1307373047
1494035497.0807321072,       -0.6240234375,        0.4321289062,        0.0136718750,       -1.2207031250,      -10.8337402344,       12.0391845703
1494035497.0834081173,       -0.6240234375,        0.4321289062,        0.0136718750,       -1.2207031250,      -10.8337402344,       12.0391845703
1494035497.0859820843,       -0.6191406250,        0.4028320312,        0.0600585938,       -1.2207031250,       -8.1939697266,       11.9018554688
1494035497.0885369778,       -0.6191406250,        0.4028320312,        0.0600585938,       -1.7547607422,       -8.1939697266,       11.9018554688
1494035497.0910930634,       -0.6191406250,        0.4028320312,        0.0600585938,       -1.7547607422,       -4.2877197266,       10.9100341797
1494035497.0938138962,       -0.6191406250,        0.4028320312,        0.1079101562,       -0.3204345703,       -7.1563720703,       10.9100341797
1494035497.0965120792,       -0.5854492188,        0.4365234375,        0.1079101562,       -0.3204345703,       -7.1563720703,        9.8266601562
1494035497.0992050171,       -0.5854492188,        0.4365234375,        0.1079101562,        1.2969970703,       -7.4157714844,        9.8266601562
1494035497.1018970013,       -0.5854492188,        0.4365234375,        0.1079101562,        1.2969970703,       -7.4157714844,        8.5601806641
1494035497.1045849323,       -0.5854492188,        0.4375000000,        0.1171875000,        3.8604736328,       -6.3629150391,        8.5601806641
1494035497.1072759628,       -0.5981445312,        0.4375000000,        0.1171875000,        3.8604736328,       -6.3629150391,        7.4157714844
1494035497.1099669933,       -0.5981445312,        0.4375000000,        0.1171875000,        5.0201416016,       -5.5541992188,        7.4157714844
1494035497.1126561165,       -0.5981445312,        0.4375000000,        0.1171875000,        5.0201416016,       -5.5541992188,        6.5917968750
1494035497.1152529716,       -0.6538085938,        0.3945312500,        0.0996093750,        4.9285888672,       -4.9133300781,        6.5917968750
1494035497.1178040504,       -0.6538085938,        0.3945312500,        0.0996093750,        4.9285888672,       -4.9133300781,        6.5917968750
1494035497.1203479767,       -0.6538085938,        0.3945312500,        0.0996093750,        3.5858154297,       -3.7536621094,        6.2866210938
1494035497.1228990555,       -0.6538085938,        0.3945312500,        0.0996093750,        3.5858154297,       -3.7536621094,        6.2866210938
1494035497.1255741119,       -0.6762695312,        0.3847656250,        0.0605468750,        1.2969970703,       -2.8381347656,        6.5765380859
1494035497.1281220913,       -0.6762695312,        0.3847656250,        0.0605468750,        1.2969970703,       -2.8381347656,        6.5765380859
1494035497.1306710243,       -0.6762695312,        0.3847656250,        0.0605468750,       -0.0457763672,       -0.8544921875,        6.7749023438
1494035497.1332299709,       -0.6762695312,        0.3847656250,        0.0605468750,       -0.0457763672,       -0.8544921875,        6.7749023438
1494035497.1359260082,       -0.6352539062,        0.4340820312,        0.0771484375,       -0.7324218750,       -0.3051757812,        6.2561035156
1494035497.1386120319,       -0.6352539062,        0.4340820312,        0.0771484375,       -0.7324218750,       -0.3051757812,        6.2561035156
1494035497.1413009167,       -0.6352539062,        0.4340820312,        0.0771484375,       -0.3662109375,       -0.1373291016,        4.9896240234
1494035497.1439878941,       -0.6352539062,        0.4340820312,        0.0771484375,       -0.3662109375,       -0.1373291016,        4.9896240234
1494035497.1466770172,       -0.5961914062,        0.4355468750,        0.0654296875,        0.4882812500,        0.1983642578,        3.5858154297
1494035497.1493690014,       -0.5961914062,        0.4355468750,        0.0654296875,        0.4882812500,        0.1983642578,        3.5858154297
1494035497.1521449089,       -0.5961914062,        0.4355468750,        0.0654296875,        0.8392333984,       -0.0610351562,        2.8991699219
1494035497.1552770138,       -0.5922851562,        0.4277343750,        0.0502929688,        0.8392333984,       -0.0610351562,        2.8991699219
1494035497.1579699516,       -0.5922851562,        0.4277343750,        0.0502929688,        0.5035400391,       -0.1525878906,        1.8157958984
1494035497.1606578827,       -0.5922851562,        0.4277343750,        0.0502929688,        0.5035400391,       -0.1525878906,        1.8157958984
1494035497.1633419991,       -0.5922851562,        0.4277343750,        0.0502929688,       -0.2288818359,        0.3662109375,        0.3662109375
1494035497.1658890247,       -0.6147460938,        0.4394531250,        0.0454101562,       -0.2288818359,        0.3662109375,        0.3662109375
1494035497.1684389114,       -0.6147460938,        0.4394531250,        0.0454101562,        0.1220703125,        0.5798339844,       -0.3204345703
1494035497.1709909439,       -0.6147460938,        0.4394531250,        0.0454101562,        0.1220703125,        0.5798339844,       -0.3204345703
1494035497.1735610962,       -0.6147460938,        0.4394531250,        0.0454101562,        0.2136230469,        0.7781982422,       -1.0528564453
1494035497.1762568951,       -0.6191406250,        0.4165039062,        0.0273437500,        0.2136230469,        0.7781982422,       -1.0528564453
1494035497.1789510250,       -0.6191406250,        0.4165039062,        0.0273437500,        1.0986328125,        0.5645751953,       -2.0751953125
1494035497.1816389561,       -0.6191406250,        0.4165039062,        0.0273437500,        1.0986328125,        0.5645751953,       -2.0751953125
1494035497.1842889786,       -0.6191406250,        0.4165039062,        0.0273437500,        1.5258789062,        0.1373291016,       -3.3721923828
1494035497.1868391037,       -0.6088867188,        0.4365234375,        0.0346679688,        1.5258789062,        0.1373291016,       -3.3721923828
1494035497.1893849373,       -0.6088867188,        0.4365234375,        0.0346679688,        1.5258789062,       -0.1983642578,       -4.6386718750
1494035497.1919329166,       -0.6088867188,        0.4365234375,        0.0346679688,        1.6021728516,       -0.1983642578,       -4.6386718750
1494035497.1944808960,       -0.6088867188,        0.4365234375,        0.0346679688,        1.6021728516,       -0.1983642578,       -6.1187744141
1494035497.1970300674,       -0.6274414062,        0.4340820312,        0.0156250000,        2.8991699219,       -0.5340576172,       -6.1187744141
1494035497.1996879578,       -0.6274414062,        0.4340820312,        0.0156250000,        2.8991699219,       -0.5340576172,       -6.8664550781
1494035497.2022359371,       -0.6274414062,        0.4340820312,        0.0156250000,        3.7078857422,       -0.5645751953,       -6.8664550781
1494035497.2049310207,       -0.6274414062,        0.4340820312,        0.0268554688,        3.7078857422,       -0.5645751953,       -6.8664550781
1494035497.2074739933,       -0.6386718750,        0.3999023438,        0.0268554688,        3.0517578125,       -0.3662109375,       -7.5988769531
1494035497.2100200653,       -0.6386718750,        0.3999023438,        0.0268554688,        3.0517578125,       -0.3662109375,       -7.5988769531
1494035497.2125680447,       -0.6386718750,        0.3999023438,        0.0268554688,        2.9449462891,       -0.6256103516,       -8.5754394531
1494035497.2152750492,       -0.6386718750,        0.4199218750,        0.0419921875,        2.9449462891,       -0.6256103516,       -8.5754394531
1494035497.2178189754,       -0.6220703125,        0.4199218750,        0.0419921875,        2.8228759766,       -0.9307861328,       -9.2926025391
1494035497.2203619480,       -0.6220703125,        0.4199218750,        0.0419921875,        2.8228759766,       -0.9307861328,       -9.2926025391
1494035497.2229089737,       -0.6220703125,        0.4199218750,        0.0419921875,        2.1667480469,       -0.7019042969,      -10.2539062500
1494035497.2256009579,       -0.7470703125,        0.3906250000,        0.0268554688,        2.1667480469,       -0.7019042969,      -10.2539062500
1494035497.2283000946,       -0.6347656250,        0.3906250000,        0.0268554688,        1.6479492188,        1.0986328125,      -11.1999511719
1494035497.2309930325,       -0.6347656250,        0.3906250000,        0.0268554688,        1.6479492188,        1.0986328125,      -11.1999511719
1494035497.2336978912,       -0.6347656250,        0.3906250000,        0.0268554688,       -0.4425048828,        1.7395019531,      -11.7034912109
1494035497.2363920212,       -0.6284179688,        0.3828125000,        0.0327148438,       -0.4425048828,        1.7395019531,      -11.7034912109
1494035497.2390840054,       -0.6284179688,        0.3828125000,        0.0327148438,       -2.4566650391,        0.5645751953,      -11.7340087891
1494035497.2417800426,       -0.6284179688,        0.3828125000,        0.0327148438,       -2.4566650391,        0.5645751953,      -11.7340087891
1494035497.2444839478,       -0.6284179688,        0.3828125000,        0.0327148438,       -3.3264160156,        0.9002685547,      -12.5122070312
1494035497.2471759319,       -0.6333007812,        0.4145507812,        0.0390625000,       -3.3264160156,        0.9002685547,      -12.5122070312
1494035497.2498650551,       -0.6333007812,        0.4145507812,        0.0390625000,       -2.7313232422,        0.4425048828,      -13.6413574219
1494035497.2525570393,       -0.6333007812,        0.4145507812,        0.0390625000,       -2.7313232422,        0.4425048828,      -13.6413574219
1494035497.2552940845,       -0.6333007812,        0.4145507812,        0.0283203125,       -2.0294189453,       -0.8239746094,      -14.6331787109
1494035497.2579820156,       -0.6440429688,        0.4072265625,        0.0283203125,       -2.0294189453,       -0.8239746094,      -14.6331787109
1494035497.2606739998,       -0.6440429688,        0.4072265625,        0.0283203125,       -1.0986328125,       -1.4343261719,      -15.1977539062
1494035497.2634088993,       -0.6440429688,        0.4072265625,        0.0283203125,       -1.0986328125,       -1.4343261719,      -15.1977539062
1494035497.2659540176,       -0.6440429688,        0.3920898438,        0.0263671875,       -0.4882812500,       -1.6632080078,      -15.5181884766
1494035497.2685079575,       -0.6445312500,        0.3920898438,        0.0263671875,       -0.4882812500,       -1.6632080078,      -15.5181884766
1494035497.2713229656,       -0.6445312500,        0.3920898438,        0.0263671875,       -0.8697509766,       -1.4495849609,      -15.6250000000
1494035497.2741520405,       -0.6445312500,        0.3920898438,        0.0263671875,       -0.8697509766,       -1.4495849609,      -15.6250000000
1494035497.2768509388,       -0.6250000000,        0.3916015625,        0.0209960938,       -1.2664794922,       -1.4953613281,      -15.5792236328
1494035497.2795391083,       -0.6250000000,        0.3916015625,        0.0209960938,       -1.2664794922,       -1.4953613281,      -15.5792236328
1494035497.2822299004,       -0.6250000000,        0.3916015625,        0.0209960938,       -1.9073486328,       -2.0599365234,      -16.3574218750
1494035497.2849309444,       -0.6250000000,        0.3916015625,        0.0209960938,       -1.9073486328,       -2.0599365234,      -16.3574218750
1494035497.2876219749,       -0.6259765625,        0.4194335938,        0.0366210938,       -1.8157958984,       -2.1972656250,      -17.9290771484
1494035497.2903110981,       -0.6259765625,        0.4194335938,        0.0366210938,       -1.8157958984,       -2.1972656250,      -17.9290771484
1494035497.2929999828,       -0.6259765625,        0.4194335938,        0.0366210938,       -1.1596679688,       -2.0446777344,      -18.9056396484
1494035497.2957010269,       -0.6259765625,        0.4194335938,        0.0522460938,       -1.1596679688,       -2.0446777344,      -18.9056396484
1494035497.2983899117,       -0.6293945312,        0.4160156250,        0.0522460938,       -0.0915527344,       -1.5258789062,      -19.5312500000
1494035497.3010790348,       -0.6293945312,        0.4160156250,        0.0522460938,       -0.0915527344,       -1.5258789062,      -19.5312500000
1494035497.3037569523,       -0.6293945312,        0.4160156250,        0.0522460938,        3.8146972656,       -2.1514892578,      -20.2178955078
1494035497.3063020706,       -0.6293945312,        0.4052734375,        0.0649414062,        0.4730224609,       -2.1514892578,      -20.2178955078
1494035497.3088569641,       -0.6259765625,        0.4052734375,        0.0649414062,        0.4730224609,       -2.1514892578,      -21.0876464844
1494035497.3114080429,       -0.6259765625,        0.4052734375,        0.0649414062,        2.0751953125,       -3.0822753906,      -21.0876464844
1494035497.3139619827,       -0.6259765625,        0.4052734375,        0.0649414062,        2.0751953125,       -3.0822753906,      -21.5148925781
1494035497.3165149689,       -0.5009765625,        0.3979492188,        0.0473632812,        3.7994384766,       -3.2348632812,      -21.5148925781
1494035497.3190701008,       -0.6245117188,        0.3979492188,        0.0473632812,        3.7994384766,       -3.2348632812,      -21.5148925781
1494035497.3216249943,       -0.6245117188,        0.3979492188,        0.0473632812,        4.8217773438,       -3.9825439453,      -22.0489501953
1494035497.3243460655,       -0.6245117188,        0.3979492188,        0.0473632812,        4.8217773438,       -3.9825439453,      -22.0489501953
1494035497.3268969059,       -0.6494140625,        0.3813476562,        0.0239257812,        5.5694580078,       -3.7536621094,      -22.5982666016
1494035497.3294529915,       -0.6494140625,        0.3813476562,        0.0239257812,        5.5694580078,       -3.7536621094,      -22.5982666016
1494035497.3320059776,       -0.6494140625,        0.3813476562,        0.0239257812,        5.3253173828,       -2.7770996094,      -22.4456787109
1494035497.3347849846,       -0.6494140625,        0.3813476562,        0.0239257812,        5.3253173828,       -2.7770996094,      -22.4456787109
1494035497.3374750614,       -0.6738281250,        0.3608398438,        0.0195312500,        4.4403076172,       -1.5869140625,      -22.7508544922
1494035497.3401670456,       -0.6738281250,        0.3608398438,        0.0195312500,        4.4403076172,       -1.5869140625,      -22.7508544922
1494035497.3428530693,       -0.6738281250,        0.3608398438,        0.0195312500,        2.6550292969,       -0.5950927734,      -22.4456787109
1494035497.3456690311,       -0.6738281250,        0.3608398438,        0.0195312500,        2.6550292969,       -0.5950927734,      -22.4456787109
1494035497.3483650684,       -0.6274414062,        0.3872070312,        0.0473632812,        1.7089843750,       -0.2899169922,      -22.3693847656
1494035497.3510529995,       -0.6274414062,        0.3872070312,        0.0473632812,        1.7089843750,       -0.2899169922,      -22.3693847656
1494035497.3537549973,       -0.6274414062,        0.3872070312,        0.0473632812,        1.2664794922,       -0.0762939453,      -23.1781005859
1494035497.3564460278,       -0.6274414062,        0.3872070312,        0.0522460938,        1.2664794922,       -0.0762939453,      -23.1781005859
1494035497.3591361046,       -0.6113281250,        0.3964843750,        0.0522460938,        1.5411376953,        0.5798339844,      -23.9410400391
1494035497.3618280888,       -0.6113281250,        0.3964843750,        0.0522460938,        1.5411376953,        0.5798339844,      -23.9410400391
1494035497.3644690514,       -0.6113281250,        0.3964843750,        0.0522460938,        2.2277832031,        0.4577636719,      -24.4903564453
1494035497.3670210838,       -0.6113281250,        0.3745117188,        0.0307617188,        2.2277832031,        0.4577636719,      -24.4903564453
1494035497.3695759773,       -0.6108398438,        0.3745117188,        0.0307617188,        2.7923583984,        0.1373291016,      -24.9938964844
1494035497.3721289635,       -0.6108398438,        0.3745117188,        0.0307617188,        2.7923583984,        0.1373291016,      -24.9938964844
1494035497.3748381138,       -0.6108398438,        0.3745117188,        0.0307617188,        2.8228759766,        0.2593994141,      -25.3295898438
1494035497.3775320053,       -0.6225585938,        0.3862304688,        0.0200195312,        2.8228759766,        0.2593994141,      -25.3295898438
1494035497.3802208900,       -0.6225585938,        0.3862304688,        0.0200195312,        2.7465820312,        0.8697509766,      -25.4821777344
1494035497.3829159737,       -0.6225585938,        0.3862304688,        0.0200195312,        2.7465820312,        0.8697509766,      -25.4821777344
1494035497.3856210709,       -0.6225585938,        0.3862304688,        0.0200195312,        2.3956298828,        0.9613037109,      -25.2075195312
1494035497.3883130550,       -0.6469726562,        0.3671875000,        0.0273437500,        2.3956298828,        0.9613037109,      -25.2075195312
1494035497.3911120892,       -0.6469726562,        0.3671875000,        0.0273437500,        3.1890869141,        0.3967285156,      -25.8178710938
1494035497.3941080570,       -0.6469726562,        0.3671875000,        0.0273437500,        3.1890869141,        0.3967285156,      -25.8178710938
1494035497.3968009949,       -0.6469726562,        0.3671875000,        0.0434570312,        3.7078857422,        0.7934570312,      -25.7720947266
1494035497.3994929790,       -0.6513671875,        0.3662109375,        0.0434570312,        3.7078857422,        0.7934570312,      -25.7720947266
1494035497.4021799564,       -0.6513671875,        0.3662109375,        0.0434570312,        3.7841796875,        0.7476806641,      -26.1230468750
1494035497.4048841000,       -0.6513671875,        0.3662109375,        0.0434570312,        3.7841796875,        0.7476806641,      -26.1230468750
1494035497.4075748920,       -0.6464843750,        0.3837890625,        0.0498046875,        3.9825439453,        0.1831054688,      -26.5045166016
1494035497.4102680683,       -0.6464843750,        0.3837890625,        0.0498046875,        3.9825439453,        0.1831054688,      -26.5045166016
1494035497.4129600525,       -0.6464843750,        0.3837890625,        0.0498046875,        5.4779052734,        0.1373291016,      -27.0996093750
1494035497.4155690670,       -0.6464843750,        0.3837890625,        0.0498046875,        5.4779052734,        0.1373291016,      -27.0996093750
1494035497.4181249142,       -0.6694335938,        0.3623046875,        0.0336914062,        5.4779052734,       -0.9460449219,      -27.3437500000
1494035497.4207890034,       -0.6694335938,        0.3623046875,        0.0336914062,        7.2937011719,       -0.9460449219,      -27.3437500000
1494035497.4233889580,       -0.6694335938,        0.3623046875,        0.0336914062,       11.1999511719,       -1.8157958984,      -27.6184082031
1494035497.4259459972,       -0.6694335938,        0.3623046875,        0.0336914062,        9.3688964844,       -1.8157958984,      -27.6184082031
1494035497.4284980297,       -0.6796875000,        0.3364257812,        0.0224609375,        9.3688964844,       -1.8157958984,      -27.6336669922
1494035497.4310500622,       -0.6796875000,        0.3364257812,        0.0224609375,       11.3372802734,       -2.0446777344,      -27.6336669922
1494035497.4336578846,       -0.6796875000,        0.3364257812,        0.0224609375,       11.3372802734,       -2.0446777344,      -26.9927978516
1494035497.4362120628,       -0.6796875000,        0.3364257812,        0.0224609375,       11.9476318359,       -3.0059814453,      -26.9927978516
1494035497.4387710094,       -0.6518554688,        0.3623046875,        0.0400390625,       11.9476318359,       -3.0059814453,      -26.9927978516
1494035497.4413290024,       -0.6518554688,        0.3623046875,        0.0400390625,       12.0391845703,       -3.8909912109,      -26.9927978516
1494035497.4439918995,       -0.6518554688,        0.3623046875,        0.0400390625,       12.0391845703,       -3.8909912109,      -26.9927978516
1494035497.4465539455,       -0.6518554688,        0.3623046875,        0.0400390625,       13.5803222656,       -4.9438476562,      -27.0080566406
1494035497.4491069317,       -0.6347656250,        0.3754882812,        0.0073242188,       13.5803222656,       -4.9438476562,      -27.0080566406
1494035497.4516630173,       -0.6347656250,        0.3754882812,        0.0073242188,       15.1672363281,       -4.7912597656,      -26.7181396484
1494035497.4543600082,       -0.6347656250,        0.3754882812,        0.0073242188,       15.1672363281,       -4.7912597656,      -26.7181396484
1494035497.4569160938,       -0.6347656250,        0.3754882812,        0.0073242188,       16.5252685547,       -4.8217773438,      -26.0009765625
1494035497.4594728947,       -0.6694335938,        0.3115234375,        0.0122070312,       16.5252685547,       -4.8217773438,      -26.0009765625
1494035497.4620289803,       -0.6694335938,        0.3115234375,        0.0122070312,       15.9759521484,       -4.5928955078,      -25.1770019531
1494035497.4647018909,       -0.6694335938,        0.3115234375,        0.0122070312,       15.9759521484,       -4.5928955078,      -25.1770019531
1494035497.4674010277,       -0.6694335938,        0.3115234375,        0.0185546875,       13.6413574219,       -3.4484863281,      -24.2462158203
1494035497.4700970650,       -0.7016601562,        0.2817382812,        0.0185546875,       13.6413574219,       -3.4484863281,      -24.2462158203
1494035497.4727959633,       -0.7016601562,        0.2817382812,        0.0185546875,       11.1694335938,       -2.2888183594,      -22.9492187500
1494035497.4755020142,       -0.7016601562,        0.2817382812,        0.0185546875,       11.1694335938,       -2.2888183594,      -22.9492187500
1494035497.4782021046,       -0.6933593750,        0.3349609375,        0.0649414062,        8.8043212891,       -1.1901855469,      -21.8811035156
1494035497.4808928967,       -0.6933593750,        0.3349609375,        0.0649414062,        8.8043212891,       -1.1901855469,      -21.8811035156
1494035497.4835710526,       -0.6933593750,        0.3349609375,        0.0649414062,        8.4075927734,       -1.1596679688,      -21.0113525391
1494035497.4861209393,       -0.6933593750,        0.3349609375,        0.0649414062,        8.4075927734,       -1.1596679688,      -21.0113525391
1494035497.4886739254,       -0.6596679688,        0.3491210938,        0.0644531250,        8.4075927734,       -1.0833740234,      -20.8587646484
1494035497.4913311005,       -0.6596679688,        0.3491210938,        0.0644531250,       11.5356445312,       -1.0833740234,      -20.8587646484
1494035497.4940080643,       -0.6596679688,        0.3491210938,        0.0644531250,       11.5356445312,       -1.0833740234,      -20.7366943359
1494035497.4965589046,       -0.6596679688,        0.3491210938,        0.0644531250,       13.6718750000,       -0.9307861328,      -20.7366943359
1494035497.4991159439,       -0.6699218750,        0.3398437500,        0.0483398438,       13.6718750000,       -0.9307861328,      -20.6909179688
1494035497.5016710758,       -0.6699218750,        0.3398437500,        0.0483398438,       15.9759521484,       -0.6408691406,      -20.6909179688
1494035497.5042779446,       -0.6699218750,        0.3398437500,        0.0483398438,       15.9759521484,       -0.6408691406,      -20.6909179688
1494035497.5068349838,       -0.6699218750,        0.3398437500,        0.0483398438,       16.6625976562,       -0.9613037109,      -20.1721191406
1494035497.5096509457,       -0.6469726562,        0.3398437500,        0.0180664062,       16.6625976562,       -0.9613037109,      -16.2658691406
1494035497.5122261047,       -0.6469726562,        0.3398437500,        0.0180664062,       17.0898437500,       -0.8239746094,      -19.2108154297
1494035497.5153260231,       -0.6469726562,        0.3398437500,        0.0180664062,       17.0898437500,       -0.8239746094,      -17.9290771484
1494035497.5180230141,       -0.6469726562,        0.3061523438,        0.0371093750,       16.6778564453,       -0.2441406250,      -17.9290771484
1494035497.5207200050,       -0.6718750000,        0.3061523438,        0.0371093750,       16.6778564453,       -0.2441406250,      -17.2576904297
1494035497.5234630108,       -0.6718750000,        0.3061523438,        0.0371093750,       15.0451660156,        0.9307861328,      -17.2576904297
1494035497.5261619091,       -0.6718750000,        0.3061523438,        0.0371093750,       15.0451660156,        0.9307861328,      -16.5252685547
1494035497.5288619995,       -0.6850585938,        0.2963867188,        0.0551757812,       13.7481689453,        1.7089843750,      -16.5252685547
1494035497.5315589905,       -0.6850585938,        0.2963867188,        0.0551757812,       13.7481689453,        1.7089843750,      -15.5639648438
1494035497.5342650414,       -0.6850585938,        0.2963867188,        0.0551757812,       12.1612548828,        1.7852783203,      -15.5639648438
1494035497.5369610786,       -0.6850585938,        0.2963867188,        0.0551757812,       12.1612548828,        1.7852783203,      -14.5874023438
1494035497.5396559238,       -0.6484375000,        0.3227539062,        0.0610351562,       14.1754150391,        1.2512207031,      -14.5874023438
1494035497.5423491001,       -0.6484375000,        0.3227539062,        0.0610351562,       14.1754150391,        1.2512207031,      -14.5874023438
1494035497.5449929237,       -0.6484375000,        0.3227539062,        0.0610351562,       17.7154541016,        1.1596679688,      -12.7410888672
1494035497.5475509167,       -0.6484375000,        0.3227539062,        0.0610351562,       17.7154541016,        1.1596679688,      -12.7410888672
1494035497.5501101017,       -0.6787109375,        0.3271484375,        0.0327148438,       19.7906494141,        1.9226074219,      -11.7950439453
1494035497.5526680946,       -0.6787109375,        0.3271484375,        0.0327148438,       19.7906494141,        1.9226074219,      -11.7950439453
1494035497.5552380085,       -0.6787109375,        0.3271484375,        0.0327148438,       21.7285156250,        2.1514892578,      -11.0626220703
1494035497.5577909946,       -0.6787109375,        0.3271484375,        0.0327148438,       21.7285156250,        2.1514892578,      -11.0626220703
1494035497.5603489876,       -0.6982421875,        0.2998046875,        0.0043945312,       22.0336914062,        1.4495849609,       -9.5062255859
1494035497.5629019737,       -0.6982421875,        0.2998046875,        0.0043945312,       22.0336914062,        1.4495849609,       -9.5062255859
1494035497.5657000542,       -0.6982421875,        0.2998046875,        0.0043945312,       21.2707519531,        0.7171630859,       -7.3394775391
1494035497.5682599545,       -0.6982421875,        0.2998046875,       -0.0058593750,       21.2707519531,        0.7171630859,       -7.3394775391
1494035497.5708160400,       -0.6655273438,        0.2768554688,       -0.0058593750,       21.5759277344,        0.8087158203,       -5.0201416016
1494035497.5735468864,       -0.6655273438,        0.2768554688,       -0.0058593750,       21.5759277344,        0.8087158203,       -5.0201416016
1494035497.5762469769,       -0.6655273438,        0.2768554688,       -0.0058593750,       22.2015380859,        0.6256103516,       -3.2348632812
1494035497.5789411068,       -0.6655273438,        0.2983398438,       -0.0180664062,       22.2015380859,        0.6256103516,       -3.2348632812
1494035497.5816318989,       -0.6757812500,        0.2983398438,       -0.0180664062,       21.3317871094,        0.0762939453,       -2.7923583984
1494035497.5843389034,       -0.6757812500,        0.2983398438,       -0.0180664062,       21.3317871094,        0.0762939453,       -2.7923583984
1494035497.5870320797,       -0.6757812500,        0.2983398438,       -0.0180664062,       19.3023681641,        0.3509521484,       -0.5493164062
1494035497.5897240639,       -0.6806640625,        0.2993164062,       -0.0102539062,       19.3023681641,        0.3509521484,       -0.5493164062
1494035497.5924160480,       -0.6806640625,        0.2993164062,       -0.0102539062,       16.4947509766,        0.5035400391,        0.7476806641
1494035497.5951180458,       -0.6806640625,        0.2993164062,       -0.0102539062,       16.4947509766,        0.5035400391,        0.7476806641
1494035497.5978059769,       -0.6806640625,        0.2993164062,       -0.0102539062,       15.2282714844,        1.0223388672,        1.6784667969
1494035497.6004929543,       -0.6899414062,        0.2929687500,        0.0249023438,       15.2282714844,        1.0223388672,        1.6784667969
1494035497.6031899452,       -0.6899414062,        0.2929687500,        0.0249023438,       19.1345214844,        1.6021728516,        2.9449462891
1494035497.6057400703,       -0.6899414062,        0.2929687500,        0.0249023438,       15.7470703125,        1.6021728516,        2.9449462891
1494035497.6082921028,       -0.6899414062,        0.2929687500,        0.0249023438,       15.7470703125,        1.6021728516,        4.9133300781
1494035497.6108450890,       -0.7006835938,        0.2929687500,        0.0292968750,       15.7623291016,        1.8768310547,        4.9133300781
1494035497.6134750843,       -0.7006835938,        0.2929687500,        0.0292968750,       15.7623291016,        1.8768310547,        6.1492919922
1494035497.6161639690,       -0.7006835938,        0.2929687500,        0.0292968750,       15.7623291016,        1.8310546875,        6.1492919922
1494035497.6188449860,       -0.7006835938,        0.2929687500,        0.0253906250,       15.7623291016,        1.8310546875,        7.4615478516
1494035497.6215300560,       -0.7070312500,        0.2871093750,        0.0253906250,       16.2200927734,        1.7547607422,        7.4615478516
1494035497.6242580414,       -0.7070312500,        0.2871093750,        0.0253906250,       16.2200927734,        1.7547607422,        8.1939697266
1494035497.6269431114,       -0.7070312500,        0.2871093750,        0.0253906250,       16.5252685547,        1.7395019531,        8.1939697266
1494035497.6297810078,       -0.6933593750,        0.3017578125,        0.0244140625,       16.5252685547,        1.7395019531,        9.4604492188
1494035497.6324820518,       -0.6933593750,        0.3017578125,        0.0244140625,       16.9067382812,        1.5106201172,        9.4604492188
1494035497.6353669167,       -0.6933593750,        0.3017578125,        0.0244140625,       16.9067382812,        1.5106201172,       10.9405517578
1494035497.6380200386,       -0.6933593750,        0.3017578125,        0.0244140625,       17.1661376953,        0.5187988281,       10.9405517578
1494035497.6407840252,       -0.7192382812,        0.3046875000,       -0.0151367188,       17.1661376953,        0.5187988281,       12.0849609375
1494035497.6435320377,       -0.7192382812,        0.3046875000,       -0.0151367188,       16.6625976562,        0.1983642578,       12.0849609375
1494035497.6462330818,       -0.7192382812,        0.3046875000,       -0.0151367188,       16.6625976562,        0.1983642578,       12.8326416016
1494035497.6489329338,       -0.7192382812,        0.3046875000,       -0.0200195312,       15.9912109375,        0.3204345703,       12.8326416016
1494035497.6516358852,       -0.6962890625,        0.3227539062,       -0.0200195312,       15.9912109375,        0.3204345703,       13.7329101562
1494035497.6543469429,       -0.6962890625,        0.3227539062,       -0.0200195312,       15.9149169922,        0.5950927734,       13.7329101562
1494035497.6570429802,       -0.6962890625,        0.3227539062,       -0.0200195312,       15.9149169922,        0.5950927734,       14.3432617188
1494035497.6597468853,       -0.7167968750,        0.3295898438,       -0.0229492188,       15.5639648438,        1.0528564453,       14.3432617188
1494035497.6624419689,       -0.7167968750,        0.3295898438,       -0.0229492188,       15.5639648438,        1.0528564453,       15.1367187500
1494035497.6650559902,       -0.7167968750,        0.3295898438,       -0.0229492188,       15.1367187500,        0.6103515625,       15.1367187500
1494035497.6676139832,       -0.7167968750,        0.3295898438,       -0.0229492188,       15.1367187500,        0.6103515625,       19.0429687500
1494035497.6701738834,       -0.7338867188,        0.3447265625,       -0.0205078125,       15.7470703125,       -0.2899169922,       15.7928466797
1494035497.6727309227,       -0.7338867188,        0.3447265625,       -0.0205078125,       15.7470703125,       -0.2899169922,       15.7928466797
1494035497.6752960682,       -0.7338867188,        0.3447265625,       -0.0205078125,       16.5863037109,       -0.7324218750,       15.8538818359
1494035497.6778559685,       -0.7338867188,        0.3447265625,       -0.0205078125,       16.5863037109,       -0.7324218750,       15.8538818359
1494035497.6804099083,       -0.7216796875,        0.3706054688,        0.0053710938,       17.8985595703,       -0.8392333984,       16.0675048828
1494035497.6829628944,       -0.7216796875,        0.3706054688,        0.0053710938,       17.8985595703,       -0.8392333984,       16.0675048828
1494035497.6856839657,       -0.7216796875,        0.3706054688,        0.0053710938,       19.3328857422,       -0.8392333984,       15.7928466797
1494035497.6882400513,       -0.7216796875,        0.3706054688,        0.0053710938,       19.3328857422,       -0.8392333984,       15.7928466797
1494035497.6907989979,       -0.7763671875,        0.3383789062,        0.0180664062,       21.4080810547,        0.5645751953,       16.0217285156
1494035497.6935200691,       -0.7763671875,        0.3383789062,        0.0180664062,       21.4080810547,        0.5645751953,       16.0217285156
1494035497.6960771084,       -0.7763671875,        0.3383789062,        0.0180664062,       22.8271484375,        2.3193359375,       16.4184570312
1494035497.6986339092,       -0.7763671875,        0.3383789062,        0.0180664062,       22.8271484375,        2.3193359375,       16.4184570312
1494035497.7011868954,       -0.8232421875,        0.3129882812,        0.0102539062,       23.1933593750,        4.4555664062,       17.3950195312
1494035497.7038269043,       -0.8232421875,        0.3129882812,        0.0102539062,       23.1933593750,        4.4555664062,       17.3950195312
1494035497.7065219879,       -0.8232421875,        0.3129882812,        0.0102539062,       23.1933593750,        6.5002441406,       19.5770263672
1494035497.7092170715,       -0.8232421875,        0.3129882812,        0.0200195312,       22.5524902344,        6.5002441406,       19.5770263672
1494035497.7120161057,       -0.8823242188,        0.2714843750,        0.0200195312,       20.9655761719,        9.0789794922,       21.1486816406
1494035497.7147309780,       -0.8823242188,        0.2714843750,        0.0200195312,       20.9655761719,        9.0789794922,       21.1486816406
1494035497.7174320221,       -0.8823242188,        0.2714843750,        0.0200195312,       17.0593261719,       11.4898681641,       21.0418701172
1494035497.7201349735,       -0.8823242188,        0.2583007812,        0.0034179688,       17.7459716797,       11.4898681641,       21.0418701172
1494035497.7228360176,       -0.9326171875,        0.2583007812,        0.0034179688,       13.8397216797,       12.5274658203,       21.1791992188
1494035497.7255439758,       -0.9326171875,        0.2583007812,        0.0034179688,       15.0604248047,       12.5274658203,       21.1791992188
1494035497.7282390594,       -0.9326171875,        0.2583007812,        0.0034179688,       11.1541748047,       12.9547119141,       21.6217041016
1494035497.7309360504,       -0.9614257812,        0.3129882812,       -0.0576171875,       11.2304687500,       12.9547119141,       21.6217041016
1494035497.7336909771,       -0.9614257812,        0.3129882812,       -0.0576171875,       11.2304687500,       13.0615234375,       22.2473144531
1494035497.7363839149,       -0.9614257812,        0.3129882812,       -0.0576171875,        8.0108642578,       13.0615234375,       22.2473144531
1494035497.7390730381,       -0.9614257812,        0.3129882812,       -0.0576171875,        4.1046142578,       12.3443603516,       24.0173339844
1494035497.7417669296,       -0.9599609375,        0.3496093750,       -0.1259765625,        6.6375732422,       12.3443603516,       24.0173339844
1494035497.7444140911,       -0.9599609375,        0.3496093750,       -0.1259765625,        6.6375732422,       11.9018554688,       24.7955322266
1494035497.7469639778,       -0.9599609375,        0.3496093750,       -0.1259765625,        6.9274902344,       11.9018554688,       24.7955322266
1494035497.7497360706,       -0.9599609375,        0.3496093750,       -0.1357421875,        6.9274902344,       11.9018554688,       25.9399414062
1494035497.7523179054,       -0.9892578125,        0.3505859375,       -0.1357421875,        7.3089599609,       11.8255615234,       25.9399414062
1494035497.7553229332,       -0.9892578125,        0.3505859375,       -0.1357421875,        7.3089599609,       11.2304687500,       26.1535644531
1494035497.7580230236,       -0.9892578125,        0.3505859375,       -0.1357421875,        6.8817138672,       11.2304687500,       26.1535644531
1494035497.7607159615,       -1.0502929688,        0.3271484375,       -0.1166992188,        6.8817138672,       11.1236572266,       26.7333984375
1494035497.7634611130,       -1.0502929688,        0.3271484375,       -0.1166992188,        5.2032470703,       11.1236572266,       26.7333984375
1494035497.7661609650,       -1.0502929688,        0.3271484375,       -0.1166992188,        5.2032470703,       10.0250244141,       27.4505615234
1494035497.7688570023,       -1.0502929688,        0.3271484375,       -0.1166992188,        3.9672851562,       10.0250244141,       27.4505615234
1494035497.7715539932,       -1.0986328125,        0.3652343750,       -0.0913085938,        3.9672851562,        8.5449218750,       29.4647216797
1494035497.7742609978,       -1.0986328125,        0.3652343750,       -0.0913085938,        4.7912597656,        8.5449218750,       29.4647216797
1494035497.7769489288,       -1.0986328125,        0.3652343750,       -0.0913085938,        4.7912597656,        4.6386718750,       33.3862304688
1494035497.7796390057,       -1.0986328125,        0.3652343750,       -0.0913085938,        8.6212158203,        6.9427490234,       33.3862304688
1494035497.7823290825,       -1.1127929688,        0.3901367188,       -0.0346679688,        8.6212158203,        6.9427490234,       35.4003906250
1494035497.7849719524,       -1.1127929688,        0.3901367188,       -0.0346679688,       15.7928466797,        4.3029785156,       35.4003906250
1494035497.7876429558,       -1.1127929688,        0.3901367188,       -0.0346679688,       15.7928466797,        4.3029785156,       37.2009277344
1494035497.7902009487,       -1.1127929688,        0.3901367188,        0.0083007812,       24.5666503906,        2.7160644531,       37.2009277344
1494035497.7927529812,       -1.1728515625,        0.3178710938,        0.0083007812,       24.5666503906,        2.7160644531,       41.1071777344
1494035497.7953588963,       -1.1728515625,        0.3178710938,        0.0083007812,       33.3251953125,       -0.9765625000,       39.4134521484
1494035497.7979140282,       -1.1728515625,        0.3178710938,        0.0083007812,       33.3251953125,       -0.9765625000,       39.4134521484
1494035497.8004710674,       -1.1728515625,        0.1928710938,       -0.1074218750,       40.4205322266,       -3.2653808594,       39.1540527344
1494035497.8030250072,       -1.2348632812,        0.2314453125,       -0.1074218750,       40.4205322266,       -3.2653808594,       39.1540527344
1494035497.8056979179,       -1.2348632812,        0.2314453125,       -0.1074218750,       41.1376953125,       -2.4719238281,       41.0766601562
1494035497.8082489967,       -1.2348632812,        0.2314453125,       -0.1074218750,       41.1376953125,       -2.4719238281,       41.0766601562
1494035497.8108029366,       -1.2348632812,        0.1572265625,       -0.0776367188,       42.9382324219,       -3.6010742188,       45.0744628906
1494035497.8135330677,       -1.3002929688,        0.1572265625,       -0.0776367188,       42.9382324219,       -3.6010742188,       45.0744628906
1494035497.8162269592,       -1.3002929688,        0.1572265625,       -0.0776367188,       44.6319580078,       -6.0424804688,       46.0815429688
1494035497.8189210892,       -1.3002929688,        0.1572265625,       -0.0776367188,       44.6319580078,       -6.0424804688,       46.0815429688
1494035497.8216168880,       -1.3066406250,        0.0781250000,       -0.0087890625,       46.3256835938,      -11.3067626953,       47.8515625000
1494035497.8243288994,       -1.3066406250,        0.0781250000,       -0.0087890625,       46.3256835938,      -11.3067626953,       47.8515625000
1494035497.8270258904,       -1.3066406250,        0.0781250000,       -0.0087890625,       45.7458496094,      -14.0380859375,       47.4090576172
1494035497.8297219276,       -1.3066406250,        0.0781250000,       -0.0087890625,       45.7458496094,      -14.0380859375,       47.4090576172
1494035497.8324239254,       -1.3750000000,       -0.1645507812,       -0.0048828125,       43.4265136719,      -16.1132812500,       45.6695556641
1494035497.8351318836,       -1.3750000000,       -0.1645507812,       -0.0048828125,       43.4265136719,      -16.1132812500,       45.6695556641
1494035497.8378319740,       -1.3750000000,       -0.1645507812,       -0.0048828125,       36.3769531250,      -16.0217285156,       50.9948730469
1494035497.8405311108,       -1.3750000000,       -0.1645507812,        0.0864257812,       36.3769531250,      -16.0217285156,       50.9948730469
1494035497.8432381153,       -1.2485351562,       -0.0639648438,        0.0864257812,       19.0429687500,      -10.1776123047,       65.9484863281
1494035497.8457989693,       -1.2485351562,       -0.0639648438,        0.0864257812,       19.0429687500,      -10.1776123047,       65.9484863281
1494035497.8483541012,       -1.2485351562,       -0.0639648438,        0.0864257812,        8.0871582031,       -5.7067871094,       82.4890136719
1494035497.8509089947,       -1.2485351562,        0.0610351562,        0.2636718750,        8.0871582031,       -5.7067871094,       82.4890136719
1494035497.8535070419,       -1.1870117188,        0.0756835938,        0.2636718750,        0.2746582031,       -5.3558349609,       95.3674316406
1494035497.8561980724,       -1.1870117188,        0.0756835938,        0.2636718750,        1.7547607422,       -5.3558349609,       95.3674316406
1494035497.8588910103,       -1.1870117188,        0.0756835938,        0.2636718750,       -9.9639892578,       -8.3618164062,      105.4534912109
1494035497.8616960049,       -1.3442382812,        0.3681640625,        0.3813476562,       -9.9029541016,       -8.3618164062,      105.4534912109
1494035497.8644049168,       -1.3442382812,        0.3681640625,        0.3813476562,      -21.6217041016,      -14.2669677734,      115.9515380859
1494035497.8671009541,       -1.3442382812,        0.3681640625,        0.3813476562,      -20.0042724609,      -14.2669677734,      115.9515380859
1494035497.8699259758,       -1.3442382812,        0.3681640625,        0.3813476562,      -22.6440429688,      -22.8729248047,      126.9226074219
1494035497.8726339340,       -1.4267578125,        1.1113281250,        0.4667968750,      -22.6440429688,      -22.8729248047,      126.9226074219
1494035497.8755970001,       -1.4267578125,        1.1113281250,        0.4667968750,      -17.7001953125,      -27.3284912109,      143.4478759766
1494035497.8782949448,       -1.4267578125,        1.1113281250,        0.4667968750,      -17.7001953125,      -27.3284912109,      143.4478759766
1494035497.8809928894,       -1.4267578125,        1.1113281250,        0.3608398438,       -3.4637451172,      -29.4036865234,      160.9344482422
1494035497.8836970329,       -1.5161132812,        1.8593750000,        0.3608398438,       -3.4637451172,      -29.4036865234,      160.9344482422
1494035497.8863871098,       -1.5161132812,        1.8593750000,        0.3608398438,       19.3786621094,      -32.0129394531,      177.5054931641
1494035497.8890879154,       -1.5161132812,        1.8593750000,        0.3608398438,       19.3786621094,      -32.0129394531,      177.5054931641
1494035497.8917860985,       -1.6411132812,        1.7329101562,        0.2348632812,       38.0706787109,      -33.0352783203,      192.1997070312
1494035497.8944320679,       -1.6860351562,        1.7329101562,        0.2348632812,       38.0706787109,      -33.0352783203,      192.1997070312
1494035497.8969879150,       -1.6860351562,        1.7329101562,        0.2348632812,       49.7894287109,      -36.0107421875,      204.8187255859
1494035497.8995420933,       -1.6860351562,        1.7329101562,        0.2348632812,       48.2482910156,      -36.0107421875,      204.8187255859
1494035497.9020910263,       -1.6933593750,        1.3730468750,        0.2485351562,       48.2482910156,      -36.0107421875,      209.1979980469
1494035497.9046580791,       -1.6933593750,        1.3730468750,        0.2485351562,       48.5076904297,      -35.4766845703,      209.1979980469
1494035497.9072129726,       -1.6933593750,        1.3730468750,        0.2485351562,       48.5076904297,      -35.4766845703,      208.4045410156
1494035497.9097719193,       -1.6933593750,        1.3730468750,        0.2485351562,       49.1180419922,      -31.8298339844,      208.4045410156
1494035497.9123311043,       -1.8046875000,        1.0322265625,        0.1137695312,       49.1180419922,      -31.8298339844,      208.4045410156
1494035497.9148950577,       -1.8046875000,        1.0322265625,        0.1137695312,       53.3294677734,      -30.6243896484,      213.9129638672
1494035497.9174540043,       -1.8046875000,        1.0322265625,        0.1137695312,       53.3294677734,      -30.6243896484,      213.9129638672
1494035497.9200129509,       -1.8046875000,        1.0322265625,        0.1137695312,       56.1828613281,      -32.2875976562,      217.7429199219
1494035497.9225699902,       -1.5996093750,        0.8393554688,        0.0966796875,       56.1828613281,      -32.2875976562,      217.7429199219
1494035497.9252960682,       -1.5996093750,        0.8393554688,        0.0966796875,       63.5375976562,      -29.6173095703,      215.6219482422
1494035497.9278540611,       -1.5996093750,        0.8393554688,        0.0966796875,       63.5375976562,      -29.6173095703,      215.6219482422
1494035497.9304139614,       -1.5996093750,        0.8393554688,        0.0966796875,       72.7081298828,      -27.0843505859,      213.5925292969
1494035497.9330749512,       -1.4331054688,        0.7631835938,        0.0810546875,       72.7081298828,      -27.0843505859,      213.5925292969
1494035497.9359030724,       -1.4331054688,        0.7631835938,        0.0810546875,       77.2399902344,      -23.7121582031,      213.4246826172
1494035497.9386069775,       -1.4331054688,        0.7631835938,        0.0810546875,       77.2399902344,      -23.7121582031,      213.4246826172
1494035497.9413061142,       -1.4331054688,        0.7631835938,        0.0810546875,       76.9805908203,      -19.0429687500,      210.9375000000
1494035497.9439690113,       -1.3320312500,        0.6640625000,        0.0566406250,       76.9805908203,      -19.0429687500,      210.9375000000
1494035497.9465260506,       -1.3320312500,        0.6640625000,        0.0566406250,       74.5697021484,      -15.3198242188,      205.2459716797
1494035497.9490990639,       -1.3320312500,        0.6640625000,        0.0566406250,       74.5697021484,      -15.3198242188,      205.2459716797
1494035497.9516549110,       -1.3320312500,        0.6640625000,        0.0190429688,       71.1212158203,      -11.5966796875,      198.2421875000
1494035497.9543089867,       -1.1445312500,        0.5361328125,        0.0190429688,       71.1212158203,      -11.5966796875,      198.2421875000
1494035497.9570090771,       -1.1445312500,        0.5361328125,        0.0190429688,       66.3299560547,       -8.1024169922,      190.1245117188
1494035497.9597051144,       -1.1445312500,        0.5361328125,        0.0190429688,       66.3299560547,       -8.1024169922,      190.1245117188
1494035497.9624009132,       -1.0195312500,        0.3671875000,        0.0258789062,       60.4553222656,       -5.2642822266,      181.3659667969
1494035497.9651169777,       -1.0434570312,        0.3671875000,        0.0258789062,       60.4553222656,       -5.2642822266,      181.3659667969
1494035497.9678170681,       -1.0434570312,        0.3671875000,        0.0258789062,       56.5490722656,       -2.9754638672,      173.8433837891
1494035497.9705131054,       -1.0434570312,        0.3671875000,        0.0258789062,       54.9926757812,       -2.9754638672,      173.8433837891
1494035497.9732229710,       -0.9667968750,        0.2431640625,        0.0034179688,       47.1801757812,       -1.6632080078,      166.8853759766
1494035497.9759221077,       -0.9667968750,        0.2431640625,        0.0034179688,       47.7142333984,       -1.6632080078,      166.8853759766
1494035497.9786219597,       -0.9667968750,        0.2431640625,        0.0034179688,       35.9954833984,       -1.1749267578,      159.4543457031
1494035497.9813210964,       -0.9667968750,        0.2431640625,        0.0034179688,       36.8499755859,       -1.1749267578,      159.4543457031
1494035497.9840660095,       -0.8100585938,        0.1479492188,       -0.0512695312,       21.2249755859,       -1.8005371094,      149.7802734375
1494035497.9867620468,       -0.8100585938,        0.1479492188,       -0.0512695312,       22.8118896484,       -1.8005371094,      149.7802734375
1494035497.9895451069,       -0.8100585938,        0.1479492188,       -0.0512695312,       11.0931396484,       -2.9449462891,      138.8397216797
1494035497.9922420979,       -0.8100585938,        0.0654296875,       -0.0800781250,       11.0473632812,       -2.9449462891,      138.8397216797
1494035497.9952070713,       -0.5996093750,        0.0654296875,       -0.0800781250,        2.9449462891,       -2.9907226562,      126.8005371094
1494035497.9977619648,       -0.5996093750,        0.0654296875,       -0.0800781250,        2.9449462891,       -2.9907226562,      126.8005371094
1494035498.0003099442,       -0.5996093750,        0.0654296875,       -0.0800781250,        2.9449462891,       -0.9765625000,      114.8223876953
1494035498.0028660297,       -0.4418945312,        0.0327148438,       -0.0722656250,       -1.6784667969,       -0.9765625000,      114.8223876953
1494035498.0055639744,       -0.4418945312,        0.0327148438,       -0.0722656250,       -1.6784667969,        2.9296875000,      104.0649414062
1494035498.0083661079,       -0.4418945312,        0.0327148438,       -0.0722656250,       -5.2642822266,        2.8686523438,      104.0649414062
1494035498.0110599995,       -0.4418945312,        0.0327148438,       -0.0722656250,       -5.2642822266,        4.8522949219,       91.7053222656
1494035498.0137679577,       -0.3081054688,       -0.0756835938,       -0.0947265625,      -11.9781494141,        4.8522949219,       91.7053222656
1494035498.0164649487,       -0.3081054688,       -0.0756835938,       -0.0947265625,      -11.9781494141,        4.8522949219,       80.3985595703
1494035498.0191640854,       -0.3081054688,       -0.0756835938,       -0.0947265625,      -19.9279785156,        6.3934326172,       80.3985595703
1494035498.0218620300,       -0.3081054688,       -0.0756835938,       -0.0947265625,      -19.9279785156,       10.2996826172,       72.1282958984
1494035498.0245120525,       -0.3286132812,       -0.1860351562,       -0.1093750000,      -29.8309326172,        9.4604492188,       72.1282958984
1494035498.0270750523,       -0.3286132812,       -0.1860351562,       -0.1093750000,      -29.8309326172,        9.4604492188,       59.1735839844
1494035498.0296320915,       -0.3286132812,       -0.1860351562,       -0.1093750000,      -38.5131835938,       10.8032226562,       59.1735839844
1494035498.0321950912,       -0.3286132812,       -0.1860351562,       -0.1157226562,      -38.5131835938,       10.8032226562,       43.5485839844
1494035498.0348050594,       -0.2539062500,       -0.3686523438,       -0.1157226562,      -47.1191406250,       10.6964111328,       42.9992675781
1494035498.0373699665,       -0.2539062500,       -0.3686523438,       -0.1157226562,      -47.1191406250,       10.6964111328,       42.9992675781
1494035498.0399250984,       -0.2539062500,       -0.3686523438,       -0.1157226562,      -55.2825927734,       11.1694335938,       27.5268554688
1494035498.0424859524,       -0.2539062500,       -0.3686523438,       -0.1333007812,      -55.2825927734,       11.1694335938,       27.5268554688
1494035498.0451619625,       -0.1582031250,       -0.4282226562,       -0.1333007812,      -66.6809082031,       12.7716064453,       13.5955810547
1494035498.0477221012,       -0.1582031250,       -0.4282226562,       -0.1333007812,      -66.6809082031,       12.7716064453,       13.5955810547
1494035498.0502820015,       -0.1582031250,       -0.4282226562,       -0.1333007812,      -78.4759521484,       14.0380859375,       -0.4425048828
1494035498.0528368950,       -0.1582031250,       -0.3916015625,       -0.1220703125,      -78.4759521484,       14.0380859375,       -0.4425048828
1494035498.0556230545,       -0.0644531250,       -0.3916015625,       -0.1220703125,      -88.5620117188,       13.7329101562,      -14.1754150391
1494035498.0583219528,       -0.0644531250,       -0.3916015625,       -0.1220703125,      -88.5620117188,       13.7329101562,      -14.1754150391
1494035498.0610249043,       -0.0644531250,       -0.3916015625,       -0.1220703125,      -92.4682617188,       14.6026611328,      -26.6265869141
1494035498.0637340546,       -0.0053710938,       -0.3286132812,       -0.0742187500,      -92.4682617188,       14.6026611328,      -26.6265869141
1494035498.0664310455,       -0.0053710938,       -0.3286132812,       -0.0742187500,      -91.7053222656,       15.3961181641,      -38.5131835938
1494035498.0691349506,       -0.0053710938,       -0.3286132812,       -0.0742187500,      -91.7053222656,       15.3961181641,      -38.5131835938
1494035498.0718369484,       -0.0053710938,       -0.3286132812,       -0.0742187500,      -86.8072509766,       14.4348144531,      -52.7648925781
1494035498.0745489597,        0.0039062500,       -0.3666992188,       -0.0502929688,      -86.8072509766,       14.4348144531,      -52.7648925781
1494035498.0772469044,        0.0039062500,       -0.3666992188,       -0.0502929688,      -81.1309814453,       13.6566162109,      -67.7795410156
1494035498.0799479485,        0.0039062500,       -0.3666992188,       -0.0502929688,      -81.1309814453,       13.6566162109,      -67.7795410156
1494035498.0827651024,        0.0039062500,       -0.3666992188,       -0.0473632812,      -75.0579833984,       13.6566162109,      -80.7495117188
1494035498.0853590965,        0.0014648438,       -0.4135742188,       -0.0473632812,      -75.0579833984,       13.6566162109,      -80.7495117188
1494035498.0879180431,        0.0014648438,       -0.4135742188,       -0.0473632812,      -69.3969726562,       13.3209228516,      -92.7276611328
1494035498.0904829502,        0.0014648438,       -0.4135742188,       -0.0473632812,      -69.3969726562,       13.3209228516,      -92.7276611328
1494035498.0930449963,        0.0014648438,       -0.3837890625,       -0.0156250000,      -63.4002685547,       12.8326416016,     -102.7679443359
1494035498.0957379341,        0.0224609375,       -0.3837890625,       -0.0156250000,      -63.4002685547,       12.8326416016,     -102.7679443359
1494035498.0982971191,        0.0224609375,       -0.3837890625,       -0.0156250000,      -63.4002685547,       11.8103027344,     -112.8234863281
1494035498.1008579731,        0.0224609375,       -0.3837890625,       -0.0156250000,      -55.8929443359,       11.8103027344,     -112.8234863281
1494035498.1034889221,        0.0224609375,       -0.3178710938,       -0.0039062500,      -55.8929443359,        7.9040527344,     -122.2534179688
1494035498.1061930656,        0.0742187500,       -0.3178710938,       -0.0039062500,      -48.3703613281,       11.3220214844,     -122.2534179688
1494035498.1088900566,        0.0742187500,       -0.3178710938,       -0.0039062500,      -48.3703613281,       10.8337402344,     -131.3018798828
1494035498.1117229462,        0.0742187500,       -0.3178710938,       -0.0039062500,      -42.6788330078,       10.8337402344,     -131.3018798828
1494035498.1148629189,        0.0810546875,       -0.2958984375,       -0.0083007812,      -38.3300781250,       10.1470947266,     -140.1672363281
1494035498.1175630093,        0.0810546875,       -0.2958984375,       -0.0083007812,      -38.3300781250,       10.1470947266,     -140.1672363281
1494035498.1202630997,        0.0810546875,       -0.2958984375,       -0.0083007812,      -34.2864990234,       10.4064941406,     -150.2075195312
1494035498.1229650974,        0.0810546875,       -0.2958984375,       -0.0195312500,      -34.2864990234,       10.4064941406,     -150.2075195312
1494035498.1256809235,        0.0566406250,       -0.3051757812,       -0.0195312500,      -31.4331054688,       10.9405517578,     -159.3475341797
1494035498.1283860207,        0.0566406250,       -0.3051757812,       -0.0195312500,      -31.4331054688,       10.9405517578,     -159.3475341797
1494035498.1310930252,        0.0566406250,       -0.3051757812,       -0.0195312500,      -23.6206054688,       12.6190185547,     -168.8537597656
1494035498.1337709427,        0.0566406250,       -0.2592773438,       -0.0454101562,      -26.5502929688,       12.6190185547,     -168.8537597656
1494035498.1363310814,        0.0429687500,       -0.2592773438,       -0.0454101562,      -26.5502929688,       13.4735107422,     -177.5207519531
1494035498.1388969421,        0.0429687500,       -0.2592773438,       -0.0454101562,      -21.4843750000,       13.4735107422,     -177.5207519531
1494035498.1414599419,        0.0429687500,       -0.2592773438,       -0.0454101562,      -21.4843750000,       13.4735107422,     -183.9294433594
1494035498.1440739632,        0.0566406250,       -0.2426757812,       -0.0708007812,      -20.9655761719,       14.2974853516,     -183.9294433594
1494035498.1466369629,        0.0566406250,       -0.2426757812,       -0.0708007812,      -20.9655761719,       14.2974853516,     -187.8356933594
1494035498.1492040157,        0.0566406250,       -0.2426757812,       -0.0708007812,      -22.7813720703,       15.0604248047,     -190.2465820312
1494035498.1517670155,        0.0566406250,       -0.2426757812,       -0.0708007812,      -22.7813720703,       15.0604248047,     -190.2465820312
1494035498.1544420719,        0.0444335938,       -0.2104492188,       -0.0703125000,      -24.9633789062,       14.9993896484,     -196.8078613281
1494035498.1570069790,        0.0444335938,       -0.2104492188,       -0.0703125000,      -24.9633789062,       14.9993896484,     -196.8078613281
1494035498.1595718861,        0.0444335938,       -0.2104492188,       -0.0703125000,      -29.2358398438,       17.9138183594,     -203.3538818359
1494035498.1621329784,        0.0444335938,       -0.2104492188,       -0.0703125000,      -29.2358398438,       17.9138183594,     -203.3538818359
1494035498.1648030281,        0.0356445312,       -0.0966796875,       -0.0634765625,      -34.0728759766,       20.8587646484,     -208.3435058594
1494035498.1673660278,        0.0356445312,       -0.0966796875,       -0.0634765625,      -34.0728759766,       20.8587646484,     -208.3435058594
1494035498.1699299812,        0.0356445312,       -0.0966796875,       -0.0634765625,      -35.0646972656,       21.1334228516,     -212.0971679688
1494035498.1724920273,        0.0356445312,       -0.0966796875,       -0.0634765625,      -35.0646972656,       21.1334228516,     -212.0971679688
