time_stamp before, Acceleration x, Acceleration y, Acceleration z, Gyro x, Gyro y, Gyro z
1494035466.0134499073,       -0.7231445312,        0.5751953125,       -0.0478515625,      -15.3503417969,        8.5449218750,      -42.1142578125
1494035466.0273849964,       -0.7231445312,        0.5751953125,       -0.0478515625,      -18.3715820312,        9.1857910156,      -37.6281738281
1494035466.0302538872,       -0.7231445312,        0.5751953125,       -0.0478515625,      -18.3715820312,        9.1857910156,      -37.6281738281
1494035466.0334060192,       -0.7109375000,        0.5229492188,       -0.0810546875,      -22.6745605469,       10.3149414062,      -33.0505371094
1494035466.0360910892,       -0.7109375000,        0.5229492188,       -0.0810546875,      -22.6745605469,       10.3149414062,      -33.0505371094
1494035466.0387649536,       -0.7109375000,        0.5229492188,       -0.0810546875,      -26.5655517578,       10.8184814453,      -29.4036865234
1494035466.0414359570,       -0.7109375000,        0.5019531250,       -0.0937500000,      -26.5655517578,       10.8184814453,      -29.4036865234
1494035466.0441188812,       -0.6660156250,        0.5019531250,       -0.0937500000,      -30.0598144531,       10.8642578125,      -26.0772705078
1494035466.0473859310,       -0.6660156250,        0.5019531250,       -0.0937500000,      -30.0598144531,       10.8642578125,      -23.9868164062
1494035466.0509130955,       -0.6660156250,        0.5019531250,       -0.0937500000,      -33.3709716797,       10.6201171875,      -23.9868164062
1494035466.0536780357,       -0.6210937500,        0.5048828125,       -0.0537109375,      -33.3709716797,       10.6201171875,      -23.1475830078
1494035466.0563719273,       -0.6210937500,        0.5048828125,       -0.0537109375,      -34.3170166016,       10.2233886719,      -23.1475830078
1494035466.0590689182,       -0.6210937500,        0.5048828125,       -0.0537109375,      -34.3170166016,       10.2233886719,      -21.5911865234
1494035466.0617609024,       -0.6210937500,        0.5722656250,       -0.0083007812,      -32.1502685547,        8.9416503906,      -21.5911865234
1494035466.0644340515,       -0.6523437500,        0.5722656250,       -0.0083007812,      -32.1502685547,        8.9416503906,      -19.3023681641
1494035466.0669860840,       -0.6523437500,        0.5722656250,       -0.0083007812,      -27.8015136719,        8.3160400391,      -19.3023681641
1494035466.0695369244,       -0.6523437500,        0.5722656250,       -0.0083007812,      -27.8015136719,        8.3160400391,      -19.3023681641
1494035466.0720860958,       -0.6523437500,        0.5854492188,        0.0209960938,      -23.7274169922,        7.1563720703,      -15.6860351562
1494035466.0746519566,       -0.7036132812,        0.5854492188,        0.0209960938,      -23.7274169922,        7.1563720703,      -15.6860351562
1494035466.0772070885,       -0.7036132812,        0.5854492188,        0.0209960938,      -20.1416015625,        5.9814453125,      -12.0544433594
1494035466.0797660351,       -0.7036132812,        0.5854492188,        0.0209960938,      -20.1416015625,        5.9814453125,      -12.0544433594
1494035466.0823209286,       -0.7338867188,        0.5478515625,        0.0190429688,      -16.7388916016,        5.3405761719,       -8.3923339844
1494035466.0850129128,       -0.7338867188,        0.5478515625,        0.0190429688,      -16.7388916016,        5.3405761719,       -8.3923339844
1494035466.0875699520,       -0.7338867188,        0.5478515625,        0.0190429688,      -14.4958496094,        4.4860839844,       -5.0659179688
1494035466.0901598930,       -0.7338867188,        0.5478515625,        0.0190429688,      -14.4958496094,        4.4860839844,       -5.0659179688
1494035466.0927090645,       -0.7387695312,        0.5576171875,       -0.0151367188,      -12.7716064453,        3.7384033203,       -1.5869140625
1494035466.0954720974,       -0.7387695312,        0.5576171875,       -0.0151367188,      -12.7716064453,        3.7384033203,       -1.5869140625
1494035466.0981719494,       -0.7387695312,        0.5576171875,       -0.0151367188,      -11.3372802734,        3.1585693359,        1.8920898438
1494035466.1010169983,       -0.7387695312,        0.5576171875,       -0.0151367188,      -11.3372802734,        3.1585693359,        1.8920898438
1494035466.1037249565,       -0.7451171875,        0.5292968750,       -0.0273437500,       -9.5977783203,        2.3651123047,        5.0048828125
1494035466.1064119339,       -0.7451171875,        0.5292968750,       -0.0273437500,       -9.5977783203,        2.3651123047,        5.0048828125
1494035466.1091070175,       -0.7451171875,        0.5292968750,       -0.0273437500,       -8.9111328125,        1.9378662109,        7.5378417969
1494035466.1117970943,       -0.7451171875,        0.5292968750,       -0.0122070312,       -8.9111328125,        1.9378662109,        7.5378417969
1494035466.1144280434,       -0.8378906250,        0.5375976562,       -0.0122070312,       -9.5214843750,        0.9307861328,        9.0332031250
1494035466.1169929504,       -0.8378906250,        0.5375976562,       -0.0122070312,       -9.5214843750,        0.9307861328,        9.0332031250
1494035466.1195418835,       -0.8378906250,        0.5375976562,       -0.0122070312,      -13.1225585938,       -1.8463134766,       16.2200927734
1494035466.1221070290,       -0.8378906250,        0.7875976562,        0.0688476562,      -13.1225585938,       -1.8463134766,       16.2200927734
1494035466.1246728897,       -0.9453125000,        0.7656250000,        0.0688476562,      -13.1225585938,       -6.7749023438,       22.5982666016
1494035466.1272280216,       -0.9453125000,        0.7656250000,        0.0688476562,      -16.9219970703,       -6.7749023438,       22.5982666016
1494035466.1297919750,       -0.9453125000,        0.7656250000,        0.0688476562,      -16.9219970703,       -6.7749023438,       30.3802490234
1494035466.1323449612,       -0.9453125000,        0.6137695312,        0.0449218750,       -9.0484619141,       -3.9367675781,       30.3802490234
1494035466.1350340843,       -1.1040039062,        0.6137695312,        0.0449218750,       -9.0484619141,       -3.9367675781,       31.0821533203
1494035466.1375880241,       -1.1040039062,        0.6137695312,        0.0449218750,       -8.8043212891,       -1.3427734375,       31.0821533203
1494035466.1401400566,       -1.1040039062,        0.6137695312,        0.0449218750,       -8.8043212891,       -1.3427734375,       31.0821533203
1494035466.1426999569,       -1.1040039062,        0.3330078125,       -0.0737304688,      -11.0321044922,       -2.1362304688,       33.6456298828
1494035466.1454410553,       -1.0205078125,        0.3330078125,       -0.0737304688,      -11.0321044922,       -2.1362304688,       33.6456298828
1494035466.1481270790,       -1.0205078125,        0.3330078125,       -0.0737304688,      -12.1002197266,       -4.3945312500,       34.6527099609
1494035466.1508989334,       -1.0205078125,        0.3330078125,       -0.0737304688,      -12.1002197266,       -4.3945312500,       34.6527099609
1494035466.1535980701,       -0.8291015625,        0.0512695312,       -0.1093750000,      -14.9841308594,       -5.2337646484,       33.5845947266
1494035466.1562919617,       -0.8291015625,        0.0512695312,       -0.1093750000,      -14.9841308594,       -5.2337646484,       33.5845947266
1494035466.1589889526,       -0.8291015625,        0.0512695312,       -0.1093750000,      -15.4266357422,       -5.2490234375,       33.1420898438
1494035466.1616890430,       -0.8291015625,        0.0512695312,       -0.1093750000,      -15.4266357422,       -5.2490234375,       33.1420898438
1494035466.1643309593,       -0.7485351562,        0.2065429688,       -0.1137695312,      -12.8479003906,       -5.2795410156,       32.1502685547
1494035466.1668829918,       -0.7485351562,        0.2065429688,       -0.1137695312,      -12.8479003906,       -5.2795410156,       32.1502685547
1494035466.1694369316,       -0.7485351562,        0.2065429688,       -0.1137695312,       -8.4991455078,       -6.4239501953,       30.8380126953
1494035466.1721050739,       -0.7485351562,        0.2065429688,       -0.1137695312,       -8.4991455078,       -6.4239501953,       30.8380126953
1494035466.1747639179,       -0.7001953125,        0.3549804688,       -0.0961914062,       -3.0975341797,       -7.3242187500,       30.8074951172
1494035466.1774590015,       -0.7001953125,        0.3549804688,       -0.0961914062,       -3.0975341797,       -7.3242187500,       30.8074951172
1494035466.1801509857,       -0.7001953125,        0.3549804688,       -0.0961914062,        2.3193359375,       -7.3547363281,       31.3568115234
1494035466.1828451157,       -0.7001953125,        0.3740234375,       -0.0786132812,        2.3193359375,       -7.3547363281,       31.3568115234
1494035466.1854329109,       -0.6484375000,        0.3740234375,       -0.0786132812,        5.1727294922,       -6.7443847656,       30.6243896484
1494035466.1879858971,       -0.6484375000,        0.3740234375,       -0.0786132812,        5.1727294922,       -6.7443847656,       30.6243896484
1494035466.1905350685,       -0.6484375000,        0.3740234375,       -0.0786132812,        6.2103271484,       -6.3323974609,       29.7241210938
1494035466.1930880547,       -0.6484375000,        0.3984375000,       -0.0493164062,        6.2103271484,       -6.3323974609,       29.7241210938
1494035466.1957368851,       -0.6323242188,        0.3984375000,       -0.0493164062,        5.0659179688,       -6.6528320312,       29.9987792969
1494035466.1982910633,       -0.6323242188,        0.3984375000,       -0.0493164062,        5.0659179688,       -6.6528320312,       29.9987792969
1494035466.2008459568,       -0.6323242188,        0.3984375000,       -0.0493164062,        5.0659179688,       -7.4005126953,       30.5175781250
1494035466.2035789490,       -0.5986328125,        0.3696289062,       -0.0278320312,        2.7160644531,       -7.4005126953,       30.5175781250
1494035466.2062780857,       -0.5986328125,        0.3696289062,       -0.0278320312,        2.7160644531,       -8.2702636719,       30.6396484375
1494035466.2089738846,       -0.5986328125,        0.3696289062,       -0.0278320312,        1.5716552734,       -8.2702636719,       30.6396484375
1494035466.2116680145,       -0.5986328125,        0.3696289062,       -0.0278320312,        1.5716552734,       -8.7738037109,       30.6549072266
1494035466.2143239975,       -0.5639648438,        0.3408203125,       -0.0180664062,        0.9613037109,       -8.7738037109,       30.6549072266
1494035466.2168810368,       -0.5639648438,        0.3408203125,       -0.0180664062,        0.9613037109,       -8.7738037109,       30.4870605469
1494035466.2194359303,       -0.5639648438,        0.3408203125,       -0.0180664062,       -0.3051757812,      -10.2539062500,       30.4870605469
1494035466.2219870090,       -0.5639648438,        0.3408203125,       -0.0180664062,       -0.3051757812,      -10.2539062500,       30.5175781250
1494035466.2246708870,       -0.5629882812,        0.3081054688,       -0.0029296875,       -1.9378662109,      -11.1999511719,       30.5175781250
1494035466.2273719311,       -0.5629882812,        0.3081054688,       -0.0029296875,       -1.9378662109,      -11.1999511719,       30.5175781250
1494035466.2300748825,       -0.5629882812,        0.3081054688,       -0.0029296875,       -2.7313232422,      -11.1541748047,       30.2886962891
1494035466.2327749729,       -0.5629882812,        0.3081054688,        0.0141601562,       -2.7313232422,      -11.1541748047,       30.2886962891
1494035466.2354829311,       -0.5615234375,        0.3022460938,        0.0141601562,       -3.0975341797,      -11.7492675781,       31.0516357422
1494035466.2381830215,       -0.5615234375,        0.3022460938,        0.0141601562,       -3.0975341797,      -11.7492675781,       34.9578857422
1494035466.2408819199,       -0.5615234375,        0.3022460938,        0.0141601562,       -4.0740966797,      -12.1917724609,       31.4178466797
1494035466.2435829639,       -0.5615234375,        0.2919921875,        0.0322265625,       -4.0740966797,      -12.1917724609,       31.4178466797
1494035466.2463970184,       -0.5722656250,        0.2919921875,        0.0322265625,       -5.6762695312,      -13.1988525391,       31.8756103516
1494035466.2490980625,       -0.5722656250,        0.2919921875,        0.0322265625,       -5.6762695312,      -13.1988525391,       32.4707031250
1494035466.2518460751,       -0.5722656250,        0.2919921875,        0.0322265625,       -6.8664550781,      -13.6718750000,       32.4707031250
1494035466.2545819283,       -0.5888671875,        0.2993164062,        0.0371093750,       -6.8664550781,      -13.6718750000,       32.4707031250
1494035466.2571420670,       -0.5888671875,        0.2993164062,        0.0371093750,       -7.7972412109,      -14.0533447266,       33.5235595703
1494035466.2598159313,       -0.5888671875,        0.2993164062,        0.0371093750,       -7.7972412109,      -14.0533447266,       33.5235595703
1494035466.2627749443,       -0.5888671875,        0.2993164062,        0.0371093750,       -9.4146728516,      -14.8620605469,       34.1186523438
1494035466.2654969692,       -0.5913085938,        0.2983398438,        0.0209960938,       -9.4146728516,      -14.8620605469,       34.1186523438
1494035466.2681961060,       -0.5913085938,        0.2983398438,        0.0209960938,      -11.3067626953,      -15.6097412109,       35.0952148438
1494035466.2709009647,       -0.5913085938,        0.2983398438,        0.0209960938,      -11.3067626953,      -15.6097412109,       39.0014648438
1494035466.2736029625,       -0.5913085938,        0.2788085938,        0.0073242188,      -13.5345458984,      -15.0299072266,       35.8734130859
1494035466.2763049603,       -0.6166992188,        0.2788085938,        0.0073242188,      -13.5345458984,      -15.0299072266,       35.8734130859
1494035466.2789990902,       -0.6166992188,        0.2788085938,        0.0073242188,      -16.4031982422,      -13.9617919922,       36.2701416016
1494035466.2816960812,       -0.6166992188,        0.2788085938,        0.0073242188,      -16.4031982422,      -13.9617919922,       36.2701416016
1494035466.2844030857,       -0.6757812500,        0.2773437500,       -0.0141601562,      -17.4255371094,      -12.9852294922,       36.4837646484
1494035466.2871069908,       -0.6757812500,        0.2773437500,       -0.0141601562,      -17.4255371094,      -12.9852294922,       36.4837646484
1494035466.2898039818,       -0.6757812500,        0.2773437500,       -0.0141601562,      -18.5241699219,      -11.4135742188,       37.6739501953
1494035466.2925069332,       -0.6757812500,        0.2773437500,       -0.0141601562,      -18.5241699219,      -11.4135742188,       37.6739501953
1494035466.2951018810,       -0.6987304688,        0.2788085938,       -0.0439453125,      -21.3165283203,       -9.9639892578,       39.4134521484
1494035466.2976629734,       -0.6987304688,        0.2788085938,       -0.0439453125,      -21.3165283203,       -9.9639892578,       39.4134521484
1494035466.3002231121,       -0.6987304688,        0.2788085938,       -0.0439453125,      -21.9421386719,       -9.6588134766,       39.9169921875
1494035466.3027760983,       -0.6987304688,        0.2788085938,       -0.0439453125,      -21.9421386719,       -9.6588134766,       39.9169921875
1494035466.3054819107,       -0.7416992188,        0.3334960938,       -0.0712890625,      -18.7530517578,       -9.6893310547,       39.0014648438
1494035466.3080348969,       -0.7416992188,        0.3334960938,       -0.0712890625,      -18.7530517578,       -9.6893310547,       39.0014648438
1494035466.3105859756,       -0.7416992188,        0.3334960938,       -0.0712890625,      -14.0533447266,       -9.6130371094,       38.7725830078
1494035466.3131430149,       -0.7416992188,        0.3334960938,       -0.0712890625,      -14.0533447266,       -9.6130371094,       38.7725830078
1494035466.3159940243,       -0.7685546875,        0.4140625000,       -0.0747070312,      -10.1165771484,       -9.3078613281,       39.0777587891
1494035466.3186979294,       -0.7685546875,        0.4140625000,       -0.0747070312,      -10.1165771484,       -9.3078613281,       39.0777587891
1494035466.3215010166,       -0.7685546875,        0.4140625000,       -0.0747070312,       -8.8348388672,       -9.7656250000,       38.9862060547
1494035466.3242039680,       -0.7685546875,        0.4116210938,       -0.1054687500,       -8.8348388672,       -9.7656250000,       38.9862060547
1494035466.3269019127,       -0.7324218750,        0.4116210938,       -0.1054687500,      -10.5438232422,      -10.3607177734,       38.3758544922
1494035466.3295938969,       -0.7324218750,        0.4116210938,       -0.1054687500,      -10.5438232422,      -10.3607177734,       38.3758544922
1494035466.3322889805,       -0.7324218750,        0.4116210938,       -0.1054687500,      -11.6882324219,      -10.7269287109,       37.4603271484
1494035466.3349950314,       -0.7436523438,        0.4321289062,       -0.0795898438,      -11.6882324219,      -10.7269287109,       37.4603271484
1494035466.3376901150,       -0.7436523438,        0.4321289062,       -0.0795898438,      -11.7034912109,      -10.5895996094,       36.9415283203
1494035466.3403909206,       -0.7436523438,        0.4321289062,       -0.0795898438,      -11.7034912109,      -10.5895996094,       36.9415283203
1494035466.3430891037,       -0.7436523438,        0.4321289062,       -0.0795898438,      -11.4746093750,      -10.4370117188,       36.9415283203
1494035466.3456609249,       -0.6367187500,        0.4296875000,       -0.0693359375,      -11.4746093750,      -10.4370117188,       36.9415283203
1494035466.3482220173,       -0.6367187500,        0.4296875000,       -0.0693359375,      -10.7574462891,      -10.9710693359,       36.5295410156
1494035466.3507781029,       -0.6367187500,        0.4296875000,       -0.0693359375,      -10.7574462891,      -10.9710693359,       36.5295410156
1494035466.3533499241,       -0.6367187500,        0.4296875000,       -0.0693359375,      -10.7574462891,      -12.5732421875,       35.2783203125
1494035466.3560540676,       -0.5351562500,        0.4111328125,       -0.0458984375,      -10.1470947266,      -12.5732421875,       35.2783203125
1494035466.3587529659,       -0.5351562500,        0.4111328125,       -0.0458984375,      -10.1470947266,      -13.9007568359,       32.7911376953
1494035466.3614580631,       -0.5351562500,        0.4111328125,       -0.0458984375,       -9.1400146484,      -13.9007568359,       32.7911376953
1494035466.3641650677,       -0.5351562500,        0.4111328125,        0.0034179688,       -9.1400146484,      -14.8773193359,       30.1971435547
1494035466.3668611050,       -0.5258789062,        0.4472656250,        0.0034179688,       -9.2620849609,      -14.8773193359,       30.1971435547
1494035466.3697659969,       -0.5258789062,        0.4472656250,        0.0034179688,       -9.2620849609,      -16.0522460938,       27.6641845703
1494035466.3724598885,       -0.5258789062,        0.4472656250,        0.0034179688,       -8.7585449219,      -16.0522460938,       27.6641845703
1494035466.3753640652,       -0.5024414062,        0.4194335938,       -0.0068359375,       -9.7045898438,      -17.2271728516,       25.8026123047
1494035466.3780651093,       -0.5024414062,        0.4194335938,       -0.0068359375,       -9.7045898438,      -17.2271728516,       25.8026123047
1494035466.3807590008,       -0.5024414062,        0.4194335938,       -0.0068359375,      -10.8795166016,      -17.0288085938,       24.0631103516
1494035466.3834650517,       -0.5024414062,        0.4194335938,       -0.0068359375,      -10.8795166016,      -17.0288085938,       24.0631103516
1494035466.3860280514,       -0.5156250000,        0.3798828125,       -0.0375976562,      -14.7857666016,      -16.5100097656,       22.9949951172
1494035466.3885869980,       -0.5156250000,        0.3798828125,       -0.0375976562,      -13.7023925781,      -16.5100097656,       22.9949951172
1494035466.3911459446,       -0.5156250000,        0.3798828125,       -0.0375976562,      -13.7023925781,      -16.5100097656,       21.8963623047
1494035466.3941791058,       -0.5156250000,        0.3798828125,        0.0874023438,      -15.3656005859,      -16.4642333984,       21.8963623047
1494035466.3979411125,       -0.6020507812,        0.4174804688,        0.0043945312,      -15.5792236328,      -16.0675048828,       20.4620361328
1494035466.4006450176,       -0.6020507812,        0.4174804688,        0.0043945312,      -15.5792236328,      -16.0675048828,       20.4620361328
1494035466.4033410549,       -0.6020507812,        0.4174804688,        0.0043945312,      -15.4418945312,      -16.9067382812,       18.8598632812
1494035466.4059050083,       -0.6992187500,        0.4003906250,        0.0156250000,      -15.4418945312,      -16.9067382812,       18.8598632812
1494035466.4084689617,       -0.6992187500,        0.4003906250,        0.0156250000,      -14.3432617188,      -18.9971923828,       17.0135498047
1494035466.4110369682,       -0.6992187500,        0.4003906250,        0.0156250000,      -14.3432617188,      -18.9971923828,       17.0135498047
1494035466.4136660099,       -0.6992187500,        0.4003906250,        0.0156250000,      -13.0767822266,      -20.0042724609,       16.6625976562
1494035466.4163661003,       -0.7485351562,        0.3701171875,        0.0429687500,      -13.0767822266,      -20.0042724609,       16.6625976562
1494035466.4190680981,       -0.7485351562,        0.3701171875,        0.0429687500,      -13.7023925781,      -20.7824707031,       16.1132812500
1494035466.4217660427,       -0.7485351562,        0.3701171875,        0.0429687500,      -13.7023925781,      -20.7824707031,       16.1132812500
1494035466.4244771004,       -0.7485351562,        0.3701171875,        0.0454101562,      -13.0767822266,      -21.4691162109,       15.5029296875
1494035466.4271790981,       -0.7338867188,        0.3798828125,        0.0454101562,      -13.0767822266,      -21.4691162109,       15.5029296875
1494035466.4298820496,       -0.7338867188,        0.3798828125,        0.0454101562,      -13.7023925781,      -21.2554931641,       14.0686035156
1494035466.4325859547,       -0.7338867188,        0.3798828125,        0.0454101562,      -13.7023925781,      -21.2554931641,       14.0686035156
1494035466.4351930618,       -0.7338867188,        0.4555664062,        0.0410156250,      -14.3585205078,      -21.0876464844,       12.9547119141
1494035466.4377570152,       -0.6533203125,        0.4555664062,        0.0410156250,      -14.3585205078,      -21.0876464844,       12.9547119141
1494035466.4403278828,       -0.6533203125,        0.4555664062,        0.0410156250,      -14.3585205078,      -20.4162597656,       11.1236572266
1494035466.4428930283,       -0.6533203125,        0.4555664062,        0.0410156250,      -13.1378173828,      -20.4162597656,       11.1236572266
1494035466.4456648827,       -0.5781250000,        0.4755859375,        0.0449218750,      -13.1378173828,      -20.4162597656,        9.5062255859
1494035466.4482209682,       -0.5781250000,        0.4755859375,        0.0449218750,      -11.9628906250,      -20.0805664062,        9.5062255859
1494035466.4507761002,       -0.5781250000,        0.4755859375,        0.0449218750,      -11.9628906250,      -20.0805664062,        8.0413818359
1494035466.4535000324,       -0.5781250000,        0.4755859375,        0.0449218750,      -12.3596191406,      -19.1345214844,        8.0413818359
1494035466.4561970234,       -0.5810546875,        0.4335937500,        0.0507812500,      -12.3596191406,      -19.1345214844,        6.5155029297
1494035466.4588940144,       -0.5810546875,        0.4335937500,        0.0507812500,      -13.0615234375,      -17.4560546875,        6.5155029297
1494035466.4615969658,       -0.5810546875,        0.4335937500,        0.0507812500,      -13.0615234375,      -17.4560546875,        5.1116943359
1494035466.4643070698,       -0.5810546875,        0.4335937500,        0.0507812500,      -11.7797851562,      -16.6320800781,        5.1116943359
1494035466.4670069218,       -0.6171875000,        0.4067382812,        0.0756835938,      -11.7797851562,      -16.6320800781,        3.7994384766
1494035466.4698190689,       -0.6171875000,        0.4067382812,        0.0756835938,      -11.3220214844,      -16.1437988281,        3.7994384766
1494035466.4725139141,       -0.6171875000,        0.4067382812,        0.0756835938,      -11.3220214844,      -16.1437988281,        2.3651123047
1494035466.4752190113,       -0.6171875000,        0.4067382812,        0.0561523438,      -11.3983154297,      -15.5792236328,        2.3651123047
1494035466.4779129028,       -0.6186523438,        0.4267578125,        0.0561523438,      -11.3983154297,      -15.5792236328,        0.9918212891
1494035466.4806089401,       -0.6186523438,        0.4267578125,        0.0561523438,      -10.7879638672,      -14.9688720703,        0.9918212891
1494035466.4833159447,       -0.6186523438,        0.4267578125,        0.0561523438,      -10.7879638672,      -14.9688720703,       -2.9144287109
1494035466.4858670235,       -0.6186523438,        0.4716796875,        0.0034179688,      -10.5590820312,      -13.9465332031,       -0.5493164062
1494035466.4884290695,       -0.6049804688,        0.4716796875,        0.0034179688,      -10.5590820312,      -13.9465332031,       -0.5493164062
1494035466.4909889698,       -0.6049804688,        0.4716796875,        0.0034179688,      -11.1846923828,      -12.6495361328,       -2.4871826172
1494035466.4936509132,       -0.6049804688,        0.4716796875,        0.0034179688,      -11.1846923828,      -12.6495361328,       -2.4871826172
1494035466.4962310791,       -0.6137695312,        0.4726562500,       -0.0009765625,      -13.3666992188,      -11.5356445312,       -6.2561035156
1494035466.4987928867,       -0.6137695312,        0.4726562500,       -0.0009765625,      -13.3666992188,      -11.5356445312,       -6.2561035156
1494035466.5013499260,       -0.6137695312,        0.4726562500,       -0.0009765625,      -15.7928466797,      -11.1846923828,       -7.5988769531
1494035466.5040349960,       -0.6137695312,        0.4726562500,       -0.0009765625,      -15.7928466797,      -11.1846923828,       -7.5988769531
1494035466.5066969395,       -0.6523437500,        0.3828125000,        0.0209960938,      -18.9514160156,      -10.1928710938,       -7.0800781250
1494035466.5094070435,       -0.6523437500,        0.3828125000,        0.0209960938,      -18.9514160156,      -10.1928710938,       -7.0800781250
1494035466.5121159554,       -0.6523437500,        0.3828125000,        0.0209960938,      -21.8353271484,       -7.4768066406,       -7.0343017578
1494035466.5148150921,       -0.6523437500,        0.3828125000,        0.0209960938,      -21.8353271484,       -7.4768066406,       -7.0343017578
1494035466.5175070763,       -0.6362304688,        0.4062500000,        0.1064453125,      -22.8729248047,       -6.4086914062,       -7.4920654297
1494035466.5202009678,       -0.6362304688,        0.4062500000,        0.1064453125,      -22.8729248047,       -6.4086914062,       -7.4920654297
1494035466.5228910446,       -0.6362304688,        0.4062500000,        0.1064453125,      -20.5688476562,       -6.4849853516,       -8.8806152344
1494035466.5255949497,       -0.6362304688,        0.4062500000,        0.0991210938,      -20.5688476562,       -6.4849853516,       -8.8806152344
1494035466.5282850266,       -0.6171875000,        0.4375000000,        0.0991210938,      -17.4407958984,       -6.1492919922,      -10.4522705078
1494035466.5309820175,       -0.6171875000,        0.4375000000,        0.0991210938,      -17.4407958984,       -6.1492919922,      -10.4522705078
1494035466.5336909294,       -0.6171875000,        0.4375000000,        0.0991210938,      -14.5263671875,       -5.0964355469,      -11.6729736328
1494035466.5363919735,       -0.7421875000,        0.4121093750,        0.0136718750,      -14.5263671875,       -5.0964355469,      -11.6729736328
1494035466.5390880108,       -0.6684570312,        0.4121093750,        0.0136718750,      -11.8255615234,       -5.3558349609,      -12.2985839844
1494035466.5417850018,       -0.6684570312,        0.4121093750,        0.0136718750,      -11.8255615234,       -5.3558349609,      -12.2985839844
1494035466.5445470810,       -0.6684570312,        0.4121093750,        0.0136718750,      -10.7421875000,       -5.5847167969,      -12.1459960938
1494035466.5471079350,       -0.6533203125,        0.4204101562,       -0.0004882812,      -10.7421875000,       -5.5847167969,      -12.1459960938
1494035466.5496659279,       -0.6533203125,        0.4204101562,       -0.0004882812,      -11.3220214844,       -5.5847167969,      -12.6037597656
1494035466.5522289276,       -0.6533203125,        0.4204101562,       -0.0004882812,      -11.3220214844,       -5.5847167969,      -12.6037597656
1494035466.5549230576,       -0.6533203125,        0.4204101562,       -0.0004882812,      -11.0931396484,       -5.4168701172,      -13.3972167969
1494035466.5574760437,       -0.6381835938,        0.4428710938,        0.0249023438,      -11.0931396484,       -5.4168701172,      -13.3972167969
1494035466.5600368977,       -0.6381835938,        0.4428710938,        0.0249023438,      -11.0931396484,       -6.1340332031,      -14.3432617188
1494035466.5625920296,       -0.6381835938,        0.4428710938,        0.0249023438,      -10.7421875000,       -6.1340332031,      -14.3432617188
1494035466.5653951168,       -0.6381835938,        0.4428710938,        0.0249023438,      -10.7421875000,       -6.9427490234,      -14.8620605469
1494035466.5680890083,       -0.6367187500,        0.4082031250,        0.0395507812,       -9.1247558594,       -6.9427490234,      -14.8620605469
1494035466.5707859993,       -0.6367187500,        0.4082031250,        0.0395507812,       -9.1247558594,      -10.8489990234,      -15.9759521484
1494035466.5734949112,       -0.6367187500,        0.4082031250,        0.0395507812,       -7.3852539062,       -8.1481933594,      -15.9759521484
1494035466.5761868954,       -0.6367187500,        0.4082031250,        0.0585937500,       -7.3852539062,       -8.1481933594,      -16.9219970703
1494035466.5788769722,       -0.6201171875,        0.4262695312,        0.0585937500,       -6.4392089844,       -9.0942382812,      -16.9219970703
1494035466.5815730095,       -0.6201171875,        0.4262695312,        0.0585937500,       -6.4392089844,       -9.0942382812,      -19.6990966797
1494035466.5842249393,       -0.6201171875,        0.4262695312,        0.0585937500,       -8.4381103516,       -9.4299316406,      -19.6990966797
1494035466.5867810249,       -0.7451171875,        0.4106445312,        0.0937500000,       -8.4381103516,       -9.4299316406,      -24.2309570312
1494035466.5893390179,       -0.6264648438,        0.4106445312,        0.0937500000,      -16.3879394531,       -9.5062255859,      -24.2309570312
1494035466.5918989182,       -0.6264648438,        0.4106445312,        0.0937500000,      -16.3879394531,       -9.5062255859,      -24.2309570312
1494035466.5945250988,       -0.6264648438,        0.4106445312,        0.0937500000,      -20.4467773438,      -10.3759765625,      -26.8249511719
1494035466.5972080231,       -0.6269531250,        0.4096679688,        0.0366210938,      -20.4467773438,      -10.3759765625,      -26.8249511719
1494035466.6000289917,       -0.6269531250,        0.4096679688,        0.0366210938,      -18.3258056641,      -11.6882324219,      -27.3284912109
1494035466.6025960445,       -0.6269531250,        0.4096679688,        0.0366210938,      -18.3258056641,      -11.6882324219,      -27.3284912109
1494035466.6054100990,       -0.6269531250,        0.4096679688,        0.0366210938,      -14.6789550781,      -12.0849609375,      -28.7170410156
1494035466.6080729961,       -0.6674804688,        0.3876953125,        0.0458984375,      -14.6789550781,      -12.0849609375,      -28.7170410156
1494035466.6109020710,       -0.6674804688,        0.3876953125,        0.0458984375,      -11.5814208984,      -12.8173828125,      -29.3884277344
1494035466.6139459610,       -0.6674804688,        0.3876953125,        0.0458984375,      -11.5814208984,      -12.8173828125,      -29.7088623047
1494035466.6167480946,       -0.6674804688,        0.3940429688,        0.0693359375,       -9.6130371094,      -13.1988525391,      -29.7088623047
1494035466.6194260120,       -0.6728515625,        0.3940429688,        0.0693359375,       -9.6130371094,      -13.1988525391,      -30.6701660156
1494035466.6221010685,       -0.6728515625,        0.3940429688,        0.0693359375,       -7.8125000000,      -13.9465332031,      -30.6701660156
1494035466.6247830391,       -0.6728515625,        0.3940429688,        0.0693359375,       -7.8125000000,      -13.9465332031,      -31.5856933594
1494035466.6274609566,       -0.6801757812,        0.4057617188,        0.0625000000,       -4.3945312500,      -14.4653320312,      -31.5856933594
1494035466.6301450729,       -0.6801757812,        0.4057617188,        0.0625000000,       -4.3945312500,      -14.4653320312,      -27.6794433594
1494035466.6328179836,       -0.6801757812,        0.4057617188,        0.0625000000,       -0.9765625000,      -15.0756835938,      -31.1889648438
1494035466.6354029179,       -0.6801757812,        0.4057617188,        0.0625000000,       -0.9765625000,      -15.0756835938,      -31.1889648438
1494035466.6379659176,       -0.6420898438,        0.4082031250,        0.0571289062,        1.4648437500,      -15.7318115234,      -31.3415527344
1494035466.6405229568,       -0.6420898438,        0.4082031250,        0.0571289062,        1.4648437500,      -15.7318115234,      -31.3415527344
1494035466.6430759430,       -0.6420898438,        0.4082031250,        0.0571289062,        3.5705566406,      -15.9912109375,      -31.7382812500
1494035466.6457359791,       -0.6420898438,        0.4082031250,        0.0571289062,        3.5705566406,      -15.9912109375,      -31.7382812500
1494035466.6482920647,       -0.6201171875,        0.4199218750,        0.0883789062,        6.5917968750,      -16.6473388672,      -32.3791503906
1494035466.6508529186,       -0.6201171875,        0.4199218750,        0.0883789062,        6.5917968750,      -16.6473388672,      -32.3791503906
1494035466.6534550190,       -0.6201171875,        0.4199218750,        0.0883789062,        9.1094970703,      -16.9982910156,      -33.1115722656
1494035466.6560060978,       -0.6201171875,        0.4199218750,        0.0883789062,        9.1094970703,      -16.9982910156,      -33.1115722656
1494035466.6585669518,       -0.6293945312,        0.3979492188,        0.0986328125,       11.2152099609,      -17.4255371094,      -34.6374511719
1494035466.6611280441,       -0.6293945312,        0.3979492188,        0.0986328125,       11.2152099609,      -17.4255371094,      -34.6374511719
1494035466.6638019085,       -0.6293945312,        0.3979492188,        0.0986328125,       12.5122070312,      -17.5933837891,      -35.4766845703
1494035466.6663661003,       -0.6293945312,        0.3979492188,        0.0986328125,       12.5122070312,      -17.5933837891,      -35.4766845703
1494035466.6689300537,       -0.6494140625,        0.3774414062,        0.0722656250,       12.5122070312,      -17.6849365234,      -35.5377197266
1494035466.6714920998,       -0.6494140625,        0.3774414062,        0.0722656250,       14.1143798828,      -17.6849365234,      -35.5377197266
1494035466.6742150784,       -0.6494140625,        0.3774414062,        0.0722656250,       14.1143798828,      -17.6849365234,      -35.5987548828
1494035466.6769158840,       -0.6494140625,        0.3774414062,        0.0629882812,       15.2740478516,      -17.8985595703,      -35.5987548828
1494035466.6796228886,       -0.6499023438,        0.3554687500,        0.0629882812,       15.2740478516,      -17.8985595703,      -36.2548828125
1494035466.6823220253,       -0.6499023438,        0.3554687500,        0.0629882812,       14.9078369141,      -17.6696777344,      -36.2548828125
1494035466.6850669384,       -0.6499023438,        0.3554687500,        0.0629882812,       14.9078369141,      -17.6696777344,      -37.0788574219
1494035466.6877679825,       -0.6499023438,        0.3969726562,        0.0439453125,       15.6555175781,      -16.9830322266,      -37.0788574219
1494035466.6905839443,       -0.6430664062,        0.3969726562,        0.0439453125,       15.6555175781,      -16.9830322266,      -36.8804931641
1494035466.6932959557,       -0.6430664062,        0.3969726562,        0.0439453125,       15.1672363281,      -16.1132812500,      -36.8804931641
1494035466.6960000992,       -0.6430664062,        0.3969726562,        0.0439453125,       15.1672363281,      -12.2070312500,      -36.4532470703
1494035466.6986908913,       -0.6137695312,        0.4013671875,        0.0292968750,       14.1754150391,      -15.4571533203,      -36.4532470703
1494035466.7013919353,       -0.6137695312,        0.4013671875,        0.0292968750,       14.1754150391,      -15.4571533203,      -36.3311767578
1494035466.7040970325,       -0.6137695312,        0.4013671875,        0.0292968750,       14.0686035156,      -13.9312744141,      -36.3311767578
1494035466.7067930698,       -0.6137695312,        0.4013671875,        0.0292968750,       14.0686035156,      -13.9312744141,      -36.1175537109
1494035466.7094929218,       -0.5932617188,        0.3974609375,        0.0551757812,       13.9770507812,      -12.1459960938,      -36.1175537109
1494035466.7121911049,       -0.5932617188,        0.3974609375,        0.0551757812,       13.9770507812,       -8.2397460938,      -35.9954833984
1494035466.7149069309,       -0.5932617188,        0.3974609375,        0.0551757812,       13.4735107422,      -10.8337402344,      -35.9954833984
1494035466.7176089287,       -0.5932617188,        0.3613281250,        0.0839843750,       13.4735107422,      -10.8337402344,      -35.3393554688
1494035466.7203121185,       -0.6118164062,        0.3613281250,        0.0839843750,       13.2751464844,       -8.8958740234,      -35.3393554688
1494035466.7230119705,       -0.6118164062,        0.3613281250,        0.0839843750,       13.2751464844,       -8.8958740234,      -34.7290039062
1494035466.7257208824,       -0.6118164062,        0.3613281250,        0.0839843750,       13.5955810547,       -7.4462890625,      -34.7290039062
1494035466.7284150124,       -0.6552734375,        0.3334960938,        0.1103515625,       13.5955810547,       -7.4462890625,      -33.9813232422
1494035466.7312490940,       -0.6552734375,        0.3334960938,        0.1103515625,       14.0380859375,       -5.7373046875,      -33.9813232422
1494035466.7343459129,       -0.6552734375,        0.3334960938,        0.1103515625,       14.0380859375,       -3.7841796875,      -33.0200195312
1494035466.7369101048,       -0.6552734375,        0.3334960938,        0.1103515625,       13.4887695312,       -3.7841796875,      -33.0200195312
1494035466.7394669056,       -0.7099609375,        0.2836914062,        0.1323242188,       13.4887695312,       -3.7841796875,      -31.9976806641
1494035466.7420198917,       -0.7099609375,        0.2836914062,        0.1323242188,       13.4735107422,       -1.9836425781,      -31.9976806641
1494035466.7446949482,       -0.7099609375,        0.2836914062,        0.1323242188,       13.4735107422,       -1.9836425781,      -30.7617187500
1494035466.7473940849,       -0.7099609375,        0.2836914062,        0.1323242188,       14.1143798828,       -1.0223388672,      -30.7617187500
1494035466.7500948906,       -0.7275390625,        0.2983398438,        0.1337890625,       14.1143798828,       -1.0223388672,      -29.6173095703
1494035466.7527890205,       -0.7275390625,        0.2983398438,        0.1337890625,       15.2587890625,       -1.0070800781,      -29.6173095703
1494035466.7554979324,       -0.7275390625,        0.2983398438,        0.1337890625,       15.2587890625,       -1.0070800781,      -28.7170410156
1494035466.7581989765,       -0.7275390625,        0.3173828125,        0.1049804688,       17.5781250000,       -0.6103515625,      -28.7170410156
1494035466.7608981133,       -0.7021484375,        0.3173828125,        0.1049804688,       17.5781250000,       -0.6103515625,      -27.2064208984
1494035466.7635819912,       -0.7021484375,        0.3173828125,        0.1049804688,       18.7988281250,        0.1220703125,      -27.2064208984
1494035466.7662549019,       -0.7021484375,        0.3173828125,        0.1049804688,       18.7988281250,        0.1220703125,      -27.2064208984
1494035466.7688119411,       -0.6542968750,        0.3105468750,        0.0795898438,       17.9748535156,        0.4577636719,      -26.4739990234
1494035466.7713739872,       -0.6542968750,        0.3105468750,        0.0795898438,       17.9748535156,        0.4577636719,      -26.4739990234
1494035466.7739350796,       -0.6542968750,        0.3105468750,        0.0795898438,       17.9901123047,        0.2899169922,      -26.9927978516
1494035466.7764980793,       -0.6542968750,        0.3105468750,        0.0795898438,       17.9901123047,        0.2899169922,      -26.9927978516
1494035466.7790539265,       -0.6230468750,        0.3442382812,        0.0957031250,       18.5852050781,        0.1373291016,      -26.7944335938
1494035466.7816100121,       -0.6230468750,        0.3442382812,        0.0957031250,       18.5852050781,        0.1373291016,      -26.7944335938
1494035466.7843449116,       -0.6230468750,        0.3442382812,        0.0957031250,       20.7977294922,        0.0762939453,      -26.9165039062
1494035466.7869091034,       -0.6230468750,        0.3442382812,        0.0957031250,       20.7977294922,        0.0762939453,      -26.9165039062
1494035466.7894699574,       -0.6279296875,        0.3320312500,        0.0903320312,       22.6745605469,       -0.8087158203,      -26.7486572266
1494035466.7920351028,       -0.6279296875,        0.3320312500,        0.0903320312,       22.6745605469,       -0.8087158203,      -26.7486572266
1494035466.7948279381,       -0.6279296875,        0.3320312500,        0.0903320312,       23.6968994141,       -1.7700195312,      -26.7333984375
1494035466.7975258827,       -0.6279296875,        0.3320312500,        0.0903320312,       23.6968994141,       -1.7700195312,      -26.7333984375
1494035466.8002290726,       -0.6440429688,        0.3032226562,        0.0878906250,       25.2685546875,       -1.8310546875,      -27.1606445312
1494035466.8029270172,       -0.6440429688,        0.3032226562,        0.0878906250,       25.2685546875,       -1.8310546875,      -27.1606445312
1494035466.8056631088,       -0.6440429688,        0.3032226562,        0.0878906250,       24.0936279297,       -1.2207031250,      -27.7557373047
1494035466.8083660603,       -0.6440429688,        0.3032226562,        0.0615234375,       24.0936279297,       -1.2207031250,      -27.7557373047
1494035466.8110620975,       -0.6674804688,        0.3017578125,        0.0615234375,       22.6287841797,       -0.7629394531,      -27.8778076172
1494035466.8137750626,       -0.6674804688,        0.3017578125,        0.0615234375,       22.6287841797,       -0.7629394531,      -27.8778076172
1494035466.8164689541,       -0.6674804688,        0.3017578125,        0.0615234375,       22.2473144531,       -0.7019042969,      -27.5878906250
1494035466.8191659451,       -0.6513671875,        0.3232421875,        0.0415039062,       22.2473144531,       -0.7019042969,      -27.5878906250
1494035466.8218650818,       -0.6513671875,        0.3232421875,        0.0415039062,       20.7366943359,       -0.4119873047,      -27.1606445312
1494035466.8245730400,       -0.6513671875,        0.3232421875,        0.0415039062,       20.7366943359,       -0.4119873047,      -27.1606445312
1494035466.8272709846,       -0.6513671875,        0.3232421875,        0.0415039062,       20.4925537109,        0.0915527344,      -27.0233154297
1494035466.8299729824,       -0.6748046875,        0.3012695312,        0.0327148438,       20.4925537109,        0.0915527344,      -27.0233154297
1494035466.8326740265,       -0.6748046875,        0.3012695312,        0.0327148438,       20.2484130859,        0.3814697266,      -26.0467529297
1494035466.8352808952,       -0.6748046875,        0.3012695312,        0.0327148438,       20.2484130859,        0.3814697266,      -26.0467529297
1494035466.8379480839,       -0.6748046875,        0.3012695312,        0.0327148438,       16.3421630859,        0.8697509766,      -24.4903564453
1494035466.8405039310,       -0.6962890625,        0.2744140625,        0.0239257812,       18.5852050781,        0.8697509766,      -24.4903564453
1494035466.8430619240,       -0.6962890625,        0.2744140625,        0.0239257812,       18.5852050781,        0.8697509766,      -23.1628417969
1494035466.8456211090,       -0.6962890625,        0.2744140625,        0.0239257812,       17.6239013672,        1.5411376953,      -23.1628417969
1494035466.8481678963,       -0.6962890625,        0.2744140625,        0.0590820312,       17.6239013672,        1.5411376953,      -21.9116210938
1494035466.8509941101,       -0.7202148438,        0.2783203125,        0.0590820312,       16.9067382812,        2.0446777344,      -21.9116210938
1494035466.8538970947,       -0.7202148438,        0.2783203125,        0.0590820312,       16.9067382812,        2.3651123047,      -20.5383300781
1494035466.8566069603,       -0.7202148438,        0.2783203125,        0.0590820312,       14.8315429688,        2.3651123047,      -20.5383300781
1494035466.8593060970,       -0.7202148438,        0.2626953125,        0.0673828125,       14.8315429688,        2.3651123047,      -19.7296142578
1494035466.8620059490,       -0.6938476562,        0.2626953125,        0.0673828125,       13.0615234375,        2.4261474609,      -19.7296142578
1494035466.8647139072,       -0.6938476562,        0.2626953125,        0.0673828125,       13.0615234375,        2.4261474609,      -19.6533203125
1494035466.8674108982,       -0.6938476562,        0.2626953125,        0.0673828125,       12.6953125000,        1.9683837891,      -19.6533203125
1494035466.8701109886,       -0.6494140625,        0.2895507812,        0.0810546875,       12.6953125000,        1.9683837891,      -19.5007324219
1494035466.8728089333,       -0.6494140625,        0.2895507812,        0.0810546875,       13.1988525391,        1.1138916016,      -19.5007324219
1494035466.8755109310,       -0.6494140625,        0.2895507812,        0.0810546875,       13.1988525391,        1.1138916016,      -18.9666748047
1494035466.8782129288,       -0.6494140625,        0.2895507812,        0.0810546875,       14.4042968750,        0.5645751953,      -18.9666748047
1494035466.8809070587,       -0.6391601562,        0.3403320312,        0.0737304688,       14.4042968750,        0.5645751953,      -19.5922851562
1494035466.8835899830,       -0.6391601562,        0.3403320312,        0.0737304688,       16.1285400391,        0.3356933594,      -19.5922851562
1494035466.8861439228,       -0.6391601562,        0.3403320312,        0.0737304688,       16.1285400391,        0.3356933594,      -20.2636718750
1494035466.8886969090,       -0.6391601562,        0.3403320312,        0.0737304688,       18.0511474609,       -0.3204345703,      -20.2636718750
1494035466.8912570477,       -0.6088867188,        0.3203125000,        0.0751953125,       18.0511474609,       -0.3204345703,      -20.2636718750
1494035466.8938560486,       -0.6088867188,        0.3203125000,        0.0751953125,       19.7296142578,       -1.1596679688,      -19.9279785156
1494035466.8964118958,       -0.6088867188,        0.3203125000,        0.0751953125,       19.7296142578,       -1.1596679688,      -19.9279785156
1494035466.8989689350,       -0.6088867188,        0.3203125000,        0.0615234375,       21.8658447266,       -1.7242431641,      -19.9737548828
1494035466.9015169144,       -0.6186523438,        0.3105468750,        0.0615234375,       21.8658447266,       -1.7242431641,      -19.9737548828
1494035466.9042129517,       -0.6186523438,        0.3105468750,        0.0615234375,       22.9797363281,       -1.6479492188,      -20.4467773438
1494035466.9067759514,       -0.6186523438,        0.3105468750,        0.0615234375,       22.9797363281,       -1.6479492188,      -20.4467773438
1494035466.9093339443,       -0.6186523438,        0.3105468750,        0.0498046875,       23.2391357422,       -0.8850097656,      -20.4162597656
1494035466.9120109081,       -0.6791992188,        0.2739257812,        0.0498046875,       23.2391357422,       -0.8850097656,      -20.4162597656
1494035466.9148008823,       -0.6791992188,        0.2739257812,        0.0498046875,       22.7508544922,        0.0305175781,      -19.7448730469
1494035466.9175031185,       -0.6791992188,        0.2739257812,        0.0498046875,       22.7508544922,        0.0305175781,      -19.7448730469
1494035466.9202029705,       -0.7084960938,        0.2573242188,        0.0512695312,       21.8353271484,        0.3356933594,      -18.8446044922
1494035466.9228980541,       -0.7084960938,        0.2573242188,        0.0512695312,       21.8353271484,        0.3356933594,      -18.8446044922
1494035466.9256010056,       -0.7084960938,        0.2573242188,        0.0512695312,       20.2941894531,        0.9155273438,      -17.9901123047
1494035466.9282970428,       -0.7084960938,        0.2573242188,        0.0512695312,       20.2941894531,        0.9155273438,      -17.9901123047
1494035466.9309949875,       -0.7192382812,        0.2558593750,        0.0571289062,       18.3715820312,        1.4953613281,      -16.7541503906
1494035466.9337110519,       -0.7192382812,        0.2558593750,        0.0571289062,       18.3715820312,        1.4953613281,      -16.7541503906
1494035466.9364058971,       -0.7192382812,        0.2558593750,        0.0571289062,       16.7083740234,        2.3956298828,      -16.8304443359
1494035466.9391059875,       -0.7192382812,        0.2558593750,        0.0571289062,       16.7083740234,        2.3956298828,      -16.8304443359
1494035466.9418060780,       -0.7148437500,        0.2768554688,        0.0322265625,       15.2587890625,        3.0059814453,      -17.1966552734
1494035466.9444549084,       -0.7148437500,        0.2768554688,        0.0322265625,       15.2587890625,        3.0059814453,      -17.1966552734
1494035466.9470179081,       -0.7148437500,        0.2768554688,        0.0322265625,       14.5416259766,        3.3874511719,      -17.2576904297
1494035466.9495708942,       -0.7148437500,        0.2768554688,        0.0605468750,       14.5416259766,        3.3874511719,      -17.2576904297
1494035466.9521219730,       -0.6914062500,        0.3173828125,        0.0605468750,       18.4478759766,        3.1280517578,      -16.8304443359
1494035466.9548110962,       -0.6914062500,        0.3173828125,        0.0605468750,       16.4794921875,        3.1280517578,      -16.8304443359
1494035466.9573700428,       -0.6914062500,        0.3173828125,        0.0605468750,       16.4794921875,        3.1280517578,      -16.0827636719
1494035466.9599289894,       -0.6914062500,        0.3037109375,        0.0483398438,       19.3023681641,        2.2583007812,      -16.0827636719
1494035466.9624900818,       -0.6635742188,        0.3037109375,        0.0483398438,       19.3023681641,        2.2583007812,      -15.9149169922
1494035466.9652099609,       -0.6635742188,        0.3037109375,        0.0483398438,       21.3775634766,        1.0223388672,      -15.9149169922
1494035466.9678781033,       -0.6635742188,        0.3037109375,        0.0483398438,       21.3775634766,        1.0223388672,      -15.2435302734
1494035466.9708158970,       -0.6733398438,        0.3071289062,        0.0297851562,       23.1475830078,        0.7781982422,      -15.2435302734
1494035466.9738869667,       -0.6733398438,        0.3071289062,        0.0297851562,       27.0538330078,        0.5493164062,      -15.3198242188
1494035466.9764521122,       -0.6733398438,        0.3071289062,        0.0297851562,       24.7192382812,        0.5493164062,      -15.3198242188
1494035466.9790079594,       -0.6733398438,        0.3071289062,        0.0297851562,       24.7192382812,        0.5493164062,      -15.4571533203
1494035466.9815740585,       -0.7099609375,        0.2753906250,        0.0039062500,       25.2075195312,        1.2207031250,      -15.4571533203
1494035466.9841721058,       -0.7099609375,        0.2753906250,        0.0039062500,       25.2075195312,        1.2207031250,      -14.6484375000
1494035466.9869639874,       -0.7099609375,        0.2753906250,        0.0039062500,       24.4750976562,        1.4190673828,      -14.6484375000
1494035466.9898920059,       -0.7099609375,        0.2753906250,       -0.0058593750,       24.4750976562,        1.4190673828,      -13.5192871094
1494035466.9925909042,       -0.7578125000,        0.2158203125,       -0.0058593750,       22.8118896484,        2.6855468750,      -13.5192871094
1494035466.9952969551,       -0.7578125000,        0.2158203125,       -0.0058593750,       22.8118896484,        2.6855468750,      -12.3596191406
1494035466.9979970455,       -0.7578125000,        0.2158203125,       -0.0058593750,       19.8211669922,        3.5858154297,      -12.3596191406
1494035467.0006968975,       -0.7578125000,        0.2373046875,        0.0058593750,       19.8211669922,        7.4920654297,      -11.3830566406
1494035467.0034589767,       -0.7563476562,        0.2373046875,        0.0058593750,       16.8457031250,        4.2572021484,      -11.3830566406
1494035467.0060169697,       -0.7563476562,        0.2373046875,        0.0058593750,       16.8457031250,        4.2572021484,      -10.6811523438
1494035467.0085721016,       -0.7563476562,        0.2373046875,        0.0058593750,       15.5944824219,        3.6926269531,      -10.6811523438
1494035467.0111320019,       -0.7138671875,        0.2939453125,        0.0390625000,       15.5944824219,        3.6926269531,      -10.6811523438
1494035467.0136969090,       -0.7138671875,        0.2939453125,        0.0390625000,       16.8914794922,        2.7618408203,      -10.4064941406
1494035467.0162539482,       -0.7138671875,        0.2939453125,        0.0390625000,       16.8914794922,        2.7618408203,      -10.4064941406
1494035467.0188109875,       -0.7138671875,        0.2939453125,        0.0390625000,       19.0734863281,        1.7852783203,       -9.7503662109
1494035467.0213580132,       -0.6767578125,        0.3208007812,        0.0532226562,       19.0734863281,        1.7852783203,       -9.7503662109
1494035467.0240170956,       -0.6767578125,        0.3208007812,        0.0532226562,       22.7966308594,        0.9613037109,       -8.8348388672
1494035467.0265760422,       -0.6767578125,        0.3208007812,        0.0532226562,       22.7966308594,        0.9613037109,       -8.8348388672
1494035467.0291318893,       -0.6767578125,        0.3208007812,        0.0532226562,       26.3519287109,       -0.1373291016,       -8.3923339844
1494035467.0316870213,       -0.6865234375,        0.2890625000,        0.0532226562,       26.3519287109,       -0.1373291016,       -8.3923339844
1494035467.0344109535,       -0.6865234375,        0.2890625000,        0.0532226562,       29.9682617188,       -1.2054443359,       -8.5754394531
1494035467.0371110439,       -0.6865234375,        0.2890625000,        0.0532226562,       29.9682617188,       -1.2054443359,       -8.5754394531
1494035467.0398120880,       -0.6865234375,        0.2890625000,        0.0532226562,       32.7606201172,       -1.2969970703,       -7.9040527344
1494035467.0424969196,       -0.7089843750,        0.2709960938,        0.0629882812,       32.7606201172,       -1.2969970703,       -7.9040527344
1494035467.0452001095,       -0.7089843750,        0.2709960938,        0.0629882812,       33.3099365234,       -0.1678466797,       -7.1105957031
1494035467.0478920937,       -0.7089843750,        0.2709960938,        0.0629882812,       33.3099365234,       -0.1678466797,       -7.1105957031
1494035467.0505819321,       -0.7089843750,        0.1459960938,        0.0419921875,       32.2265625000,        0.9613037109,       -5.9509277344
1494035467.0532879829,       -0.7275390625,        0.2392578125,        0.0419921875,       32.2265625000,        0.9613037109,       -5.9509277344
1494035467.0559830666,       -0.7275390625,        0.2392578125,        0.0419921875,       29.6630859375,        1.8768310547,       -5.6304931641
1494035467.0587930679,       -0.7275390625,        0.2392578125,        0.0419921875,       29.6630859375,        1.8768310547,       -5.6304931641
1494035467.0614941120,       -0.7045898438,        0.2080078125,        0.0302734375,       27.1148681641,        1.9531250000,       -4.0740966797
1494035467.0641419888,       -0.7045898438,        0.2080078125,        0.0302734375,       27.1148681641,        1.9531250000,       -4.0740966797
1494035467.0666959286,       -0.7045898438,        0.2080078125,        0.0302734375,       24.4293212891,        2.0446777344,       -3.3721923828
1494035467.0692539215,       -0.7045898438,        0.2080078125,        0.0302734375,       24.4293212891,        2.0446777344,       -3.3721923828
1494035467.0718040466,       -0.6796875000,        0.2402343750,        0.0307617188,       20.5230712891,        2.0294189453,       -2.4414062500
1494035467.0744879246,       -0.6796875000,        0.2402343750,        0.0307617188,       21.3775634766,        2.0294189453,       -2.4414062500
1494035467.0771839619,       -0.6796875000,        0.2402343750,        0.0307617188,       21.3775634766,        2.5939941406,       -2.1209716797
1494035467.0798709393,       -0.6796875000,        0.2402343750,        0.0307617188,       19.4396972656,        2.5939941406,       -2.1209716797
1494035467.0825650692,       -0.6386718750,        0.2504882812,        0.0332031250,       19.4396972656,        1.8005371094,       -1.0375976562
1494035467.0851678848,       -0.6386718750,        0.2504882812,        0.0332031250,       17.8375244141,        1.8005371094,       -1.0375976562
1494035467.0877211094,       -0.6386718750,        0.2504882812,        0.0332031250,       17.8375244141,        1.8005371094,       -1.0833740234
1494035467.0904989243,       -0.6386718750,        0.2504882812,        0.0332031250,       16.6625976562,        1.2359619141,       -1.0833740234
1494035467.0930531025,       -0.6459960938,        0.2641601562,        0.0292968750,       16.6625976562,        1.2359619141,       -0.9765625000
1494035467.0959329605,       -0.6459960938,        0.2641601562,        0.0292968750,       16.0064697266,        0.9307861328,       -0.9765625000
1494035467.0986330509,       -0.6459960938,        0.2641601562,        0.0292968750,       16.0064697266,        0.9307861328,       -0.6866455078
1494035467.1013329029,       -0.6459960938,        0.2758789062,        0.0375976562,       15.9759521484,        0.8087158203,       -0.6866455078
1494035467.1040730476,       -0.6787109375,        0.2758789062,        0.0375976562,       15.9759521484,        0.8087158203,        0.8392333984
1494035467.1067650318,       -0.6787109375,        0.2758789062,        0.0375976562,       16.4031982422,        0.3509521484,        0.8392333984
1494035467.1094660759,       -0.6787109375,        0.2758789062,        0.0375976562,       16.4031982422,        0.3509521484,        2.0751953125
1494035467.1121590137,       -0.6953125000,        0.2504882812,        0.0478515625,       18.2037353516,        0.4730224609,        2.0751953125
1494035467.1148650646,       -0.6953125000,        0.2504882812,        0.0478515625,       18.2037353516,        0.4730224609,        2.8076171875
1494035467.1175680161,       -0.6953125000,        0.2504882812,        0.0478515625,       19.2871093750,        0.4577636719,        2.8076171875
1494035467.1202600002,       -0.6953125000,        0.2504882812,        0.0478515625,       19.2871093750,        0.4577636719,        3.8146972656
1494035467.1229588985,       -0.7138671875,        0.2573242188,        0.0400390625,       20.0195312500,        1.1444091797,        3.8146972656
1494035467.1255650520,       -0.7138671875,        0.2573242188,        0.0400390625,       20.0195312500,        1.1444091797,        7.7209472656
1494035467.1281130314,       -0.7138671875,        0.2573242188,        0.0400390625,       20.3247070312,        0.9765625000,        5.8135986328
1494035467.1306710243,       -0.7138671875,        0.2573242188,        0.0400390625,       20.3247070312,        0.9765625000,        5.8135986328
1494035467.1333279610,       -0.6884765625,        0.2656250000,        0.0258789062,       21.0113525391,        1.3122558594,        6.9427490234
1494035467.1358859539,       -0.6884765625,        0.2656250000,        0.0258789062,       21.0113525391,        1.3122558594,        6.9427490234
1494035467.1384460926,       -0.6884765625,        0.2656250000,        0.0258789062,       20.5230712891,        1.9378662109,        8.1024169922
1494035467.1409978867,       -0.6884765625,        0.2656250000,        0.0258789062,       20.5230712891,        1.9378662109,        8.1024169922
1494035467.1436460018,       -0.6821289062,        0.2949218750,        0.0146484375,       21.0113525391,        2.2888183594,        9.0026855469
1494035467.1462070942,       -0.6821289062,        0.2949218750,        0.0146484375,       21.0113525391,        2.2888183594,        9.0026855469
1494035467.1487588882,       -0.6821289062,        0.2949218750,        0.0146484375,       21.3623046875,        1.9378662109,       11.3372802734
1494035467.1513190269,       -0.6821289062,        0.2949218750,        0.0078125000,       21.3623046875,        1.9378662109,       11.3372802734
1494035467.1540119648,       -0.6538085938,        0.2539062500,        0.0078125000,       20.8129882812,        1.5869140625,       12.6953125000
1494035467.1567099094,       -0.6538085938,        0.2539062500,        0.0078125000,       20.8129882812,        1.5869140625,       12.6953125000
1494035467.1594150066,       -0.6538085938,        0.2539062500,        0.0078125000,       18.6767578125,        1.6937255859,       13.2293701172
1494035467.1621220112,       -0.6538085938,        0.2265625000,        0.0024414062,       18.6767578125,        1.6937255859,       13.2293701172
1494035467.1648750305,       -0.6650390625,        0.2265625000,        0.0024414062,       14.2517089844,        2.5482177734,       12.9547119141
1494035467.1675720215,       -0.6650390625,        0.2265625000,        0.0024414062,       14.2517089844,        2.5482177734,       12.9547119141
1494035467.1702771187,       -0.6650390625,        0.2265625000,        0.0024414062,        8.0871582031,        4.5318603516,       12.1459960938
1494035467.1729729176,       -0.7207031250,        0.2226562500,       -0.0170898438,        8.0871582031,        4.5318603516,       12.1459960938
1494035467.1756730080,       -0.7207031250,        0.2226562500,       -0.0170898438,        1.8005371094,        6.0729980469,       11.5661621094
1494035467.1783649921,       -0.7207031250,        0.2226562500,       -0.0170898438,        1.8005371094,        6.0729980469,       11.5661621094
1494035467.1810619831,       -0.7207031250,        0.2226562500,       -0.0170898438,       -2.2125244141,        6.3781738281,       11.6729736328
1494035467.1837430000,       -0.7006835938,        0.2763671875,       -0.0170898438,       -2.2125244141,        6.3781738281,       11.6729736328
1494035467.1862959862,       -0.7006835938,        0.2763671875,       -0.0170898438,       -6.1187744141,        6.5460205078,       12.6342773438
1494035467.1888511181,       -0.7006835938,        0.2763671875,       -0.0170898438,       -4.4250488281,        6.5460205078,       12.6342773438
1494035467.1914050579,       -0.7006835938,        0.2763671875,       -0.0170898438,       -4.4250488281,        6.5460205078,       13.3666992188
1494035467.1940109730,       -0.6625976562,        0.3212890625,        0.0014648438,       -4.3792724609,        5.8898925781,       13.3666992188
1494035467.1967089176,       -0.6625976562,        0.3212890625,        0.0014648438,       -4.3792724609,        5.8898925781,       14.2974853516
1494035467.1994030476,       -0.6625976562,        0.3212890625,        0.0014648438,       -2.8533935547,        5.9967041016,       14.2974853516
1494035467.2021040916,       -0.6625976562,        0.3212890625,        0.0205078125,       -2.8533935547,        5.9967041016,       14.7247314453
1494035467.2048110962,       -0.6640625000,        0.3198242188,        0.0205078125,       -0.6713867188,        5.5236816406,       14.7247314453
1494035467.2076249123,       -0.6640625000,        0.3198242188,        0.0205078125,       -0.6713867188,        5.5236816406,       15.1519775391
1494035467.2105100155,       -0.6640625000,        0.3198242188,        0.0205078125,        1.8463134766,        4.9285888672,       15.1519775391
1494035467.2135879993,       -0.6469726562,        0.3159179688,        0.0205078125,        3.0059814453,        4.3487548828,       15.5181884766
1494035467.2162909508,       -0.6469726562,        0.3159179688,        0.0205078125,        3.0059814453,        4.3487548828,       15.5181884766
1494035467.2189829350,       -0.6469726562,        0.3159179688,        0.0205078125,        3.8757324219,        4.7149658203,       15.7623291016
1494035467.2216749191,       -0.6469726562,        0.3159179688,        0.0205078125,        3.8757324219,        4.7149658203,       15.7623291016
1494035467.2243719101,       -0.6669921875,        0.3354492188,        0.0268554688,        5.3100585938,        4.4250488281,       15.9759521484
1494035467.2270660400,       -0.6669921875,        0.3354492188,        0.0268554688,        5.3100585938,        4.4250488281,       15.9759521484
1494035467.2297670841,       -0.6669921875,        0.3354492188,        0.0268554688,        5.3100585938,        3.1280517578,       16.1743164062
1494035467.2324581146,       -0.6669921875,        0.3403320312,        0.0395507812,        7.5225830078,        3.1280517578,       16.1743164062
1494035467.2350699902,       -0.6479492188,        0.3403320312,        0.0395507812,        7.5225830078,        2.2277832031,       16.7083740234
1494035467.2376248837,       -0.6479492188,        0.3403320312,        0.0395507812,       10.6658935547,        2.2277832031,       16.7083740234
1494035467.2401850224,       -0.6479492188,        0.3403320312,        0.0395507812,       10.6658935547,        2.2277832031,       17.1813964844
1494035467.2427439690,       -0.6479492188,        0.2788085938,        0.0341796875,       13.8549804688,        1.6479492188,       17.1813964844
1494035467.2453100681,       -0.6616210938,        0.2788085938,        0.0341796875,       13.8549804688,        1.6479492188,       17.1813964844
1494035467.2478640079,       -0.6616210938,        0.2788085938,        0.0341796875,       14.2211914062,        0.8544921875,       18.6767578125
1494035467.2504301071,       -0.6616210938,        0.2788085938,        0.0341796875,       14.2211914062,        0.8544921875,       18.6767578125
1494035467.2529850006,       -0.6616210938,        0.2036132812,        0.0253906250,       12.2680664062,        1.2054443359,       18.9208984375
1494035467.2555849552,       -0.7075195312,        0.2036132812,        0.0253906250,       12.2680664062,        1.2054443359,       18.9208984375
1494035467.2581379414,       -0.7075195312,        0.2036132812,        0.0253906250,        8.6059570312,        1.9683837891,       18.6309814453
1494035467.2606890202,       -0.7075195312,        0.2036132812,        0.0253906250,        8.6059570312,        1.9683837891,       18.6309814453
1494035467.2633230686,       -0.7421875000,        0.2241210938,        0.0175781250,        4.3945312500,        3.2043457031,       18.7988281250
1494035467.2658801079,       -0.7421875000,        0.2241210938,        0.0175781250,        4.3945312500,        3.2043457031,       18.7988281250
1494035467.2684340477,       -0.7421875000,        0.2241210938,        0.0175781250,        0.5950927734,        4.0740966797,       18.8598632812
1494035467.2709870338,       -0.7421875000,        0.2241210938,        0.0175781250,        0.5950927734,        4.0740966797,       18.8598632812
1494035467.2736580372,       -0.7294921875,        0.3061523438,       -0.0092773438,       -0.9155273438,        3.7536621094,       18.9208984375
1494035467.2763679028,       -0.7294921875,        0.3061523438,       -0.0092773438,       -0.9155273438,        3.7536621094,       18.9208984375
1494035467.2791709900,       -0.7294921875,        0.3061523438,       -0.0092773438,        0.2441406250,        3.6773681641,       18.7072753906
1494035467.2818720341,       -0.7294921875,        0.3061523438,       -0.0092773438,        0.2441406250,        3.6773681641,       18.7072753906
1494035467.2845270634,       -0.7314453125,        0.3857421875,       -0.0351562500,        3.0517578125,        3.8146972656,       17.9138183594
1494035467.2870829105,       -0.7314453125,        0.3857421875,       -0.0351562500,        3.0517578125,        3.8146972656,       17.9138183594
1494035467.2896299362,       -0.7314453125,        0.3857421875,       -0.0351562500,        6.9580078125,        4.0435791016,       17.4255371094
1494035467.2921850681,       -0.7314453125,        0.3857421875,       -0.0351562500,        6.4849853516,        4.0435791016,       17.4255371094
1494035467.2948739529,       -0.7221679688,        0.3598632812,       -0.0522460938,        6.4849853516,        3.8452148438,       16.8609619141
1494035467.2975630760,       -0.7221679688,        0.3598632812,       -0.0522460938,       10.1776123047,        3.8452148438,       16.8609619141
1494035467.3002610207,       -0.7221679688,        0.3598632812,       -0.0522460938,       10.1776123047,        3.3416748047,       15.7470703125
1494035467.3029580116,       -0.7221679688,        0.3598632812,       -0.0434570312,       11.3983154297,        3.3416748047,       15.7470703125
1494035467.3057050705,       -0.7231445312,        0.3154296875,       -0.0434570312,       11.3983154297,        3.7994384766,       14.9841308594
1494035467.3084061146,       -0.7231445312,        0.3154296875,       -0.0434570312,       11.4898681641,        3.7994384766,       14.9841308594
1494035467.3110959530,       -0.7231445312,        0.3154296875,       -0.0434570312,       11.4898681641,        7.7056884766,       14.8773193359
1494035467.3137989044,       -0.7543945312,        0.3281250000,       -0.0322265625,       10.4522705078,        4.8675537109,       14.8773193359
1494035467.3164920807,       -0.7543945312,        0.3281250000,       -0.0322265625,       10.4522705078,        4.8675537109,       14.7552490234
1494035467.3191869259,       -0.7543945312,        0.3281250000,       -0.0322265625,        9.0789794922,        6.3323974609,       14.7552490234
1494035467.3218820095,       -0.7543945312,        0.3281250000,       -0.0322265625,        9.0789794922,        6.3323974609,       15.1062011719
1494035467.3245201111,       -0.8247070312,        0.2822265625,       -0.0458984375,        6.9732666016,        7.2784423828,       15.1062011719
1494035467.3270769119,       -0.8247070312,        0.2822265625,       -0.0458984375,        6.9732666016,        7.2784423828,       15.1367187500
1494035467.3296558857,       -0.8247070312,        0.2822265625,       -0.0458984375,        5.2947998047,        9.7198486328,       15.1367187500
1494035467.3322091103,       -0.8247070312,        0.2822265625,       -0.0458984375,        5.2947998047,        9.7198486328,       15.1367187500
1494035467.3350250721,       -0.9052734375,        0.2763671875,       -0.0268554688,        1.5258789062,       12.6190185547,       15.1214599609
1494035467.3376839161,       -0.9052734375,        0.2763671875,       -0.0268554688,        1.5258789062,       12.6190185547,       15.0909423828
1494035467.3406009674,       -0.9052734375,        0.2763671875,       -0.0268554688,       -1.3885498047,       14.2364501953,       15.0909423828
1494035467.3433129787,       -0.9052734375,        0.2763671875,        0.0209960938,       -1.3885498047,       14.2364501953,       14.6179199219
1494035467.3460130692,       -0.9277343750,        0.2958984375,        0.0209960938,       -2.2735595703,       14.5111083984,       14.6179199219
1494035467.3487169743,       -0.9277343750,        0.2958984375,        0.0209960938,       -2.2735595703,       14.5111083984,       13.8397216797
1494035467.3514139652,       -0.9277343750,        0.2958984375,        0.0209960938,       -1.8157958984,       14.4042968750,       13.8397216797
1494035467.3542349339,       -0.9716796875,        0.2895507812,       -0.0063476562,       -1.8157958984,       14.4042968750,       12.5579833984
1494035467.3569369316,       -0.9716796875,        0.2895507812,       -0.0063476562,       -1.2817382812,       13.8549804688,       12.5579833984
1494035467.3596351147,       -0.9716796875,        0.2895507812,       -0.0063476562,       -1.2817382812,       13.8549804688,       11.2457275391
1494035467.3623340130,       -0.9716796875,        0.2895507812,       -0.0063476562,       -0.7324218750,       13.3666992188,       11.2457275391
1494035467.3649780750,       -0.9975585938,        0.3378906250,       -0.0449218750,       -0.7324218750,       13.3666992188,       11.2457275391
1494035467.3675379753,       -0.9975585938,        0.3378906250,       -0.0449218750,        0.6103515625,       12.8326416016,       10.5590820312
1494035467.3701009750,       -0.9975585938,        0.3378906250,       -0.0449218750,        0.6103515625,       12.8326416016,       10.5590820312
1494035467.3726570606,       -0.9975585938,        0.3378906250,       -0.0449218750,        4.0740966797,       10.5895996094,        9.3841552734
1494035467.3752219677,       -1.0039062500,        0.3823242188,       -0.0498046875,        4.0740966797,       10.5895996094,        9.3841552734
1494035467.3777740002,       -1.0039062500,        0.3823242188,       -0.0498046875,        9.4299316406,        8.7280273438,        9.1552734375
1494035467.3803219795,       -1.0039062500,        0.3823242188,       -0.0498046875,        9.4299316406,        8.7280273438,        9.1552734375
1494035467.3828730583,       -1.0039062500,        0.3823242188,       -0.0498046875,       15.6860351562,        7.4462890625,        9.7961425781
1494035467.3855679035,       -1.0419921875,        0.3442382812,       -0.0805664062,       15.6860351562,        7.4462890625,        9.7961425781
1494035467.3881189823,       -1.0419921875,        0.3442382812,       -0.0805664062,       21.1181640625,        6.6375732422,       10.6201171875
1494035467.3906760216,       -1.0419921875,        0.3442382812,       -0.0805664062,       21.1181640625,        6.6375732422,       10.6201171875
1494035467.3933091164,       -1.0419921875,        0.3442382812,       -0.0805664062,       25.7568359375,        6.3171386719,       11.1389160156
1494035467.3960111141,       -1.1098632812,        0.2939453125,       -0.0957031250,       25.7568359375,        6.3171386719,       11.1389160156
1494035467.3987090588,       -1.1098632812,        0.2939453125,       -0.0957031250,       28.6560058594,        5.5694580078,       11.4746093750
1494035467.4013969898,       -1.1098632812,        0.2939453125,       -0.0957031250,       28.6560058594,        5.5694580078,       11.4746093750
1494035467.4041059017,       -1.1098632812,        0.2426757812,       -0.0927734375,       32.4859619141,        4.8522949219,       12.2528076172
1494035467.4068009853,       -1.1630859375,        0.2426757812,       -0.0927734375,       32.4859619141,        4.8522949219,       12.2528076172
1494035467.4094901085,       -1.1630859375,        0.2426757812,       -0.0927734375,       36.9110107422,        4.6386718750,       13.1683349609
1494035467.4121870995,       -1.1630859375,        0.2426757812,       -0.0927734375,       36.9110107422,        4.6386718750,       13.1683349609
1494035467.4148890972,       -1.1933593750,        0.1699218750,       -0.1303710938,       39.7033691406,        4.6844482422,       13.9160156250
1494035467.4175820351,       -1.1933593750,        0.1699218750,       -0.1303710938,       39.7033691406,        4.6844482422,       13.9160156250
1494035467.4202809334,       -1.1933593750,        0.1699218750,       -0.1303710938,       39.7033691406,        4.1198730469,       13.2598876953
1494035467.4229760170,       -1.1933593750,        0.1699218750,       -0.1303710938,       41.2902832031,        4.1198730469,       13.2598876953
1494035467.4255568981,       -1.1494140625,        0.1005859375,       -0.1054687500,       41.2902832031,        3.2196044922,       12.5885009766
1494035467.4282228947,       -1.1494140625,        0.1005859375,       -0.1054687500,       42.1905517578,        3.2196044922,       12.5885009766
1494035467.4307830334,       -1.1494140625,        0.1005859375,       -0.1054687500,       42.1905517578,        3.2196044922,       14.6789550781
1494035467.4333479404,       -1.1494140625,        0.1005859375,       -0.1054687500,       39.9475097656,        3.5400390625,       14.6789550781
1494035467.4360389709,       -1.1420898438,       -0.0317382812,       -0.0917968750,       39.9475097656,        3.5400390625,       19.3939208984
1494035467.4387269020,       -1.1420898438,       -0.0317382812,       -0.0917968750,       30.5328369141,        5.1116943359,       19.3939208984
1494035467.4414188862,       -1.1420898438,       -0.0317382812,       -0.0917968750,       30.5328369141,        5.1116943359,       25.9399414062
1494035467.4441189766,       -1.1420898438,       -0.0317382812,       -0.0908203125,       19.5007324219,        6.5307617188,       25.9399414062
1494035467.4468080997,       -1.1235351562,       -0.1181640625,       -0.0908203125,       19.5007324219,        6.5307617188,       33.9355468750
1494035467.4497840405,       -1.1235351562,       -0.1181640625,       -0.0908203125,        6.3629150391,        9.9182128906,       33.9355468750
1494035467.4524800777,       -1.1235351562,       -0.1181640625,       -0.0908203125,       -5.3558349609,       14.6026611328,       42.7551269531
1494035467.4555881023,       -1.0263671875,       -0.0048828125,       -0.0043945312,       -7.1105957031,       14.6026611328,       42.7551269531
1494035467.4582839012,       -1.0263671875,       -0.0048828125,       -0.0043945312,      -18.8293457031,       17.5933837891,       52.0019531250
1494035467.4609830379,       -1.0263671875,       -0.0048828125,       -0.0043945312,      -19.5312500000,       17.5933837891,       52.0019531250
1494035467.4636840820,       -1.0263671875,       -0.0048828125,       -0.0043945312,      -35.1562500000,       18.2037353516,       63.9495849609
1494035467.4663789272,       -0.9711914062,        0.2319335938,        0.1293945312,      -32.5927734375,       18.2037353516,       63.9495849609
1494035467.4690830708,       -0.9711914062,        0.2319335938,        0.1293945312,      -32.5927734375,       17.4865722656,       74.7222900391
1494035467.4717819691,       -0.9711914062,        0.2319335938,        0.1293945312,      -47.8210449219,       17.4865722656,       74.7222900391
1494035467.4744949341,       -0.9711914062,        0.2319335938,        0.1821289062,      -47.8210449219,       16.3269042969,       80.1086425781
1494035467.4771940708,       -1.1220703125,        0.3457031250,        0.1821289062,      -56.9610595703,       16.3269042969,       80.1086425781
1494035467.4798889160,       -1.1220703125,        0.3457031250,        0.1821289062,      -56.9610595703,       14.2974853516,       85.0524902344
1494035467.4825990200,       -1.1220703125,        0.3457031250,        0.1821289062,      -61.2640380859,       14.2974853516,       85.0524902344
1494035467.4852049351,       -1.1220703125,        0.6059570312,        0.3364257812,      -61.2640380859,       10.3912353516,       92.6055908203
1494035467.4877610207,       -1.0888671875,        0.6059570312,        0.3364257812,      -72.4182128906,        7.9650878906,       92.6055908203
1494035467.4903240204,       -1.0888671875,        0.6059570312,        0.3364257812,      -72.4182128906,        7.9650878906,      104.3243408203
1494035467.4928801060,       -1.0888671875,        0.6059570312,        0.3364257812,      -79.8034667969,        0.5340576172,      102.1423339844
1494035467.4954540730,       -1.0019531250,        1.1762695312,        0.3583984375,      -79.8034667969,        0.5340576172,      102.1423339844
1494035467.4980111122,       -1.0019531250,        1.1762695312,        0.3583984375,      -72.9980468750,       -3.0822753906,      110.6872558594
1494035467.5006680489,       -1.0019531250,        1.1762695312,        0.3583984375,      -72.9980468750,       -3.0822753906,      110.6872558594
1494035467.5033299923,       -1.0019531250,        1.1762695312,        0.3583984375,      -55.9082031250,       -4.5928955078,      118.4387207031
1494035467.5058870316,       -0.9565429688,        1.4780273438,        0.3437500000,      -55.9082031250,       -4.5928955078,      118.4387207031
1494035467.5084431171,       -0.9565429688,        1.4780273438,        0.3437500000,      -31.1889648438,      -10.6353759766,      125.1678466797
1494035467.5110049248,       -0.9565429688,        1.4780273438,        0.3437500000,      -31.1889648438,      -10.6353759766,      125.1678466797
1494035467.5137360096,       -0.9565429688,        1.4780273438,        0.3437500000,       -0.1678466797,      -17.8222656250,      131.6223144531
1494035467.5163009167,       -1.0615234375,        1.3486328125,        0.2983398438,       -0.1678466797,      -17.8222656250,      131.6223144531
1494035467.5188519955,       -1.0615234375,        1.3486328125,        0.2983398438,       32.1807861328,      -19.2871093750,      139.0380859375
1494035467.5214118958,       -1.0615234375,        1.3486328125,        0.2983398438,       32.1807861328,      -19.2871093750,      139.0380859375
1494035467.5240719318,       -1.0615234375,        1.3486328125,        0.2983398438,       59.7839355469,      -20.3552246094,      143.5546875000
1494035467.5267739296,       -1.3461914062,        0.8823242188,        0.0927734375,       59.7839355469,      -20.3552246094,      143.5546875000
1494035467.5294690132,       -1.3461914062,        0.8823242188,        0.0927734375,       72.3724365234,      -20.6451416016,      151.9470214844
1494035467.5321760178,       -1.3461914062,        0.8823242188,        0.0927734375,       72.3724365234,      -20.6451416016,      151.9470214844
1494035467.5348889828,       -1.3461914062,        0.8823242188,        0.0249023438,       72.2503662109,      -21.1639404297,      157.0892333984
1494035467.5375940800,       -1.3090820312,        0.5795898438,        0.0249023438,       72.2503662109,      -21.1639404297,      157.0892333984
1494035467.5402939320,       -1.3090820312,        0.5795898438,        0.0249023438,       64.9566650391,      -22.0794677734,      159.5153808594
1494035467.5429940224,       -1.3090820312,        0.5795898438,        0.0249023438,       64.9566650391,      -22.0794677734,      159.5153808594
1494035467.5457038879,       -1.1840820312,        0.5146484375,       -0.0117187500,       59.0057373047,      -21.7590332031,      161.2854003906
1494035467.5484058857,       -1.2216796875,        0.5146484375,       -0.0117187500,       59.0057373047,      -21.7590332031,      161.2854003906
1494035467.5511050224,       -1.2216796875,        0.5146484375,       -0.0117187500,       55.1605224609,      -20.1721191406,      162.8112792969
1494035467.5538129807,       -1.2216796875,        0.5146484375,       -0.0117187500,       55.1605224609,      -20.1721191406,      162.8112792969
1494035467.5565099716,       -1.1811523438,        0.5800781250,       -0.0083007812,       50.7965087891,      -18.9361572266,      164.1387939453
1494035467.5592129230,       -1.1811523438,        0.5800781250,       -0.0083007812,       50.7965087891,      -18.9361572266,      164.1387939453
1494035467.5619089603,       -1.1811523438,        0.5800781250,       -0.0083007812,       48.3093261719,      -17.1508789062,      164.4134521484
1494035467.5645599365,       -1.1811523438,        0.5800781250,       -0.0083007812,       48.3093261719,      -17.1508789062,      164.4134521484
1494035467.5671229362,       -1.1508789062,        0.5732421875,       -0.0063476562,       48.3093261719,      -14.5416259766,      166.0766601562
1494035467.5698339939,       -1.1508789062,        0.5732421875,       -0.0063476562,       43.7622070312,      -14.5416259766,      166.0766601562
1494035467.5724039078,       -1.1508789062,        0.5732421875,       -0.0063476562,       43.7622070312,      -11.5509033203,      165.4357910156
1494035467.5752179623,       -1.1508789062,        0.5732421875,        0.0102539062,       39.9932861328,      -11.5509033203,      165.4357910156
1494035467.5779199600,       -1.1166992188,        0.4809570312,        0.0102539062,       39.9932861328,       -7.5836181641,      163.5131835938
1494035467.5806190968,       -1.1166992188,        0.4809570312,        0.0102539062,       32.6995849609,       -7.5836181641,      163.5131835938
1494035467.5833160877,       -1.1166992188,        0.4809570312,        0.0102539062,       32.6995849609,       -3.4179687500,      161.4532470703
1494035467.5865418911,       -1.0751953125,        0.4169921875,        0.0068359375,       23.9715576172,       -3.4179687500,      161.4532470703
1494035467.5892438889,       -1.0751953125,        0.4169921875,        0.0068359375,       16.8151855469,       -0.7476806641,      158.5083007812
1494035467.5919458866,       -1.0751953125,        0.4169921875,        0.0068359375,       16.8151855469,       -0.7476806641,      158.5083007812
1494035467.5946879387,       -1.0751953125,        0.4169921875,        0.0068359375,        9.9182128906,        1.1596679688,      155.0750732422
1494035467.5973770618,       -1.0092773438,        0.4057617188,       -0.0122070312,        9.9182128906,        1.1596679688,      155.0750732422
1494035467.6000690460,       -1.0092773438,        0.4057617188,       -0.0122070312,        4.6081542969,        2.2735595703,      151.0772705078
1494035467.6027660370,       -1.0092773438,        0.4057617188,       -0.0122070312,        4.6081542969,        2.2735595703,      151.0772705078
1494035467.6053490639,       -1.0092773438,        0.4057617188,       -0.0122070312,        0.7019042969,        2.9754638672,      147.0031738281
1494035467.6079070568,       -0.9228515625,        0.4301757812,       -0.0224609375,        1.7395019531,        2.9754638672,      147.0031738281
1494035467.6104629040,       -0.9228515625,        0.4301757812,       -0.0224609375,        1.7395019531,        6.8817138672,      143.7988281250
1494035467.6130089760,       -0.9228515625,        0.4301757812,       -0.0224609375,       -0.5645751953,        4.3640136719,      143.7988281250
1494035467.6155939102,       -0.9228515625,        0.4301757812,       -0.0073242188,       -0.5645751953,        4.3640136719,      140.7928466797
1494035467.6181409359,       -0.8417968750,        0.4233398438,       -0.0073242188,       -1.0223388672,        5.4931640625,      140.7928466797
1494035467.6206901073,       -0.8417968750,        0.4233398438,       -0.0073242188,       -1.0223388672,        5.4931640625,      140.7928466797
1494035467.6232481003,       -0.8417968750,        0.4233398438,       -0.0073242188,        0.5187988281,        5.7525634766,      134.1705322266
1494035467.6258060932,       -0.8417968750,        0.4233398438,        0.0014648438,        0.5187988281,        5.7525634766,      134.1705322266
1494035467.6283628941,       -0.7851562500,        0.3437500000,        0.0014648438,        2.6245117188,        5.0201416016,      125.5187988281
1494035467.6309120655,       -0.7851562500,        0.3437500000,        0.0014648438,        2.6245117188,        5.0201416016,      125.5187988281
1494035467.6336240768,       -0.7851562500,        0.3437500000,        0.0014648438,        3.4790039062,        4.1198730469,      119.3237304688
1494035467.6361849308,       -0.7851562500,        0.3437500000,        0.0009765625,        3.4790039062,        4.1198730469,      119.3237304688
1494035467.6387429237,       -0.6977539062,        0.2617187500,        0.0009765625,        4.4708251953,        4.7607421875,      114.4409179688
1494035467.6412930489,       -0.6977539062,        0.2617187500,        0.0009765625,        4.4708251953,        4.7607421875,      114.4409179688
1494035467.6440110207,       -0.6977539062,        0.2617187500,        0.0009765625,        5.4931640625,        6.3629150391,      110.4278564453
1494035467.6467061043,       -0.6977539062,        0.1977539062,       -0.0043945312,        5.4931640625,        6.3629150391,      110.4278564453
1494035467.6495170593,       -0.6259765625,        0.1977539062,       -0.0043945312,        4.7760009766,        7.2937011719,      106.1553955078
1494035467.6522099972,       -0.6259765625,        0.1977539062,       -0.0043945312,        4.7760009766,        7.2937011719,      106.1553955078
1494035467.6548349857,       -0.6259765625,        0.1977539062,       -0.0043945312,        7.3089599609,        8.7280273438,       98.6328125000
1494035467.6573910713,       -0.5522460938,        0.1264648438,       -0.0102539062,        7.3089599609,        8.7280273438,       98.6328125000
1494035467.6599419117,       -0.5522460938,        0.1264648438,       -0.0102539062,        8.9416503906,        8.3007812500,       91.2933349609
1494035467.6624979973,       -0.5522460938,        0.1264648438,       -0.0102539062,        8.9416503906,        8.3007812500,       91.2933349609
1494035467.6651740074,       -0.5522460938,        0.1264648438,       -0.0102539062,        8.9416503906,        7.7514648438,       84.1522216797
1494035467.6678690910,       -0.4628906250,        0.0659179688,       -0.0234375000,        8.9263916016,        7.7514648438,       84.1522216797
1494035467.6705660820,       -0.4628906250,        0.0659179688,       -0.0234375000,        5.0201416016,        7.8735351562,       77.1942138672
1494035467.6732668877,       -0.4628906250,        0.0659179688,       -0.0234375000,        6.5155029297,        7.8735351562,       77.1942138672
1494035467.6759600639,       -0.4628906250,        0.0659179688,       -0.0234375000,        6.5155029297,        8.0871582031,       69.7784423828
1494035467.6786520481,       -0.4184570312,        0.0366210938,       -0.0444335938,        3.0364990234,        8.0871582031,       69.7784423828
1494035467.6813390255,       -0.4184570312,        0.0366210938,       -0.0444335938,        3.0364990234,        9.0942382812,       61.5844726562
1494035467.6841349602,       -0.4184570312,        0.0366210938,       -0.0444335938,       -0.6256103516,        9.0942382812,       61.5844726562
1494035467.6868340969,       -0.4184570312,        0.0532226562,       -0.0478515625,       -0.6256103516,        9.5520019531,       53.9855957031
1494035467.6895260811,       -0.3818359375,        0.0532226562,       -0.0478515625,       -4.6691894531,        9.5520019531,       53.9855957031
1494035467.6922240257,       -0.3818359375,        0.0532226562,       -0.0478515625,       -8.5754394531,        9.2468261719,       45.4101562500
1494035467.6949870586,       -0.3818359375,        0.0532226562,       -0.0478515625,       -8.0718994141,        9.2468261719,       45.4101562500
1494035467.6976521015,       -0.3637695312,        0.0854492188,       -0.0454101562,       -8.0718994141,        9.1705322266,       36.5905761719
1494035467.7004890442,       -0.3637695312,        0.0854492188,       -0.0454101562,       -9.4757080078,        9.1705322266,       36.5905761719
1494035467.7036020756,       -0.3637695312,        0.0854492188,       -0.0454101562,      -11.4135742188,        9.1857910156,       29.1137695312
1494035467.7061710358,       -0.3637695312,        0.0854492188,       -0.0454101562,      -11.4135742188,        9.1857910156,       29.1137695312
1494035467.7087309361,       -0.3334960938,        0.0693359375,       -0.0341796875,      -15.3198242188,        9.7351074219,       21.5606689453
1494035467.7112870216,       -0.3334960938,        0.0693359375,       -0.0341796875,      -13.5192871094,        9.7351074219,       21.5606689453
1494035467.7139289379,       -0.3334960938,        0.0693359375,       -0.0341796875,      -13.5192871094,       10.2386474609,       12.4664306641
1494035467.7166340351,       -0.3334960938,        0.0693359375,       -0.0307617188,      -17.4560546875,       10.2386474609,       12.4664306641
1494035467.7193319798,       -0.2724609375,        0.0307617188,       -0.0307617188,      -17.4560546875,       10.2386474609,        5.2947998047
1494035467.7221419811,       -0.2724609375,        0.0307617188,       -0.0307617188,      -22.4304199219,        9.6588134766,        5.2947998047
1494035467.7248868942,       -0.2724609375,        0.0307617188,       -0.0307617188,      -22.4304199219,       10.1013183594,       -2.2277832031
1494035467.7275819778,       -0.2231445312,        0.0288085938,       -0.0170898438,      -26.4434814453,       10.1013183594,       -2.2277832031
1494035467.7302761078,       -0.2231445312,        0.0288085938,       -0.0170898438,      -26.4434814453,       10.0860595703,       -9.8724365234
1494035467.7329759598,       -0.2231445312,        0.0288085938,       -0.0170898438,      -28.8085937500,       10.0860595703,       -9.8724365234
1494035467.7355570793,       -0.2231445312,        0.0288085938,       -0.0170898438,      -28.8085937500,       10.0860595703,      -16.9830322266
1494035467.7381219864,       -0.1899414062,        0.0097656250,       -0.0087890625,      -30.1513671875,       10.5895996094,      -16.9830322266
1494035467.7406818867,       -0.1899414062,        0.0097656250,       -0.0087890625,      -30.1513671875,       10.5895996094,      -24.7955322266
1494035467.7432460785,       -0.1899414062,        0.0097656250,       -0.0087890625,      -31.7993164062,       10.4217529297,      -24.9176025391
1494035467.7458090782,       -0.1899414062,        0.0097656250,       -0.0087890625,      -31.7993164062,       10.4217529297,      -24.9176025391
1494035467.7485051155,       -0.1855468750,       -0.0419921875,        0.0019531250,      -33.8287353516,        9.9792480469,      -33.9965820312
1494035467.7514770031,       -0.1855468750,       -0.0419921875,        0.0019531250,      -33.8287353516,        9.9792480469,      -41.8090820312
1494035467.7540841103,       -0.1855468750,       -0.0419921875,        0.0019531250,      -37.2161865234,        9.9639892578,      -41.4886474609
1494035467.7566449642,       -0.1855468750,       -0.0419921875,        0.0019531250,      -37.2161865234,        9.9639892578,      -41.4886474609
1494035467.7592010498,       -0.1523437500,       -0.0244140625,        0.0141601562,      -39.7338867188,        9.3231201172,      -48.3703613281
1494035467.7617681026,       -0.1523437500,       -0.0244140625,        0.0141601562,      -39.7338867188,        9.3231201172,      -48.3703613281
1494035467.7644000053,       -0.1523437500,       -0.0244140625,        0.0141601562,      -41.8853759766,        8.2550048828,      -55.7708740234
1494035467.7670989037,       -0.1523437500,       -0.0244140625,        0.0429687500,      -41.8853759766,        8.2550048828,      -55.7708740234
1494035467.7698030472,       -0.1479492188,        0.0297851562,        0.0429687500,      -43.1365966797,        7.7819824219,      -64.3768310547
1494035467.7725019455,       -0.1479492188,        0.0297851562,        0.0429687500,      -43.1365966797,        7.7819824219,      -64.3768310547
1494035467.7752120495,       -0.1479492188,        0.0297851562,        0.0429687500,      -42.3736572266,        7.9193115234,      -71.6400146484
1494035467.7779099941,       -0.1479492188,        0.0825195312,        0.0590820312,      -42.3736572266,        7.9193115234,      -71.6400146484
1494035467.7806038857,       -0.1372070312,        0.0825195312,        0.0590820312,      -39.7796630859,        8.1787109375,      -79.6508789062
1494035467.7833139896,       -0.1372070312,        0.0825195312,        0.0590820312,      -39.7796630859,        8.1787109375,      -79.6508789062
1494035467.7858729362,       -0.1372070312,        0.0825195312,        0.0590820312,      -35.3240966797,        7.3242187500,      -87.0361328125
1494035467.7884309292,       -0.1206054688,        0.1020507812,        0.0678710938,      -35.3240966797,        7.3242187500,      -87.0361328125
1494035467.7909910679,       -0.1206054688,        0.1020507812,        0.0678710938,      -30.8227539062,        6.2408447266,      -93.5363769531
1494035467.7936489582,       -0.1206054688,        0.1020507812,        0.0678710938,      -30.8227539062,        6.2408447266,      -93.5363769531
1494035467.7963440418,       -0.1206054688,        0.1020507812,        0.0678710938,      -24.7192382812,        6.0577392578,     -100.6469726562
1494035467.7989039421,       -0.1562500000,        0.0888671875,        0.0571289062,      -24.7192382812,        6.0577392578,     -100.6469726562
1494035467.8014578819,       -0.1562500000,        0.0888671875,        0.0571289062,      -19.6533203125,        6.4239501953,     -107.8643798828
1494035467.8041639328,       -0.1562500000,        0.0888671875,        0.0571289062,      -19.6533203125,        6.4239501953,     -107.8643798828
1494035467.8067240715,       -0.1562500000,        0.0888671875,        0.0571289062,      -15.7470703125,        6.7749023438,     -113.3575439453
1494035467.8092839718,       -0.1689453125,        0.0961914062,        0.0415039062,      -17.2576904297,        6.7749023438,     -113.3575439453
1494035467.8118441105,       -0.1689453125,        0.0961914062,        0.0415039062,      -17.2576904297,        6.7749023438,     -118.3776855469
1494035467.8145089149,       -0.1689453125,        0.0961914062,        0.0415039062,      -15.5944824219,        6.8817138672,     -118.3776855469
1494035467.8172080517,       -0.1689453125,        0.0961914062,        0.0415039062,      -15.5944824219,        6.8817138672,     -123.0773925781
1494035467.8199059963,       -0.1596679688,        0.1235351562,        0.0288085938,      -14.7094726562,        7.0800781250,     -123.0773925781
1494035467.8226048946,       -0.1596679688,        0.1235351562,        0.0288085938,      -14.7094726562,        7.0800781250,     -127.7618408203
1494035467.8253200054,       -0.1596679688,        0.1235351562,        0.0288085938,      -13.2598876953,        7.7819824219,     -127.7618408203
1494035467.8280179501,       -0.1596679688,        0.1640625000,       -0.0092773438,      -13.2598876953,        7.7819824219,     -131.5765380859
1494035467.8307120800,       -0.1376953125,        0.1640625000,       -0.0092773438,      -13.0004882812,        8.2092285156,     -131.5765380859
1494035467.8334538937,       -0.1376953125,        0.1640625000,       -0.0092773438,      -13.0004882812,        8.2092285156,     -135.9710693359
1494035467.8360190392,       -0.1376953125,        0.1640625000,       -0.0092773438,      -13.2446289062,        8.1176757812,     -135.9710693359
1494035467.8385848999,       -0.1274414062,        0.1772460938,       -0.0117187500,      -13.2446289062,        8.1176757812,     -139.8773193359
1494035467.8411469460,       -0.1274414062,        0.1772460938,       -0.0117187500,      -14.5568847656,        8.6212158203,     -139.9383544922
1494035467.8437991142,       -0.1274414062,        0.1772460938,       -0.0117187500,      -14.5568847656,        8.6212158203,     -139.9383544922
1494035467.8463609219,       -0.1274414062,        0.1772460938,       -0.0117187500,      -15.9606933594,        8.4838867188,     -142.7917480469
1494035467.8489189148,       -0.1088867188,        0.1870117188,       -0.0263671875,      -15.9606933594,        8.4838867188,     -142.7917480469
1494035467.8514719009,       -0.1088867188,        0.1870117188,       -0.0263671875,      -17.7001953125,        8.3770751953,     -145.3094482422
1494035467.8540899754,       -0.1088867188,        0.1870117188,       -0.0263671875,      -17.7001953125,        8.3770751953,     -145.3094482422
1494035467.8566451073,       -0.1088867188,        0.1870117188,       -0.0263671875,      -21.1639404297,        8.4991455078,     -147.4914550781
1494035467.8592069149,       -0.1279296875,        0.2016601562,       -0.0263671875,      -21.1639404297,        8.4991455078,     -147.4914550781
1494035467.8619430065,       -0.1279296875,        0.2016601562,       -0.0263671875,      -23.8800048828,        8.5754394531,     -150.5889892578
1494035467.8645799160,       -0.1279296875,        0.2016601562,       -0.0263671875,      -23.8800048828,        8.5754394531,     -150.5889892578
1494035467.8672790527,       -0.1279296875,        0.2016601562,       -0.0263671875,      -28.7170410156,        8.7127685547,     -152.8015136719
1494035467.8700881004,       -0.1406250000,        0.2802734375,        0.0209960938,      -28.7170410156,        8.7127685547,     -152.8015136719
1494035467.8727920055,       -0.1406250000,        0.2802734375,        0.0209960938,      -31.6619873047,        8.0566406250,     -154.7241210938
1494035467.8754999638,       -0.1406250000,        0.2802734375,        0.0209960938,      -31.6619873047,        8.0566406250,     -154.7241210938
1494035467.8782010078,       -0.1406250000,        0.2802734375,        0.0434570312,      -29.1595458984,        7.2479248047,     -156.6467285156
1494035467.8808920383,       -0.1586914062,        0.3842773438,        0.0434570312,      -29.1595458984,        7.2479248047,     -156.6467285156
1494035467.8835940361,       -0.1586914062,        0.3842773438,        0.0434570312,      -25.8636474609,        7.2631835938,     -157.9742431641
1494035467.8862869740,       -0.1586914062,        0.3842773438,        0.0434570312,      -25.8636474609,        7.2631835938,     -157.9742431641
1494035467.8889799118,       -0.1586914062,        0.4545898438,        0.0615234375,      -24.4445800781,        7.0343017578,     -158.0810546875
1494035467.8916790485,       -0.2099609375,        0.4545898438,        0.0615234375,      -24.4445800781,        7.0343017578,     -158.0810546875
1494035467.8943290710,       -0.2099609375,        0.4545898438,        0.0615234375,      -24.1394042969,        5.5236816406,     -157.9132080078
1494035467.8968839645,       -0.2099609375,        0.4545898438,        0.0615234375,      -24.1394042969,        5.5236816406,     -157.9132080078
1494035467.8994390965,       -0.2670898438,        0.5107421875,        0.0722656250,      -21.8658447266,        5.0659179688,     -157.4859619141
1494035467.9019989967,       -0.2670898438,        0.5107421875,        0.0722656250,      -21.8658447266,        5.0659179688,     -157.4859619141
1494035467.9047141075,       -0.2670898438,        0.5107421875,        0.0722656250,      -17.9595947266,        4.6691894531,     -156.3262939453
1494035467.9072721004,       -0.2670898438,        0.5107421875,        0.0722656250,      -18.8598632812,        4.6691894531,     -156.3262939453
1494035467.9098300934,       -0.3002929688,        0.5825195312,        0.0576171875,      -18.8598632812,        0.7629394531,     -154.0985107422
1494035467.9123830795,       -0.3002929688,        0.5825195312,        0.0576171875,      -16.0369873047,        3.7841796875,     -154.0985107422
1494035467.9152100086,       -0.3002929688,        0.5825195312,        0.0576171875,      -16.0369873047,        3.7841796875,     -152.0843505859
1494035467.9179110527,       -0.3002929688,        0.5825195312,        0.0576171875,      -13.1835937500,        2.6397705078,     -152.0843505859
1494035467.9206130505,       -0.3208007812,        0.6176757812,        0.0366210938,      -13.1835937500,        2.6397705078,     -149.4750976562
1494035467.9233219624,       -0.3208007812,        0.6176757812,        0.0366210938,      -11.4746093750,        2.1667480469,     -149.4750976562
1494035467.9260220528,       -0.3208007812,        0.6176757812,        0.0366210938,      -11.4746093750,        2.1667480469,     -146.3928222656
1494035467.9287159443,       -0.3208007812,        0.6176757812,        0.0043945312,       -8.2550048828,        2.0446777344,     -146.3928222656
1494035467.9314138889,       -0.3505859375,        0.6601562500,        0.0043945312,       -8.2550048828,        2.0446777344,     -142.6849365234
1494035467.9341208935,       -0.3505859375,        0.6601562500,        0.0043945312,       -5.9051513672,        2.5177001953,     -142.6849365234
1494035467.9368169308,       -0.3505859375,        0.6601562500,        0.0043945312,       -5.9051513672,        2.5177001953,     -138.8854980469
1494035467.9395089149,       -0.3632812500,        0.6572265625,       -0.0556640625,       -6.8817138672,        2.7313232422,     -138.8854980469
1494035467.9423010349,       -0.3632812500,        0.6572265625,       -0.0556640625,       -6.8817138672,        2.7313232422,     -134.2163085938
1494035467.9449079037,       -0.3632812500,        0.6572265625,       -0.0556640625,       -9.3383789062,        3.3874511719,     -134.2163085938
1494035467.9474620819,       -0.3632812500,        0.6572265625,       -0.0556640625,       -9.3383789062,        3.3874511719,     -130.3100585938
1494035467.9500150681,       -0.3730468750,        0.6196289062,       -0.0966796875,      -14.2059326172,        4.9133300781,     -129.3945312500
1494035467.9525699615,       -0.3730468750,        0.6196289062,       -0.0966796875,      -14.2059326172,        4.9133300781,     -129.3945312500
1494035467.9552841187,       -0.3730468750,        0.6196289062,       -0.0966796875,      -22.0489501953,        7.0495605469,     -124.9847412109
1494035467.9579629898,       -0.3730468750,        0.6196289062,       -0.0966796875,      -22.0489501953,        7.0495605469,     -124.9847412109
1494035467.9605219364,       -0.3715820312,        0.6108398438,       -0.1103515625,      -30.4870605469,        8.7280273438,     -120.8038330078
1494035467.9630820751,       -0.3715820312,        0.6108398438,       -0.1103515625,      -30.4870605469,        8.7280273438,     -120.8038330078
1494035467.9658460617,       -0.3715820312,        0.6108398438,       -0.1103515625,      -37.9638671875,       10.2233886719,     -116.7755126953
1494035467.9685969353,       -0.3715820312,        0.6108398438,       -0.1103515625,      -37.9638671875,       10.2233886719,     -116.7755126953
1494035467.9712650776,       -0.3540039062,        0.6752929688,       -0.0703125000,      -44.0979003906,       11.1389160156,     -112.7319335938
1494035467.9741840363,       -0.3540039062,        0.6752929688,       -0.0703125000,      -44.0979003906,       11.1389160156,     -112.7319335938
1494035467.9768869877,       -0.3540039062,        0.6752929688,       -0.0703125000,      -45.8984375000,       12.1154785156,     -109.5733642578
1494035467.9795870781,       -0.3540039062,        0.7895507812,       -0.0009765625,      -45.8984375000,       12.1154785156,     -109.5733642578
1494035467.9822869301,       -0.3691406250,        0.7895507812,       -0.0009765625,      -43.1823730469,       12.4664306641,     -105.5145263672
1494035467.9849081039,       -0.3691406250,        0.7895507812,       -0.0009765625,      -43.1823730469,       12.4664306641,     -105.5145263672
1494035467.9874680042,       -0.3691406250,        0.7895507812,       -0.0009765625,      -40.2374267578,       12.2375488281,     -100.8300781250
1494035467.9900310040,       -0.4287109375,        0.8286132812,        0.0351562500,      -40.2374267578,       12.2375488281,     -100.8300781250
1494035467.9925899506,       -0.4287109375,        0.8286132812,        0.0351562500,      -39.3524169922,       12.7563476562,      -95.4132080078
1494035467.9953100681,       -0.4287109375,        0.8286132812,        0.0351562500,      -39.3524169922,       12.7563476562,      -95.4132080078
1494035467.9980061054,       -0.4287109375,        0.8286132812,        0.0351562500,      -39.0777587891,       12.5427246094,      -89.8895263672
1494035468.0007109642,       -0.4580078125,        0.8535156250,        0.0625000000,      -39.0777587891,       12.5427246094,      -89.8895263672
1494035468.0034549236,       -0.4580078125,        0.8535156250,        0.0625000000,      -36.3159179688,       12.4816894531,      -84.9914550781
1494035468.0060160160,       -0.4580078125,        0.8535156250,        0.0625000000,      -36.3159179688,       12.4816894531,      -84.9914550781
1494035468.0085840225,       -0.4580078125,        0.8535156250,        0.0625000000,      -32.5622558594,       12.1917724609,      -80.6274414062
1494035468.0111510754,       -0.4677734375,        0.8647460938,        0.0825195312,      -32.5622558594,       12.1917724609,      -80.6274414062
1494035468.0138061047,       -0.4677734375,        0.8647460938,        0.0825195312,      -26.2145996094,       10.8032226562,      -76.3549804688
1494035468.0164780617,       -0.4677734375,        0.8647460938,        0.0825195312,      -26.2145996094,       10.8032226562,      -76.3549804688
1494035468.0190379620,       -0.4677734375,        0.8647460938,        0.0825195312,      -18.4020996094,        9.4299316406,      -70.7855224609
1494035468.0215990543,       -0.4902343750,        0.8950195312,        0.0673828125,      -16.6625976562,        9.4299316406,      -70.7855224609
1494035468.0242240429,       -0.4902343750,        0.8950195312,        0.0673828125,      -16.6625976562,        8.3007812500,      -64.2700195312
1494035468.0269229412,       -0.4902343750,        0.8950195312,        0.0673828125,       -6.8054199219,        8.3007812500,      -64.2700195312
1494035468.0296170712,       -0.4902343750,        0.8950195312,        0.0268554688,       -6.8054199219,        4.3945312500,      -57.8765869141
1494035468.0323109627,       -0.5107421875,        0.8486328125,        0.0268554688,        0.5950927734,        7.2784423828,      -57.8765869141
1494035468.0349130630,       -0.5107421875,        0.8486328125,        0.0268554688,        0.5950927734,        7.2784423828,      -51.3153076172
1494035468.0374710560,       -0.5107421875,        0.8486328125,        0.0268554688,        4.3487548828,        6.3476562500,      -51.3153076172
1494035468.0400209427,       -0.5107421875,        0.7612304688,       -0.0292968750,        4.3487548828,        6.3476562500,      -43.5028076172
1494035468.0425770283,       -0.5195312500,        0.7612304688,       -0.0292968750,        4.0130615234,        6.6680908203,      -44.6777343750
1494035468.0452880859,       -0.5195312500,        0.7612304688,       -0.0292968750,        4.0130615234,        6.6680908203,      -36.8652343750
1494035468.0479850769,       -0.5195312500,        0.7612304688,       -0.0292968750,        1.3732910156,        8.0566406250,      -37.9180908203
1494035468.0506799221,       -0.4877929688,        0.7080078125,       -0.0839843750,        1.3732910156,        8.0566406250,      -34.0118408203
1494035468.0534288883,       -0.4877929688,        0.7080078125,       -0.0839843750,       -2.1057128906,        9.3841552734,      -31.6467285156
1494035468.0561239719,       -0.4877929688,        0.7080078125,       -0.0839843750,       -2.1057128906,        9.3841552734,      -23.8342285156
1494035468.0588169098,       -0.4877929688,        0.7080078125,       -0.0839843750,       -5.9661865234,        9.9487304688,      -26.1535644531
1494035468.0615110397,       -0.4721679688,        0.6416015625,       -0.0864257812,       -5.9661865234,        9.9487304688,      -26.1535644531
1494035468.0642130375,       -0.4721679688,        0.6416015625,       -0.0864257812,      -10.8489990234,       10.6048583984,      -21.5148925781
1494035468.0669078827,       -0.4721679688,        0.6416015625,       -0.0864257812,      -10.8489990234,       10.6048583984,      -21.5148925781
1494035468.0696029663,       -0.4721679688,        0.6416015625,       -0.0864257812,      -17.3645019531,       11.5356445312,      -16.9830322266
1494035468.0723059177,       -0.4902343750,        0.5795898438,       -0.0747070312,      -17.3645019531,       11.5356445312,      -16.9830322266
1494035468.0749340057,       -0.4902343750,        0.5795898438,       -0.0747070312,      -24.7344970703,       12.1765136719,      -13.0767822266
1494035468.0774900913,       -0.4902343750,        0.5795898438,       -0.0747070312,      -24.7344970703,       12.1765136719,      -13.0767822266
1494035468.0802190304,       -0.4902343750,        0.5795898438,       -0.0327148438,      -31.2194824219,       12.7105712891,       -9.5214843750
1494035468.0827820301,       -0.4858398438,        0.5673828125,       -0.0327148438,      -31.2194824219,       12.7105712891,       -9.5214843750
1494035468.0857861042,       -0.4858398438,        0.5673828125,       -0.0327148438,      -36.1328125000,       13.2141113281,       -6.5765380859
1494035468.0883479118,       -0.4858398438,        0.5673828125,       -0.0327148438,      -36.1328125000,       13.2141113281,       -6.5765380859
1494035468.0910270214,       -0.4858398438,        0.5751953125,        0.0053710938,      -38.7573242188,       13.5650634766,       -3.4942626953
1494035468.0936570168,       -0.4858398438,        0.5751953125,        0.0053710938,      -38.7573242188,       13.5650634766,       -3.4942626953
1494035468.0963640213,       -0.4858398438,        0.5751953125,        0.0053710938,      -40.0238037109,       13.1072998047,       -0.5035400391
1494035468.0990719795,       -0.4858398438,        0.5751953125,        0.0053710938,      -40.0238037109,       13.1072998047,       -0.5035400391
1494035468.1017680168,       -0.5029296875,        0.5419921875,        0.0361328125,      -40.2832031250,       12.4053955078,        2.5787353516
1494035468.1044759750,       -0.5029296875,        0.5419921875,        0.0361328125,      -40.2832031250,       12.4053955078,        2.5787353516
1494035468.1071820259,       -0.5029296875,        0.5419921875,        0.0361328125,      -40.6951904297,       11.7340087891,        5.9051513672
1494035468.1098809242,       -0.5029296875,        0.5419921875,        0.0361328125,      -40.6951904297,       11.7340087891,        5.9051513672
1494035468.1125810146,       -0.4921875000,        0.5224609375,        0.0341796875,      -40.7409667969,       11.1236572266,        8.4838867188
1494035468.1151900291,       -0.4921875000,        0.5224609375,        0.0341796875,      -40.7409667969,       11.1236572266,        8.4838867188
1494035468.1177470684,       -0.4921875000,        0.5224609375,        0.0341796875,      -42.1142578125,        9.5520019531,       10.5438232422
1494035468.1203100681,       -0.4921875000,        0.5224609375,        0.3398437500,      -42.1142578125,        9.5520019531,       10.5438232422
1494035468.1228721142,       -0.6801757812,        0.8105468750,        0.3398437500,      -60.2416992188,        2.4108886719,       11.4440917969
1494035468.1254529953,       -0.6801757812,        0.8105468750,        0.3398437500,      -60.2416992188,        2.4108886719,       11.4440917969
1494035468.1280090809,       -0.6801757812,        0.8105468750,        0.3398437500,      -64.1479492188,       -6.0119628906,       18.1427001953
1494035468.1305730343,       -0.6801757812,        0.8105468750,        0.4936523438,      -64.4378662109,       -6.0119628906,       18.1427001953
1494035468.1331279278,       -1.0117187500,        1.6425781250,        0.4936523438,      -33.1878662109,      -11.1999511719,       36.2701416016
1494035468.1358690262,       -1.0117187500,        1.6425781250,        0.4936523438,      -31.4025878906,      -11.1999511719,       36.2701416016
1494035468.1384279728,       -1.0117187500,        1.6425781250,        0.4936523438,      -31.4025878906,      -11.1999511719,       45.2270507812
1494035468.1409890652,       -1.0117187500,        1.1914062500,        0.2822265625,       17.0135498047,       -8.2550048828,       45.2270507812
1494035468.1436460018,       -1.4780273438,        1.1914062500,        0.2822265625,       17.0135498047,       -8.2550048828,       41.0461425781
1494035468.1463470459,       -1.4780273438,        1.1914062500,        0.2822265625,       53.0090332031,       -9.2010498047,       41.0461425781
1494035468.1490368843,       -1.4780273438,        1.1914062500,        0.2822265625,       53.0090332031,       -9.2010498047,       40.9851074219
1494035468.1517241001,       -1.3168945312,        0.1127929688,       -0.4003906250,       55.8929443359,       -3.9672851562,       40.9851074219
1494035468.1544559002,       -1.3168945312,        0.1127929688,       -0.4003906250,       55.8929443359,       -3.9672851562,       42.0684814453
1494035468.1571440697,       -1.3168945312,        0.1127929688,       -0.4003906250,       29.6325683594,        2.1820068359,       42.0684814453
1494035468.1598260403,       -1.3168945312,        0.1127929688,       -0.4003906250,       29.6325683594,        2.1820068359,       41.7938232422
1494035468.1626169682,       -1.0947265625,       -0.3110351562,       -0.3559570312,        3.0364990234,        3.2196044922,       41.7938232422
1494035468.1653060913,       -1.0947265625,       -0.3110351562,       -0.3559570312,        3.0364990234,        3.2196044922,       42.9077148438
1494035468.1679830551,       -1.0947265625,       -0.3110351562,       -0.3559570312,       -5.7067871094,        0.8850097656,       42.9077148438
1494035468.1706640720,       -1.0947265625,       -0.3110351562,       -0.2309570312,       -5.7067871094,        0.8850097656,       44.1589355469
1494035468.1733429432,       -0.7006835938,       -0.1616210938,       -0.1474609375,       -3.5400390625,       -1.3580322266,       44.1589355469
1494035468.1760230064,       -0.7006835938,       -0.1616210938,       -0.1474609375,       -3.5400390625,       -1.3580322266,       44.1589355469
1494035468.1787130833,       -0.7006835938,       -0.1616210938,       -0.1474609375,       -2.7313232422,       -0.9002685547,       46.0662841797
1494035468.1813890934,       -0.7006835938,        0.3344726562,       -0.0156250000,       -2.7313232422,       -0.9002685547,       49.9725341797
