time_stamp before, Acceleration x, Acceleration y, Acceleration z, Gyro x, Gyro y, Gyro z
1494295655.7793970108,       -5.2998046875,       -1.9931640625,       -2.5551757812,     -201.9042968750,      -67.9016113281,      196.6857910156
1494295655.7850139141,       -2.9062500000,       -7.0961914062,       -2.6220703125,     -201.9042968750,      -67.9016113281,      196.6857910156
1494295655.7886230946,       -2.9062500000,       -7.0961914062,       -2.6220703125,     -275.8483886719,      -45.7458496094,      191.4672851562
1494295655.7916519642,       -2.9062500000,       -7.0961914062,       -2.6220703125,     -275.8483886719,      -45.7458496094,      191.4672851562
1494295655.7943449020,       -0.5068359375,       -1.2695312500,        3.6035156250,     -104.1412353516,      -60.4248046875,      151.9622802734
1494295655.7970340252,       -0.5068359375,       -1.2695312500,        3.6035156250,     -104.1412353516,      -60.4248046875,      151.9622802734
1494295655.7997250557,       -0.5068359375,       -1.2695312500,        3.6035156250,     -153.6254882812,      -67.2302246094,      109.1308593750
1494295655.8024370670,       -0.5068359375,        2.5336914062,        1.7119140625,     -153.6254882812,      -67.2302246094,      109.1308593750
1494295655.8051280975,       -2.6909179688,        2.5336914062,        1.7119140625,     -322.9217529297,     -121.2615966797,      146.9726562500
1494295655.8078119755,       -2.6909179688,        2.5336914062,        1.7119140625,     -322.9217529297,     -121.2615966797,      146.9726562500
1494295655.8104989529,       -2.6909179688,        2.5336914062,        1.7119140625,     -159.7137451172,     -133.1787109375,      147.8271484375
1494295655.8130741119,       -4.3598632812,        1.6142578125,        4.1909179688,     -159.7137451172,     -133.1787109375,      147.8271484375
1494295655.8156170845,       -4.3598632812,        1.6142578125,        4.1909179688,       91.3543701172,     -118.2403564453,      151.8554687500
1494295655.8181641102,       -4.3598632812,        1.6142578125,        4.1909179688,       91.3543701172,     -118.2403564453,      151.8554687500
1494295655.8208448887,       -4.3598632812,        1.6142578125,        4.1909179688,       81.4666748047,     -114.6850585938,      210.0524902344
1494295655.8233919144,       -9.8305664062,       -2.1010742188,       -6.2236328125,       81.4666748047,     -114.6850585938,      210.0524902344
1494295655.8259420395,       -9.8305664062,       -2.1010742188,       -6.2236328125,      151.9165039062,       13.6108398438,      202.2399902344
1494295655.8284950256,       -9.8305664062,       -2.1010742188,       -6.2236328125,      151.9165039062,       13.6108398438,      202.2399902344
1494295655.8311920166,       -9.8305664062,       -2.1010742188,       -6.2236328125,       66.9555664062,       20.7214355469,      169.6472167969
1494295655.8338899612,        0.0351562500,        0.8520507812,       -0.7441406250,       66.9555664062,       20.7214355469,      169.6472167969
1494295655.8365759850,        0.0351562500,        0.8520507812,       -0.7441406250,     -213.7145996094,       46.8139648438,      153.1524658203
1494295655.8392610550,        0.0351562500,        0.8520507812,       -0.7441406250,     -213.7145996094,       46.8139648438,      153.1524658203
1494295655.8419508934,        0.0351562500,        0.8520507812,       -0.7441406250,     -281.8603515625,       53.2073974609,      142.3034667969
1494295655.8446390629,        1.3193359375,        1.2509765625,        0.9165039062,     -281.8603515625,       53.2073974609,      142.3034667969
1494295655.8473200798,        1.3193359375,        1.2509765625,        0.9165039062,     -243.5607910156,       23.1933593750,      118.7286376953
1494295655.8500039577,        1.3193359375,        1.2509765625,        0.9165039062,     -243.5607910156,       23.1933593750,      118.7286376953
1494295655.8526890278,        1.3193359375,        1.1259765625,        1.5151367188,     -138.1683349609,       18.4783935547,       97.1679687500
1494295655.8553678989,        1.0688476562,        1.1933593750,        1.5151367188,     -138.1683349609,       18.4783935547,       97.1679687500
1494295655.8582029343,        1.0688476562,        1.1933593750,        1.5151367188,      -32.3181152344,       11.9628906250,       82.5805664062
1494295655.8609340191,        1.0688476562,        1.1933593750,        1.5151367188,      -32.3181152344,       11.9628906250,       82.5805664062
1494295655.8636078835,        0.8720703125,        0.9775390625,        1.1884765625,       31.0821533203,      -11.7645263672,       53.7109375000
1494295655.8662879467,        0.8720703125,        0.9775390625,        1.1884765625,       31.0821533203,      -11.7645263672,       53.7109375000
1494295655.8689649105,        0.8720703125,        0.9775390625,        1.1884765625,       61.0046386719,      -29.6020507812,       21.3470458984
1494295655.8716559410,        0.8720703125,        0.9775390625,        1.1884765625,       61.0046386719,      -29.6020507812,       21.3470458984
1494295655.8743350506,       -0.5151367188,        1.3955078125,       -0.2309570312,       80.5358886719,      -29.3121337891,       -0.0305175781
1494295655.8770179749,       -0.5151367188,        1.3955078125,       -0.2309570312,       78.5369873047,      -29.3121337891,       -0.0305175781
1494295655.8796920776,       -0.5151367188,        1.3955078125,       -0.2309570312,       90.2557373047,      -17.1356201172,      -11.4593505859
1494295655.8824000359,       -0.5151367188,        1.3955078125,       -0.2309570312,       92.0410156250,      -17.1356201172,      -11.4593505859
1494295655.8850970268,       -1.3183593750,        0.5576171875,       -1.3808593750,       88.1347656250,       -2.6550292969,      -22.4304199219
1494295655.8878688812,       -1.3183593750,        0.5576171875,       -1.3808593750,       88.7756347656,       -2.6550292969,      -22.4304199219
1494295655.8905661106,       -1.3183593750,        0.5576171875,       -1.3808593750,       53.6193847656,        6.2561035156,      -27.9388427734
1494295655.8932778835,       -1.3183593750,        0.2255859375,       -0.5278320312,       52.4597167969,        6.2561035156,      -27.9388427734
1494295655.8959710598,       -1.5458984375,        0.2255859375,       -0.5278320312,        5.5847167969,        6.7596435547,      -30.1208496094
1494295655.8986630440,       -1.5458984375,        0.2255859375,       -0.5278320312,        5.7067871094,        6.7596435547,      -30.1208496094
1494295655.9013690948,       -1.5458984375,        0.2255859375,       -0.5278320312,        5.7067871094,        4.0130615234,      -32.9589843750
1494295655.9040589333,       -0.9492187500,        0.4555664062,        0.4770507812,      -20.2026367188,        4.0130615234,      -32.9589843750
1494295655.9067549706,       -0.9492187500,        0.4555664062,        0.4770507812,      -20.2026367188,        1.7395019531,      -38.2690429688
1494295655.9094541073,       -0.9492187500,        0.4555664062,        0.4770507812,      -21.5911865234,        1.7395019531,      -38.2690429688
1494295655.9121649265,       -0.9492187500,        0.4555664062,        0.4770507812,      -21.5911865234,       -1.9989013672,      -47.1801757812
1494295655.9148681164,       -0.4101562500,        0.7153320312,        0.4614257812,      -10.9863281250,       -1.9989013672,      -47.1801757812
1494295655.9175610542,       -0.4101562500,        0.7153320312,        0.4614257812,      -10.9863281250,       -4.3029785156,      -60.2569580078
1494295655.9202609062,       -0.4101562500,        0.7153320312,        0.4614257812,        4.1809082031,       -4.3029785156,      -60.2569580078
1494295655.9228479862,       -0.4101562500,        0.7153320312,        0.0864257812,        4.1809082031,       -4.3029785156,      -72.8607177734
1494295655.9254019260,       -0.4790039062,        0.7441406250,        0.0634765625,       20.4467773438,       -3.9672851562,      -72.8607177734
1494295655.9279539585,       -0.4790039062,        0.7441406250,        0.0634765625,       20.4467773438,       -3.9672851562,      -84.5794677734
1494295655.9306230545,       -0.4790039062,        0.7441406250,        0.0634765625,       34.8968505859,       -1.6174316406,      -83.0383300781
1494295655.9334259033,       -0.4790039062,        0.6191406250,       -0.0600585938,       34.8968505859,       -1.6174316406,      -90.8508300781
1494295655.9359838963,       -0.6069335938,        0.5986328125,       -0.0600585938,       45.6085205078,        1.1901855469,      -91.7053222656
1494295655.9385399818,       -0.6069335938,        0.5986328125,       -0.0600585938,       45.6085205078,        1.1901855469,      -99.5178222656
1494295655.9413490295,       -0.6069335938,        0.5986328125,       -0.0600585938,       52.7801513672,        4.5928955078,      -97.9614257812
1494295655.9439051151,       -0.7319335938,        0.4843750000,        0.1054687500,       52.7801513672,        4.5928955078,      -97.9614257812
1494295655.9464609623,       -0.6894531250,        0.4843750000,        0.1054687500,       56.2744140625,        8.4381103516,     -101.4556884766
1494295655.9490160942,       -0.6894531250,        0.4843750000,        0.1054687500,       56.2744140625,        8.4381103516,     -101.4556884766
1494295655.9517140388,       -0.6894531250,        0.4843750000,        0.1054687500,       58.0444335938,       12.4816894531,     -102.1728515625
1494295655.9543790817,       -0.8041992188,        0.3618164062,        0.2241210938,       58.0444335938,       12.4816894531,     -102.1728515625
1494295655.9571399689,       -0.8041992188,        0.3618164062,        0.2241210938,       57.7392578125,       16.3726806641,     -101.3031005859
1494295655.9606120586,       -0.8041992188,        0.3618164062,        0.2241210938,       57.7392578125,       16.3726806641,     -101.3031005859
1494295655.9632229805,       -0.8041992188,        0.3618164062,        0.2241210938,       56.6406250000,       20.2026367188,     -100.0213623047
1494295655.9657809734,       -0.8613281250,        0.2900390625,        0.2407226562,       56.6406250000,       20.2026367188,     -100.0213623047
1494295655.9683361053,       -0.8613281250,        0.2900390625,        0.2407226562,       56.3507080078,       24.4445800781,      -98.8006591797
1494295655.9709560871,       -0.8613281250,        0.2900390625,        0.2407226562,       56.3507080078,       24.4445800781,      -98.8006591797
1494295655.9736590385,       -0.8613281250,        0.2900390625,        0.3574218750,       59.2651367188,       27.1301269531,      -98.5565185547
1494295655.9763610363,       -0.8520507812,        0.3271484375,        0.3574218750,       59.2651367188,       27.1301269531,      -98.5565185547
1494295655.9790649414,       -0.8520507812,        0.3271484375,        0.3574218750,       63.7054443359,       27.9083251953,      -98.2818603516
1494295655.9817759991,       -0.8520507812,        0.3271484375,        0.3574218750,       63.7054443359,       27.9083251953,      -98.2818603516
1494295655.9844760895,       -0.8159179688,        0.3520507812,        0.2954101562,       69.6563720703,       28.2897949219,      -97.8088378906
1494295655.9871759415,       -0.8159179688,        0.3520507812,        0.2954101562,       69.6563720703,       28.2897949219,      -97.8088378906
1494295655.9898760319,       -0.8159179688,        0.3520507812,        0.2954101562,       76.9653320312,       29.3273925781,      -97.2290039062
1494295655.9924950600,       -0.8159179688,        0.3520507812,        0.2954101562,       76.9653320312,       29.3273925781,      -97.2290039062
1494295655.9950530529,       -0.7583007812,        0.3022460938,        0.1562500000,       83.1146240234,       29.0069580078,      -97.4273681641
1494295655.9976150990,       -0.7583007812,        0.3022460938,        0.1562500000,       83.1146240234,       29.0069580078,      -97.4273681641
1494295656.0001759529,       -0.7583007812,        0.3022460938,        0.1562500000,       85.2050781250,       28.2745361328,      -97.7325439453
1494295656.0028150082,       -0.7583007812,        0.3022460938,        0.1562500000,       85.2050781250,       28.2745361328,      -97.7325439453
1494295656.0054929256,       -0.7416992188,        0.2070312500,       -0.0043945312,       84.1369628906,       28.1066894531,      -96.6186523438
1494295656.0080549717,       -0.7416992188,        0.2070312500,       -0.0043945312,       84.1369628906,       28.1066894531,      -96.6186523438
1494295656.0106151104,       -0.7416992188,        0.2070312500,       -0.0043945312,       80.4748535156,       27.3284912109,      -95.7183837891
1494295656.0134758949,       -0.7416992188,        0.2070312500,       -0.0043945312,       80.4748535156,       27.3284912109,      -95.7183837891
1494295656.0161709785,       -0.6767578125,        0.1542968750,       -0.0161132812,       75.0732421875,       25.1770019531,      -95.1843261719
1494295656.0188720226,       -0.6767578125,        0.1542968750,       -0.0161132812,       75.0732421875,       25.1770019531,      -95.1843261719
1494295656.0215840340,       -0.6767578125,        0.1542968750,       -0.0161132812,       69.2596435547,       23.8800048828,      -94.1619873047
1494295656.0242850780,       -0.6767578125,        0.1250000000,       -0.0878906250,       69.2596435547,       23.8800048828,      -94.1619873047
1494295656.0269849300,       -0.6342773438,        0.1250000000,       -0.0878906250,       63.2019042969,       23.4680175781,      -92.8955078125
1494295656.0296850204,       -0.6342773438,        0.1250000000,       -0.0878906250,       63.2019042969,       23.4680175781,      -92.8955078125
1494295656.0323939323,       -0.6342773438,        0.1250000000,       -0.0878906250,       56.4727783203,       22.3541259766,      -91.1865234375
1494295656.0350880623,       -0.5312500000,        0.1411132812,       -0.1108398438,       56.4727783203,       22.3541259766,      -91.1865234375
1494295656.0377869606,       -0.5312500000,        0.1411132812,       -0.1108398438,       49.3774414062,       21.5148925781,      -89.5996093750
1494295656.0404829979,       -0.5312500000,        0.1411132812,       -0.1108398438,       49.3774414062,       21.5148925781,      -89.5996093750
1494295656.0431900024,       -0.5312500000,        0.1411132812,       -0.1108398438,       43.2434082031,       20.7519531250,      -87.7075195312
1494295656.0458900928,       -0.4658203125,        0.1489257812,       -0.1230468750,       43.2434082031,       20.7519531250,      -87.7075195312
1494295656.0485849380,       -0.4658203125,        0.1489257812,       -0.1230468750,       38.6810302734,       20.0653076172,      -86.0137939453
1494295656.0512681007,       -0.4658203125,        0.1489257812,       -0.1230468750,       38.6810302734,       20.0653076172,      -86.0137939453
1494295656.0538249016,       -0.4658203125,        0.1489257812,       -0.1230468750,       38.6810302734,       19.5465087891,      -84.1827392578
1494295656.0563800335,       -0.4458007812,        0.1850585938,       -0.1293945312,       34.1949462891,       19.5465087891,      -84.1827392578
1494295656.0589339733,       -0.4458007812,        0.1850585938,       -0.1293945312,       34.1949462891,       15.6402587891,      -82.6873779297
1494295656.0615739822,       -0.4458007812,        0.1850585938,       -0.1293945312,       30.1513671875,       19.3481445312,      -82.6873779297
1494295656.0642518997,       -0.4458007812,        0.1850585938,       -0.1123046875,       30.1513671875,       19.3481445312,      -81.2988281250
1494295656.0670568943,       -0.4370117188,        0.2065429688,       -0.1123046875,       27.8472900391,       18.7988281250,      -81.2988281250
1494295656.0697319508,       -0.4370117188,        0.2065429688,       -0.1123046875,       27.8472900391,       18.7988281250,      -79.6203613281
1494295656.0724289417,       -0.4370117188,        0.2065429688,       -0.1123046875,       27.9693603516,       18.6004638672,      -79.6203613281
1494295656.0751090050,       -0.4370117188,        0.2031250000,       -0.0922851562,       27.9693603516,       18.6004638672,      -77.6824951172
1494295656.0777959824,       -0.4531250000,        0.2031250000,       -0.0922851562,       27.8472900391,       18.2800292969,      -77.6824951172
1494295656.0805850029,       -0.4531250000,        0.2031250000,       -0.0922851562,       27.8472900391,       18.2800292969,      -75.1495361328
1494295656.0832660198,       -0.4531250000,        0.2031250000,       -0.0922851562,       28.5186767578,       18.6614990234,      -75.1495361328
1494295656.0859520435,       -0.4990234375,        0.1835937500,       -0.0942382812,       28.5186767578,       18.6614990234,      -72.9370117188
1494295656.0886330605,       -0.4990234375,        0.1835937500,       -0.0942382812,       30.3497314453,       20.2636718750,      -72.9370117188
1494295656.0913629532,       -0.4990234375,        0.1835937500,       -0.0942382812,       30.3497314453,       20.2636718750,      -70.6329345703
1494295656.0940508842,       -0.4990234375,        0.1835937500,       -0.0942382812,       30.5328369141,       20.4315185547,      -70.6329345703
1494295656.0967290401,       -0.5131835938,        0.1791992188,       -0.0761718750,       30.5328369141,       20.4315185547,      -68.2067871094
1494295656.0994191170,       -0.5131835938,        0.1791992188,       -0.0761718750,       29.9072265625,       19.1040039062,      -68.2067871094
1494295656.1021339893,       -0.5131835938,        0.1791992188,       -0.0761718750,       29.9072265625,       19.1040039062,      -64.3005371094
1494295656.1046888828,       -0.5131835938,        0.1791992188,       -0.0717773438,       28.9764404297,       17.1661376953,      -65.6738281250
1494295656.1072490215,       -0.5541992188,        0.1298828125,       -0.0717773438,       28.9764404297,       17.1661376953,      -65.6738281250
1494295656.1098079681,       -0.5541992188,        0.1298828125,       -0.0717773438,       26.4282226562,       15.2282714844,      -63.5986328125
1494295656.1124739647,       -0.5541992188,        0.1298828125,       -0.0717773438,       26.4282226562,       15.2282714844,      -63.5986328125
1494295656.1150341034,       -0.5541992188,        0.0947265625,       -0.0673828125,       23.5595703125,       12.6953125000,      -62.3626708984
1494295656.1175909042,       -0.5737304688,        0.0947265625,       -0.0673828125,       23.5595703125,       12.6953125000,      -62.3626708984
1494295656.1201479435,       -0.5737304688,        0.0947265625,       -0.0673828125,       21.7742919922,       10.8337402344,      -60.6689453125
1494295656.1229228973,       -0.5737304688,        0.0947265625,       -0.0673828125,       21.7742919922,       10.8337402344,      -60.6689453125
1494295656.1256179810,       -0.5766601562,        0.0791015625,       -0.0595703125,       19.9584960938,        9.4604492188,      -58.1817626953
1494295656.1283121109,       -0.5766601562,        0.0791015625,       -0.0595703125,       19.9584960938,        9.4604492188,      -58.1817626953
1494295656.1310119629,       -0.5766601562,        0.0791015625,       -0.0595703125,       18.2037353516,        8.4838867188,      -55.4656982422
1494295656.1337029934,       -0.5766601562,        0.0791015625,       -0.0595703125,       18.2037353516,        8.4838867188,      -55.4656982422
1494295656.1364018917,       -0.6005859375,        0.0605468750,       -0.0454101562,       15.2740478516,        7.7209472656,      -53.2684326172
1494295656.1391460896,       -0.6005859375,        0.0605468750,       -0.0454101562,       15.2740478516,        7.7209472656,      -53.2684326172
1494295656.1419110298,       -0.6005859375,        0.0605468750,       -0.0454101562,       12.4053955078,        6.7596435547,      -50.8270263672
1494295656.1445739269,       -0.6005859375,        0.0605468750,       -0.0454101562,       12.4053955078,        6.7596435547,      -50.8270263672
1494295656.1473789215,       -0.6875000000,        0.0234375000,       -0.0991210938,        8.5601806641,        7.7972412109,      -48.0041503906
1494295656.1504330635,       -0.6875000000,        0.0234375000,       -0.0991210938,        8.5601806641,        7.7972412109,      -48.0041503906
1494295656.1532909870,       -0.6875000000,        0.0234375000,       -0.0991210938,        6.1950683594,        9.3383789062,      -45.5322265625
1494295656.1559920311,       -0.8198242188,       -0.0410156250,       -0.1445312500,        6.1950683594,        9.3383789062,      -45.5322265625
1494295656.1586840153,       -0.8198242188,       -0.0410156250,       -0.1445312500,       -3.1585693359,        9.6588134766,      -42.3278808594
1494295656.1613929272,       -0.8198242188,       -0.0410156250,       -0.1445312500,       -3.1585693359,        9.6588134766,      -42.3278808594
1494295656.1640810966,       -0.8198242188,       -0.0410156250,       -0.1445312500,      -19.1192626953,        8.4533691406,      -35.3698730469
1494295656.1667749882,       -0.9707031250,       -0.1113281250,       -0.0312500000,      -19.1192626953,        8.4533691406,      -35.3698730469
1494295656.1694738865,       -0.9707031250,       -0.1113281250,       -0.0312500000,      -32.8369140625,        7.5683593750,      -29.2510986328
1494295656.1721119881,       -0.9707031250,       -0.1113281250,       -0.0312500000,      -32.8369140625,        7.5683593750,      -29.2510986328
1494295656.1746649742,       -0.9707031250,       -0.1113281250,       -0.0312500000,      -42.8009033203,        6.0424804688,      -24.9786376953
1494295656.1772260666,       -1.0986328125,       -0.2368164062,        0.0463867188,      -42.8009033203,        6.0424804688,      -24.9786376953
1494295656.1797780991,       -1.0986328125,       -0.2368164062,        0.0463867188,      -48.5382080078,        3.4637451172,      -21.3470458984
1494295656.1823379993,       -1.0986328125,       -0.2368164062,        0.0463867188,      -48.5382080078,        3.4637451172,      -21.3470458984
1494295656.1848878860,       -1.0986328125,       -0.2368164062,        0.0463867188,      -47.4243164062,        1.0528564453,      -18.1732177734
1494295656.1874330044,       -1.0942382812,       -0.1840820312,       -0.0214843750,      -47.4243164062,        1.0528564453,      -18.1732177734
1494295656.1899900436,       -1.0942382812,       -0.1840820312,       -0.0214843750,      -39.6118164062,       -0.5187988281,      -15.7775878906
1494295656.1926250458,       -1.0942382812,       -0.1840820312,       -0.0214843750,      -42.3278808594,       -0.5187988281,      -15.7775878906
1494295656.1951839924,       -1.0942382812,       -0.1840820312,       -0.0214843750,      -42.3278808594,       -0.5187988281,      -12.2528076172
1494295656.1977360249,       -0.8798828125,        0.0869140625,       -0.1230468750,      -35.6903076172,       -1.5716552734,      -12.2528076172
1494295656.2002971172,       -0.8798828125,        0.0869140625,       -0.1230468750,      -35.6903076172,       -1.5716552734,       -9.2773437500
1494295656.2029860020,       -0.8798828125,        0.0869140625,       -0.1230468750,      -25.5279541016,       -1.8463134766,       -9.2773437500
1494295656.2055420876,       -0.8798828125,        0.0869140625,       -0.0976562500,      -25.5279541016,       -1.8463134766,       -9.2773437500
1494295656.2080869675,       -0.7231445312,        0.2739257812,       -0.0976562500,      -14.4348144531,       -1.5563964844,       -8.2550048828
1494295656.2106831074,       -0.7231445312,        0.2739257812,       -0.0976562500,      -14.4348144531,       -1.5563964844,       -8.2550048828
1494295656.2133750916,       -0.7231445312,        0.2739257812,       -0.0976562500,       -5.1269531250,       -0.7934570312,       -9.8114013672
1494295656.2160589695,       -0.7231445312,        0.2612304688,       -0.0356445312,       -5.1269531250,       -0.7934570312,       -9.8114013672
1494295656.2187449932,       -0.7001953125,        0.2612304688,       -0.0356445312,        0.4577636719,       -0.3051757812,      -12.8479003906
1494295656.2214479446,       -0.7001953125,        0.2612304688,       -0.0356445312,        0.4577636719,       -0.3051757812,      -12.8479003906
1494295656.2241420746,       -0.7001953125,        0.2612304688,       -0.0356445312,        2.5329589844,        0.6561279297,      -15.3961181641
1494295656.2269499302,       -0.7338867188,        0.1953125000,       -0.0507812500,        2.5329589844,        0.6561279297,      -15.3961181641
1494295656.2296459675,       -0.7338867188,        0.1953125000,       -0.0507812500,        1.7852783203,        1.9531250000,      -18.4173583984
1494295656.2323529720,       -0.7338867188,        0.1953125000,       -0.0507812500,        1.7852783203,        1.9531250000,      -18.4173583984
1494295656.2350440025,       -0.7338867188,        0.1953125000,       -0.0507812500,       -1.9073486328,        1.5869140625,      -21.6674804688
1494295656.2377359867,       -0.7773437500,        0.1777343750,       -0.0322265625,       -1.9073486328,        1.5869140625,      -21.6674804688
1494295656.2404279709,       -0.7773437500,        0.1777343750,       -0.0322265625,       -8.3923339844,        0.7171630859,      -25.9552001953
1494295656.2430338860,       -0.7773437500,        0.1777343750,       -0.0322265625,       -8.3923339844,        0.7171630859,      -25.9552001953
1494295656.2455830574,       -0.7773437500,        0.1777343750,       -0.0322265625,      -15.7470703125,       -0.2593994141,      -30.5633544922
1494295656.2481379509,       -0.8022460938,        0.1772460938,       -0.0390625000,      -15.7470703125,       -0.2593994141,      -30.5633544922
1494295656.2507200241,       -0.8022460938,        0.1772460938,       -0.0390625000,      -16.2658691406,       -0.2899169922,      -34.1949462891
1494295656.2534139156,       -0.8022460938,        0.1772460938,       -0.0390625000,      -16.2658691406,       -0.2899169922,      -34.1949462891
1494295656.2561070919,       -0.8022460938,        0.3022460938,       -0.0302734375,      -15.4876708984,        0.3662109375,      -38.2385253906
1494295656.2589380741,       -0.7690429688,        0.2553710938,       -0.0302734375,      -15.4876708984,        0.3662109375,      -38.2385253906
1494295656.2617120743,       -0.7690429688,        0.2553710938,       -0.0302734375,      -15.3350830078,        2.3956298828,      -42.0532226562
1494295656.2644219398,       -0.7690429688,        0.2553710938,       -0.0302734375,      -15.3350830078,        2.3956298828,      -42.0532226562
1494295656.2671139240,       -0.7319335938,        0.2954101562,       -0.0400390625,      -11.8408203125,        4.4860839844,      -44.0063476562
1494295656.2698099613,       -0.7319335938,        0.2954101562,       -0.0400390625,      -11.8408203125,        4.4860839844,      -44.0063476562
1494295656.2725551128,       -0.7319335938,        0.2954101562,       -0.0400390625,       -4.9591064453,        5.5236816406,      -44.2810058594
1494295656.2752420902,       -0.7319335938,        0.2954101562,       -0.0400390625,       -4.9591064453,        5.5236816406,      -44.2810058594
1494295656.2779300213,       -0.6787109375,        0.3115234375,       -0.0234375000,        0.2288818359,        5.6915283203,      -44.0368652344
1494295656.2806189060,       -0.6787109375,        0.3115234375,       -0.0234375000,        0.2288818359,        5.6915283203,      -44.0368652344
1494295656.2832200527,       -0.6787109375,        0.3115234375,       -0.0234375000,        5.6152343750,        5.4473876953,      -43.4112548828
1494295656.2857730389,       -0.6787109375,        0.3115234375,       -0.0234375000,        5.6152343750,        5.4473876953,      -43.4112548828
1494295656.2883210182,       -0.6899414062,        0.2177734375,       -0.0454101562,       10.2996826172,        4.8980712891,      -42.3583984375
1494295656.2909328938,       -0.6899414062,        0.2177734375,       -0.0454101562,       10.2996826172,        4.8980712891,      -42.3583984375
1494295656.2934908867,       -0.6899414062,        0.2177734375,       -0.0454101562,       14.2059326172,        4.7607421875,      -40.6341552734
1494295656.2960450649,       -0.6899414062,        0.2177734375,       -0.0454101562,       12.1002197266,        4.7607421875,      -40.6341552734
1494295656.2985970974,       -0.7084960938,        0.0903320312,       -0.0737304688,       12.1002197266,        4.7607421875,      -38.3300781250
1494295656.3012878895,       -0.7084960938,        0.0903320312,       -0.0737304688,       13.4735107422,        4.6844482422,      -38.3300781250
1494295656.3038539886,       -0.7084960938,        0.0903320312,       -0.0737304688,       13.4735107422,        4.6844482422,      -34.6984863281
1494295656.3064150810,       -0.7084960938,        0.0903320312,       -0.0566406250,       12.9547119141,        4.2572021484,      -34.6984863281
1494295656.3089699745,       -0.7094726562,        0.0341796875,       -0.0566406250,       12.9547119141,        4.2572021484,      -30.8685302734
1494295656.3116691113,       -0.7094726562,        0.0341796875,       -0.0566406250,       11.3067626953,        2.7008056641,      -30.8685302734
1494295656.3142249584,       -0.7094726562,        0.0341796875,       -0.0566406250,       11.3067626953,        2.7008056641,      -30.8685302734
1494295656.3167800903,       -0.7094726562,       -0.0444335938,       -0.0444335938,        8.6212158203,        1.8463134766,      -27.8320312500
1494295656.3193271160,       -0.7172851562,       -0.0444335938,       -0.0444335938,        8.6212158203,        1.8463134766,      -27.8320312500
1494295656.3220200539,       -0.7172851562,       -0.0444335938,       -0.0444335938,        6.0424804688,        1.5258789062,      -25.4058837891
1494295656.3245708942,       -0.7172851562,       -0.0444335938,       -0.0444335938,        6.0424804688,        1.5258789062,      -25.4058837891
1494295656.3271200657,       -0.7172851562,       -0.1250000000,       -0.0444335938,        3.4790039062,        1.2054443359,      -22.9644775391
1494295656.3296670914,       -0.7070312500,       -0.1250000000,       -0.0444335938,        3.4790039062,        1.2054443359,      -22.9644775391
1494295656.3323531151,       -0.7070312500,       -0.1250000000,       -0.0444335938,        0.7171630859,        1.0681152344,      -20.1263427734
1494295656.3350439072,       -0.7070312500,       -0.1250000000,       -0.0444335938,        0.7171630859,        1.0681152344,      -20.1263427734
1494295656.3377349377,       -0.6953125000,       -0.1030273438,       -0.0581054688,       -1.7089843750,       -0.7476806641,      -16.9525146484
1494295656.3404269218,       -0.6953125000,       -0.1030273438,       -0.0581054688,       -1.7089843750,       -0.7476806641,      -16.9525146484
1494295656.3431620598,       -0.6953125000,       -0.1030273438,       -0.0581054688,       -3.8909912109,       -3.1127929688,      -14.3737792969
1494295656.3458559513,       -0.6953125000,       -0.1030273438,       -0.0581054688,       -3.8909912109,       -3.1127929688,      -14.3737792969
1494295656.3485450745,       -0.7080078125,       -0.0454101562,       -0.0390625000,       -4.5166015625,       -3.7689208984,      -10.7727050781
1494295656.3512399197,       -0.7080078125,       -0.0454101562,       -0.0390625000,       -4.5166015625,       -3.7689208984,      -10.7727050781
1494295656.3539240360,       -0.7080078125,       -0.0454101562,       -0.0390625000,       -3.9672851562,       -5.1574707031,       -6.8511962891
1494295656.3566060066,       -0.7080078125,       -0.0454101562,       -0.0546875000,       -3.9672851562,       -5.1574707031,       -6.8511962891
1494295656.3592948914,       -0.7226562500,       -0.0385742188,       -0.0546875000,       -3.5552978516,       -6.5155029297,       -2.5634765625
1494295656.3619880676,       -0.7226562500,       -0.0385742188,       -0.0546875000,       -3.5552978516,       -6.5155029297,       -2.5634765625
1494295656.3646719456,       -0.7226562500,       -0.0385742188,       -0.0546875000,       -4.9743652344,       -7.4310302734,        1.4953613281
1494295656.3673579693,       -0.8476562500,       -0.0668945312,       -0.0605468750,       -4.9743652344,       -7.4310302734,        1.4953613281
1494295656.3700370789,       -0.7504882812,       -0.0668945312,       -0.0605468750,       -5.7373046875,       -8.8958740234,        5.8746337891
1494295656.3727729321,       -0.7504882812,       -0.0668945312,       -0.0605468750,       -5.7373046875,       -8.8958740234,        5.8746337891
1494295656.3753149509,       -0.7504882812,       -0.0668945312,       -0.0605468750,       -7.7514648438,      -10.6811523438,       10.7269287109
1494295656.3780059814,       -0.7480468750,       -0.0986328125,       -0.0683593750,       -7.7514648438,      -10.6811523438,       10.7269287109
1494295656.3805689812,       -0.7480468750,       -0.0986328125,       -0.0683593750,      -10.1928710938,      -12.0391845703,       15.7165527344
1494295656.3836109638,       -0.7480468750,       -0.0986328125,       -0.0683593750,      -10.1928710938,      -12.0391845703,       15.7165527344
1494295656.3863089085,       -0.7480468750,       -0.0986328125,       -0.0683593750,      -13.1835937500,      -13.4429931641,       20.6756591797
1494295656.3890120983,       -0.7275390625,       -0.0927734375,       -0.0737304688,      -13.1835937500,      -13.4429931641,       20.6756591797
1494295656.3917570114,       -0.7275390625,       -0.0927734375,       -0.0737304688,      -15.2740478516,      -14.9841308594,       26.0162353516
1494295656.3944609165,       -0.7275390625,       -0.0927734375,       -0.0737304688,      -15.2740478516,      -14.9841308594,       26.0162353516
1494295656.3971641064,       -0.7275390625,       -0.0927734375,       -0.0810546875,      -17.0135498047,      -16.5100097656,       31.7230224609
1494295656.3998670578,       -0.7236328125,       -0.0717773438,       -0.0810546875,      -17.0135498047,      -16.5100097656,       31.7230224609
1494295656.4025759697,       -0.7236328125,       -0.0717773438,       -0.0810546875,      -18.0511474609,      -17.9290771484,       37.3687744141
1494295656.4052710533,       -0.7236328125,       -0.0717773438,       -0.0810546875,      -18.0511474609,      -17.9290771484,       37.3687744141
1494295656.4079709053,       -0.7050781250,       -0.1025390625,       -0.1059570312,      -19.1650390625,      -19.4244384766,       43.2586669922
1494295656.4106819630,       -0.7050781250,       -0.1025390625,       -0.1059570312,      -19.1650390625,      -19.4244384766,       43.2586669922
1494295656.4132480621,       -0.7050781250,       -0.1025390625,       -0.1059570312,      -23.0712890625,      -19.9584960938,       48.7213134766
1494295656.4158089161,       -0.7050781250,       -0.1025390625,       -0.1059570312,      -21.5911865234,      -19.9584960938,       48.7213134766
1494295656.4183681011,       -0.6933593750,       -0.2001953125,       -0.1225585938,      -21.5911865234,      -19.9584960938,       53.0090332031
1494295656.4209699631,       -0.6933593750,       -0.2001953125,       -0.1225585938,      -25.4669189453,      -20.7366943359,       53.0090332031
1494295656.4235301018,       -0.6933593750,       -0.2001953125,       -0.1225585938,      -25.4669189453,      -20.7366943359,       56.2438964844
1494295656.4260830879,       -0.6933593750,       -0.2001953125,       -0.1225585938,      -31.9366455078,      -22.6135253906,       56.2438964844
1494295656.4286420345,       -0.6508789062,       -0.2021484375,       -0.0751953125,      -31.9366455078,      -22.6135253906,       60.1501464844
1494295656.4312920570,       -0.6508789062,       -0.2021484375,       -0.0751953125,      -38.0249023438,      -24.4293212891,       59.6618652344
1494295656.4338569641,       -0.6508789062,       -0.2021484375,       -0.0751953125,      -38.0249023438,      -24.4293212891,       59.6618652344
1494295656.4364140034,       -0.6508789062,       -0.2021484375,       -0.0751953125,      -41.3208007812,      -27.5115966797,       62.6678466797
1494295656.4389760494,       -0.6459960938,       -0.0385742188,       -0.0312500000,      -41.3208007812,      -27.5115966797,       62.6678466797
1494295656.4416990280,       -0.6459960938,       -0.0385742188,       -0.0312500000,      -41.1834716797,      -30.0140380859,       65.9790039062
1494295656.4444038868,       -0.6459960938,       -0.0385742188,       -0.0312500000,      -41.1834716797,      -30.0140380859,       65.9790039062
1494295656.4472119808,       -0.6459960938,       -0.0385742188,       -0.0312500000,      -37.8570556641,      -32.4554443359,       69.4885253906
1494295656.4499139786,       -0.7163085938,        0.1269531250,       -0.0644531250,      -37.8570556641,      -32.4554443359,       69.4885253906
1494295656.4526278973,       -0.7163085938,        0.1269531250,       -0.0644531250,      -30.9600830078,      -32.9895019531,       72.7996826172
1494295656.4553329945,       -0.7163085938,        0.1269531250,       -0.0644531250,      -30.9600830078,      -32.9895019531,       72.7996826172
1494295656.4580349922,       -0.7163085938,        0.2016601562,       -0.0761718750,      -23.7274169922,      -32.9132080078,       76.1260986328
1494295656.4607419968,       -0.7919921875,        0.2016601562,       -0.0761718750,      -23.7274169922,      -32.9132080078,       76.1260986328
1494295656.4634449482,       -0.7919921875,        0.2016601562,       -0.0761718750,      -16.5710449219,      -33.1268310547,       79.2541503906
1494295656.4661459923,       -0.7919921875,        0.2016601562,       -0.0761718750,      -16.5710449219,      -33.1268310547,       79.2541503906
1494295656.4688529968,       -0.8164062500,        0.1953125000,       -0.0541992188,      -10.4675292969,      -34.2712402344,       82.1685791016
1494295656.4715280533,       -0.8164062500,        0.1953125000,       -0.0541992188,      -10.4675292969,      -34.2712402344,       82.1685791016
1494295656.4740889072,       -0.8164062500,        0.1953125000,       -0.0541992188,       -6.6223144531,      -34.8663330078,       84.5947265625
1494295656.4766459465,       -0.8164062500,        0.1953125000,       -0.0541992188,       -6.6223144531,      -34.8663330078,       84.5947265625
1494295656.4791989326,       -0.7675781250,        0.1284179688,       -0.0390625000,       -3.2196044922,      -34.6984863281,       86.4410400391
1494295656.4818859100,       -0.7675781250,        0.1284179688,       -0.0390625000,       -3.2196044922,      -34.6984863281,       86.4410400391
1494295656.4844470024,       -0.7675781250,        0.1284179688,       -0.0390625000,       -0.9460449219,      -34.3475341797,       87.4176025391
1494295656.4870080948,       -0.7675781250,        0.1284179688,       -0.0390625000,       -0.9460449219,      -34.3475341797,       87.4176025391
1494295656.4895589352,       -0.7104492188,        0.1166992188,       -0.0385742188,        0.9765625000,      -33.0047607422,       87.8295898438
1494295656.4922299385,       -0.7104492188,        0.1166992188,       -0.0385742188,        0.9765625000,      -33.0047607422,       87.8295898438
1494295656.4949040413,       -0.7104492188,        0.1166992188,       -0.0385742188,        0.0762939453,      -31.3873291016,       88.5467529297
1494295656.4978060722,       -0.7104492188,        0.1166992188,        0.0122070312,        0.0762939453,      -31.3873291016,       88.5467529297
1494295656.5009279251,       -0.6049804688,        0.1020507812,        0.0122070312,       -5.1574707031,      -29.5562744141,       88.8214111328
1494295656.5036311150,       -0.6049804688,        0.1020507812,        0.0122070312,       -5.1574707031,      -29.5562744141,       88.8214111328
1494295656.5063269138,       -0.6049804688,        0.1020507812,        0.0122070312,      -12.4511718750,      -29.1595458984,       89.5080566406
1494295656.5090270042,       -0.5766601562,        0.0761718750,        0.1357421875,      -12.4511718750,      -29.1595458984,       89.5080566406
1494295656.5117681026,       -0.5766601562,        0.0761718750,        0.1357421875,      -19.7448730469,      -30.4870605469,       90.5914306641
1494295656.5144679546,       -0.5766601562,        0.0761718750,        0.1357421875,      -19.7448730469,      -30.4870605469,       90.5914306641
1494295656.5171658993,       -0.5766601562,        0.0761718750,        0.1357421875,      -27.2064208984,      -31.5551757812,       91.8273925781
1494295656.5198628902,       -0.6235351562,        0.0507812500,        0.1645507812,      -27.2064208984,      -31.5551757812,       91.8273925781
1494295656.5226850510,       -0.6235351562,        0.0507812500,        0.1645507812,      -34.7595214844,      -31.7230224609,       92.7734375000
1494295656.5253810883,       -0.6235351562,        0.0507812500,        0.1645507812,      -34.7595214844,      -31.7230224609,       92.7734375000
1494295656.5280740261,       -0.6235351562,        0.0507812500,        0.1635742188,      -42.4041748047,      -32.8216552734,       93.9025878906
1494295656.5307779312,       -0.6269531250,        0.0615234375,        0.1635742188,      -42.4041748047,      -32.8216552734,       93.9025878906
1494295656.5333371162,       -0.6269531250,        0.0615234375,        0.1635742188,      -47.9125976562,      -34.7900390625,       94.2535400391
1494295656.5358951092,       -0.6269531250,        0.0615234375,        0.1635742188,      -47.9125976562,      -34.7900390625,       94.2535400391
1494295656.5384550095,       -0.6269531250,        0.1865234375,        0.0517578125,      -47.8820800781,      -34.4848632812,       96.2524414062
1494295656.5410161018,       -0.6586914062,        0.1689453125,        0.0517578125,      -47.8820800781,      -34.4848632812,       96.2524414062
1494295656.5435750484,       -0.6586914062,        0.1689453125,        0.0517578125,      -47.8820800781,      -31.9366455078,       98.4497070312
1494295656.5461339951,       -0.6586914062,        0.1689453125,        0.0517578125,      -44.0521240234,      -31.9366455078,       98.4497070312
1494295656.5486979485,       -0.6586914062,        0.2255859375,       -0.0239257812,      -44.0521240234,      -31.9366455078,       99.0295410156
1494295656.5513029099,       -0.6621093750,        0.2255859375,       -0.0239257812,      -43.4265136719,      -30.0292968750,       99.0295410156
1494295656.5538640022,       -0.6621093750,        0.2255859375,       -0.0239257812,      -43.4265136719,      -30.0292968750,       99.0295410156
1494295656.5564239025,       -0.6621093750,        0.2255859375,       -0.0239257812,      -44.7082519531,      -29.6783447266,       98.0834960938
1494295656.5589790344,       -0.6621093750,        0.2368164062,        0.0888671875,      -44.7082519531,      -29.6783447266,       98.0834960938
1494295656.5616939068,       -0.6630859375,        0.2368164062,        0.0888671875,      -46.5240478516,      -31.0974121094,       97.0916748047
1494295656.5643739700,       -0.6630859375,        0.2368164062,        0.0888671875,      -46.5240478516,      -31.0974121094,       97.0916748047
1494295656.5670530796,       -0.6630859375,        0.2368164062,        0.0888671875,      -48.8281250000,      -32.3791503906,       96.2829589844
1494295656.5697340965,       -0.7172851562,        0.3520507812,        0.1337890625,      -48.8281250000,      -32.3791503906,       96.2829589844
1494295656.5724399090,       -0.7172851562,        0.3520507812,        0.1337890625,      -45.0744628906,      -33.8592529297,       95.0469970703
1494295656.5751309395,       -0.7172851562,        0.3520507812,        0.1337890625,      -45.0744628906,      -33.8592529297,       95.0469970703
1494295656.5778288841,       -0.7172851562,        0.3520507812,        0.1337890625,      -35.8734130859,      -35.2630615234,       92.9870605469
1494295656.5805270672,       -0.6030273438,        0.4536132812,        0.1254882812,      -35.8734130859,      -35.2630615234,       92.9870605469
1494295656.5832340717,       -0.6030273438,        0.4536132812,        0.1254882812,      -23.4527587891,      -36.2396240234,       91.4459228516
1494295656.5859339237,       -0.6030273438,        0.4536132812,        0.1254882812,      -23.4527587891,      -36.2396240234,       91.4459228516
1494295656.5886321068,       -0.6030273438,        0.4536132812,        0.0361328125,      -12.1612548828,      -36.1022949219,       90.9271240234
1494295656.5913650990,       -0.6508789062,        0.3364257812,        0.0361328125,      -12.1612548828,      -36.1022949219,       90.9271240234
1494295656.5941689014,       -0.6508789062,        0.3364257812,        0.0361328125,       -5.0506591797,      -34.5611572266,       90.3015136719
1494295656.5968639851,       -0.6508789062,        0.3364257812,        0.0361328125,       -5.0506591797,      -34.5611572266,       90.3015136719
1494295656.5995590687,       -0.7636718750,        0.1347656250,       -0.0644531250,       -5.3710937500,      -34.7900390625,       89.5385742188
1494295656.6022670269,       -0.7636718750,        0.1347656250,       -0.0644531250,       -5.3710937500,      -34.7900390625,       89.5385742188
1494295656.6049590111,       -0.7636718750,        0.1347656250,       -0.0644531250,      -11.0778808594,      -36.7736816406,       89.5080566406
1494295656.6076569557,       -0.7636718750,        0.1347656250,       -0.0644531250,      -11.0778808594,      -36.7736816406,       89.5080566406
1494295656.6103570461,       -0.8076171875,        0.2460937500,       -0.0449218750,      -15.7165527344,      -36.0107421875,       89.3249511719
1494295656.6129519939,       -0.8076171875,        0.2460937500,       -0.0449218750,      -15.7165527344,      -36.0107421875,       89.3249511719
1494295656.6155099869,       -0.8076171875,        0.2460937500,       -0.0449218750,      -19.4091796875,      -35.2020263672,       88.0126953125
1494295656.6182188988,       -0.8076171875,        0.2460937500,       -0.0449218750,      -19.4091796875,      -35.2020263672,       88.0126953125
1494295656.6211791039,       -0.6987304688,        0.5419921875,       -0.0410156250,      -22.2778320312,      -35.8276367188,       86.5478515625
1494295656.6238920689,       -0.6987304688,        0.5419921875,       -0.0410156250,      -22.2778320312,      -35.8276367188,       86.5478515625
1494295656.6265950203,       -0.6987304688,        0.5419921875,       -0.0410156250,      -21.4080810547,      -38.2690429688,       85.8001708984
1494295656.6292979717,       -0.6987304688,        0.5180664062,       -0.0332031250,      -21.4080810547,      -38.2690429688,       85.8001708984
1494295656.6320130825,       -0.5346679688,        0.5180664062,       -0.0332031250,      -16.9525146484,      -39.7033691406,       85.4949951172
1494295656.6347119808,       -0.5346679688,        0.5180664062,       -0.0332031250,      -16.9525146484,      -39.7033691406,       85.4949951172
1494295656.6374120712,       -0.5346679688,        0.5180664062,       -0.0332031250,      -11.6729736328,      -40.8782958984,       83.1451416016
1494295656.6401100159,       -0.6606445312,        0.4165039062,        0.0249023438,      -11.6729736328,      -40.8782958984,       83.1451416016
1494295656.6428239346,       -0.6606445312,        0.4165039062,        0.0249023438,       -7.2784423828,      -42.2363281250,       79.4677734375
1494295656.6455199718,       -0.6606445312,        0.4165039062,        0.0249023438,       -7.2784423828,      -42.2363281250,       79.4677734375
1494295656.6482141018,       -0.6606445312,        0.4165039062,        0.0249023438,       -2.9907226562,      -43.1976318359,       77.1942138672
1494295656.6509490013,       -0.7797851562,        0.3774414062,       -0.0014648438,       -2.9907226562,      -43.1976318359,       77.1942138672
1494295656.6535050869,       -0.7797851562,        0.3774414062,       -0.0014648438,       -0.3814697266,      -44.6929931641,       75.9124755859
1494295656.6560640335,       -0.7797851562,        0.3774414062,       -0.0014648438,       -0.3814697266,      -44.6929931641,       75.9124755859
1494295656.6586201191,       -0.7797851562,        0.3774414062,       -0.0014648438,        1.3580322266,      -45.0592041016,       74.8901367188
1494295656.6611919403,       -0.6416015625,        0.3798828125,        0.1328125000,        1.3580322266,      -45.0592041016,       74.8901367188
1494295656.6637508869,       -0.6416015625,        0.3798828125,        0.1328125000,        0.9918212891,      -45.8221435547,       73.3489990234
1494295656.6663119793,       -0.6416015625,        0.3798828125,        0.1328125000,        0.9918212891,      -45.8221435547,       73.3489990234
1494295656.6689829826,       -0.6416015625,        0.3798828125,        0.1328125000,       -2.9144287109,      -43.9300537109,       71.0449218750
1494295656.6716680527,       -0.6074218750,        0.4531250000,        0.1748046875,       -0.0305175781,      -43.9300537109,       71.0449218750
1494295656.6742210388,       -0.6074218750,        0.4531250000,        0.1748046875,       -0.0305175781,      -40.8477783203,       68.5729980469
1494295656.6767790318,       -0.6074218750,        0.4531250000,        0.1748046875,        0.8239746094,      -40.8477783203,       68.5729980469
1494295656.6793389320,       -0.6074218750,        0.4531250000,        0.1684570312,        0.8239746094,      -36.9415283203,       66.5893554688
1494295656.6820969582,       -0.5898437500,        0.4907226562,        0.1684570312,        4.2877197266,      -37.9333496094,       66.5893554688
1494295656.6847939491,       -0.5898437500,        0.4907226562,        0.1684570312,        4.2877197266,      -37.9333496094,       65.1702880859
1494295656.6874849796,       -0.5898437500,        0.4907226562,        0.1684570312,        8.3312988281,      -35.2783203125,       65.1702880859
1494295656.6901791096,       -0.5898437500,        0.4013671875,        0.1713867188,        8.3312988281,      -35.2783203125,       65.2618408203
1494295656.6928811073,       -0.5791015625,        0.4013671875,        0.1713867188,       12.6342773438,      -31.5093994141,       65.2618408203
1494295656.6955800056,       -0.5791015625,        0.4013671875,        0.1713867188,       12.6342773438,      -31.5093994141,       65.0024414062
1494295656.6982829571,       -0.5791015625,        0.4013671875,        0.1713867188,       14.1754150391,      -27.2216796875,       65.0024414062
1494295656.7009840012,       -0.7324218750,        0.4389648438,        0.1752929688,       14.1754150391,      -27.2216796875,       63.3697509766
1494295656.7035419941,       -0.7324218750,        0.4389648438,        0.1752929688,       13.1072998047,      -23.1475830078,       63.3697509766
1494295656.7061009407,       -0.7324218750,        0.4389648438,        0.1752929688,       13.1072998047,      -23.1475830078,       63.3697509766
1494295656.7086529732,       -0.7324218750,        0.4389648438,        0.1752929688,       12.0239257812,      -19.2718505859,       60.5316162109
1494295656.7112538815,       -0.7456054688,        0.4355468750,        0.1684570312,       12.0239257812,      -19.2718505859,       60.5316162109
1494295656.7139570713,       -0.7456054688,        0.4355468750,        0.1684570312,       13.3056640625,      -15.2740478516,       57.5103759766
1494295656.7166519165,       -0.7456054688,        0.4355468750,        0.1684570312,       13.3056640625,      -15.2740478516,       57.5103759766
1494295656.7193460464,       -0.7456054688,        0.4355468750,        0.1684570312,       14.0075683594,      -12.7258300781,       54.1381835938
1494295656.7220571041,       -0.5966796875,        0.4223632812,        0.2036132812,       14.0075683594,      -12.7258300781,       54.1381835938
1494295656.7247550488,       -0.5966796875,        0.4223632812,        0.2036132812,       14.0228271484,      -11.5814208984,       50.4760742188
1494295656.7274560928,       -0.5966796875,        0.4223632812,        0.2036132812,       14.0228271484,      -11.5814208984,       50.4760742188
1494295656.7301499844,       -0.5966796875,        0.4580078125,        0.1962890625,       11.9934082031,      -12.1002197266,       46.9970703125
1494295656.7328588963,       -0.5883789062,        0.4580078125,        0.1962890625,       11.9934082031,      -12.1002197266,       46.9970703125
1494295656.7355630398,       -0.5883789062,        0.4580078125,        0.1962890625,        8.9569091797,      -12.1612548828,       43.2891845703
1494295656.7383959293,       -0.5883789062,        0.4580078125,        0.1962890625,        8.9569091797,      -12.1612548828,       43.2891845703
1494295656.7413940430,       -0.6533203125,        0.4614257812,        0.1186523438,        7.5531005859,      -10.7269287109,       41.0461425781
1494295656.7442140579,       -0.6533203125,        0.4614257812,        0.1186523438,        7.5531005859,      -10.7269287109,       37.1398925781
1494295656.7469079494,       -0.6533203125,        0.4614257812,        0.1186523438,        5.9051513672,       -8.8806152344,       38.5589599609
1494295656.7495980263,       -0.6533203125,        0.4614257812,        0.2436523438,        5.9051513672,       -8.8806152344,       38.5589599609
1494295656.7522089481,       -0.6655273438,        0.4609375000,        0.1411132812,        4.3334960938,       -6.5002441406,       35.9649658203
1494295656.7547590733,       -0.6655273438,        0.4609375000,        0.1411132812,        4.3334960938,       -6.5002441406,       35.9649658203
1494295656.7573111057,       -0.6655273438,        0.4609375000,        0.1411132812,        2.8686523438,       -4.6997070312,       33.6456298828
1494295656.7598609924,       -0.6655273438,        0.4609375000,        0.1816406250,        2.8686523438,       -4.6997070312,       33.6456298828
1494295656.7625598907,       -0.5415039062,        0.4760742188,        0.1816406250,        0.5340576172,       -3.8757324219,       30.7312011719
1494295656.7652509212,       -0.5415039062,        0.4760742188,        0.1816406250,        0.5340576172,       -3.8757324219,       30.7312011719
1494295656.7679479122,       -0.5415039062,        0.4760742188,        0.1816406250,        0.4425048828,       -2.9754638672,       27.6794433594
1494295656.7706770897,       -0.5415039062,        0.5263671875,        0.1645507812,        0.4425048828,       -2.9754638672,       27.6794433594
1494295656.7732329369,       -0.5283203125,        0.5263671875,        0.1645507812,        1.4038085938,       -1.4038085938,       24.4140625000
1494295656.7757899761,       -0.5283203125,        0.5263671875,        0.1645507812,        1.4038085938,       -1.4038085938,       24.4140625000
1494295656.7783420086,       -0.5283203125,        0.5263671875,        0.1645507812,        2.8076171875,       -0.4577636719,       21.5148925781
1494295656.7809419632,       -0.5742187500,        0.5581054688,        0.1225585938,        2.8076171875,       -0.4577636719,       21.5148925781
1494295656.7835030556,       -0.5742187500,        0.5581054688,        0.1225585938,        5.6457519531,       -0.7019042969,       18.3715820312
1494295656.7860600948,       -0.5742187500,        0.5581054688,        0.1225585938,        5.6457519531,       -0.7019042969,       18.3715820312
1494295656.7886159420,       -0.5742187500,        0.5581054688,        0.1225585938,        5.6457519531,       -0.8544921875,       14.8010253906
1494295656.7913138866,       -0.6181640625,        0.5600585938,        0.0815429688,        8.4686279297,       -0.8544921875,       14.8010253906
1494295656.7938740253,       -0.6181640625,        0.5600585938,        0.0815429688,        8.4686279297,       -0.8544921875,       11.5356445312
1494295656.7964289188,       -0.6181640625,        0.5600585938,        0.0815429688,       10.8947753906,       -0.9155273438,       11.5356445312
1494295656.7989850044,       -0.6181640625,        0.5600585938,        0.0815429688,       10.8947753906,       -0.9155273438,        7.4462890625
1494295656.8016951084,       -0.6552734375,        0.5166015625,        0.0952148438,       12.5122070312,       -1.2969970703,        7.4462890625
1494295656.8043930531,       -0.6552734375,        0.5166015625,        0.0952148438,       12.5122070312,       -1.2969970703,        4.2419433594
1494295656.8070890903,       -0.6552734375,        0.5166015625,        0.0952148438,       13.9312744141,       -2.1209716797,        4.2419433594
1494295656.8097839355,       -0.6552734375,        0.5166015625,        0.0952148438,       13.9312744141,       -2.1209716797,        1.4343261719
1494295656.8124799728,       -0.6513671875,        0.4990234375,        0.1015625000,       13.1530761719,       -2.1209716797,        1.4343261719
1494295656.8152809143,       -0.6513671875,        0.4990234375,        0.1015625000,       13.1530761719,       -2.1209716797,       -1.2054443359
1494295656.8179790974,       -0.6513671875,        0.4990234375,        0.1015625000,       11.9934082031,       -1.0223388672,       -1.2054443359
1494295656.8206779957,       -0.6513671875,        0.6240234375,        0.1059570312,       11.9934082031,       -1.0223388672,       -4.9133300781
1494295656.8233671188,       -0.6870117188,        0.5522460938,        0.1059570312,       13.5955810547,        0.8239746094,       -4.9133300781
1494295656.8260629177,       -0.6870117188,        0.5522460938,        0.1059570312,       13.5955810547,        0.8239746094,       -9.9029541016
1494295656.8287570477,       -0.6870117188,        0.5522460938,        0.1059570312,       16.5252685547,        2.4414062500,       -9.9029541016
1494295656.8314299583,       -0.7436523438,        0.5883789062,        0.0815429688,       16.5252685547,        2.4414062500,      -13.8092041016
1494295656.8339860439,       -0.7436523438,        0.5883789062,        0.0815429688,       20.0500488281,        3.6315917969,      -15.5181884766
1494295656.8365368843,       -0.7436523438,        0.5883789062,        0.0815429688,       20.0500488281,        3.6315917969,      -15.5181884766
1494295656.8390929699,       -0.7436523438,        0.5883789062,        0.0815429688,       23.3612060547,        5.1574707031,      -20.6909179688
1494295656.8417160511,       -0.7661132812,        0.5981445312,        0.1088867188,       23.3612060547,        5.1574707031,      -20.6909179688
1494295656.8442718983,       -0.7661132812,        0.5981445312,        0.1088867188,       25.0244140625,        6.6223144531,      -25.4516601562
1494295656.8468279839,       -0.7661132812,        0.5981445312,        0.1088867188,       25.0244140625,        6.6223144531,      -25.4516601562
1494295656.8493819237,       -0.7661132812,        0.5981445312,        0.1088867188,       26.1840820312,        8.6975097656,      -30.3344726562
1494295656.8520240784,       -0.7128906250,        0.5634765625,        0.1152343750,       26.1840820312,        8.6975097656,      -30.3344726562
1494295656.8547189236,       -0.7128906250,        0.5634765625,        0.1152343750,       27.2064208984,       10.1013183594,      -34.8815917969
1494295656.8575789928,       -0.7128906250,        0.5634765625,        0.1152343750,       27.2064208984,       10.1013183594,      -34.8815917969
1494295656.8607079983,       -0.7128906250,        0.5634765625,        0.1215820312,       27.8778076172,       12.2985839844,      -38.7268066406
1494295656.8634099960,       -0.6650390625,        0.5756835938,        0.1215820312,       27.8778076172,       12.2985839844,      -38.7268066406
1494295656.8661100864,       -0.6650390625,        0.5756835938,        0.1215820312,       30.1055908203,       13.9007568359,      -42.7398681641
1494295656.8688089848,       -0.6650390625,        0.5756835938,        0.1215820312,       30.1055908203,       13.9007568359,      -42.7398681641
1494295656.8715519905,       -0.6650390625,        0.5888671875,        0.1499023438,       33.0505371094,       14.6636962891,      -47.4700927734
1494295656.8742508888,       -0.6840820312,        0.5888671875,        0.1499023438,       33.0505371094,       14.6636962891,      -47.4700927734
1494295656.8769481182,       -0.6840820312,        0.5888671875,        0.1499023438,       37.7655029297,       15.0146484375,      -52.8411865234
1494295656.8796479702,       -0.6840820312,        0.5888671875,        0.1499023438,       37.7655029297,       15.0146484375,      -52.8411865234
1494295656.8823580742,       -0.7680664062,        0.6508789062,        0.1547851562,       42.7398681641,       16.2658691406,      -58.5174560547
1494295656.8850560188,       -0.7680664062,        0.6508789062,        0.1547851562,       42.7398681641,       16.2658691406,      -58.5174560547
1494295656.8877539635,       -0.7680664062,        0.6508789062,        0.1547851562,       48.0651855469,       17.6391601562,      -64.2089843750
1494295656.8905649185,       -0.7680664062,        0.6508789062,        0.1547851562,       48.0651855469,       17.6391601562,      -64.2089843750
1494295656.8931469917,       -0.8374023438,        0.5683593750,        0.1020507812,       49.3774414062,       17.8222656250,      -69.7631835938
1494295656.8963649273,       -0.8374023438,        0.5683593750,        0.1020507812,       49.3774414062,       17.8222656250,      -69.7631835938
1494295656.8989219666,       -0.8374023438,        0.5683593750,        0.1020507812,       50.9490966797,       20.0347900391,      -75.0579833984
1494295656.9016749859,       -0.8374023438,        0.5820312500,        0.0585937500,       50.9490966797,       20.0347900391,      -75.0579833984
1494295656.9042260647,       -0.8950195312,        0.5820312500,        0.0585937500,       47.7752685547,       23.3154296875,      -82.1533203125
1494295656.9067769051,       -0.8950195312,        0.5820312500,        0.0585937500,       47.7752685547,       23.3154296875,      -82.1533203125
1494295656.9093389511,       -0.8950195312,        0.5820312500,        0.0585937500,       46.1883544922,       26.2603759766,      -89.5080566406
1494295656.9120750427,       -0.9023437500,        0.6367187500,       -0.0175781250,       46.1883544922,       26.2603759766,      -89.5080566406
1494295656.9146280289,       -0.9023437500,        0.6367187500,       -0.0175781250,       47.7752685547,       31.3262939453,      -97.7325439453
1494295656.9171829224,       -0.9023437500,        0.6367187500,       -0.0175781250,       47.7752685547,       31.3262939453,      -97.7325439453
1494295656.9197320938,       -0.9023437500,        0.6367187500,       -0.0175781250,       47.5463867188,       36.5447998047,     -107.8796386719
1494295656.9223430157,       -0.9355468750,        0.7075195312,       -0.0961914062,       47.5463867188,       36.5447998047,     -107.8796386719
1494295656.9248969555,       -0.9355468750,        0.7075195312,       -0.0961914062,       47.8973388672,       42.6635742188,     -119.3847656250
1494295656.9274520874,       -0.9355468750,        0.7075195312,       -0.0961914062,       47.8973388672,       42.6635742188,     -119.3847656250
1494295656.9300129414,       -0.9355468750,        0.7075195312,       -0.0961914062,       47.8973388672,       50.2624511719,     -131.3934326172
1494295656.9326848984,       -1.0512695312,        0.7646484375,       -0.0971679688,       48.7823486328,       50.2624511719,     -131.3934326172
1494295656.9353849888,       -1.0512695312,        0.7646484375,       -0.0971679688,       48.7823486328,       57.7850341797,     -144.8669433594
1494295656.9380869865,       -1.0512695312,        0.7646484375,       -0.0971679688,       49.2401123047,       57.7850341797,     -144.8669433594
1494295656.9407939911,       -1.0512695312,        0.7646484375,       -0.0971679688,       49.2401123047,       65.5975341797,     -160.2783203125
1494295656.9433569908,       -1.2788085938,        0.7988281250,       -0.0429687500,       50.7354736328,       65.7348632812,     -160.2783203125
1494295656.9459140301,       -1.2788085938,        0.7988281250,       -0.0429687500,       50.7354736328,       65.7348632812,     -178.4057617188
1494295656.9484720230,       -1.2788085938,        0.7988281250,       -0.0429687500,       52.2308349609,       73.7915039062,     -178.4057617188
1494295656.9510600567,       -1.2788085938,        0.7988281250,       -0.0429687500,       52.2308349609,       73.7915039062,     -201.8432617188
1494295656.9537599087,       -1.6860351562,        0.7407226562,       -0.0004882812,       54.7332763672,       80.7495117188,     -199.2645263672
1494295656.9564549923,       -1.6860351562,        0.7407226562,       -0.0004882812,       54.7332763672,       80.7495117188,     -218.7957763672
1494295656.9591579437,       -1.6860351562,        0.7407226562,       -0.0004882812,       59.2346191406,       87.2497558594,     -222.5036621094
1494295656.9618680477,       -1.6860351562,        0.6157226562,        0.0957031250,       59.2346191406,       87.2497558594,     -249.8474121094
1494295656.9646871090,       -2.2470703125,        0.5454101562,        0.0957031250,       66.6961669922,       94.2230224609,     -246.7498779297
1494295656.9673919678,       -2.2470703125,        0.5454101562,        0.0957031250,       66.6961669922,       94.2230224609,     -274.0936279297
1494295656.9700889587,       -2.2470703125,        0.5454101562,        0.0957031250,       73.2421875000,      100.2960205078,     -274.1851806641
1494295656.9728090763,       -2.9541015625,        0.0297851562,        0.2846679688,       73.2421875000,      100.2960205078,     -305.4351806641
1494295656.9755070210,       -2.9541015625,        0.0297851562,        0.2846679688,       77.6367187500,      101.8829345703,     -308.0139160156
1494295656.9784410000,       -2.9541015625,        0.0297851562,        0.2846679688,       77.6367187500,      101.8829345703,     -350.0823974609
1494295656.9815530777,       -2.9541015625,        0.0297851562,        0.5346679688,       81.6802978516,       99.4110107422,     -350.0823974609
1494295656.9842500687,       -3.5913085938,       -1.0112304688,        0.5395507812,       81.6802978516,       95.5047607422,     -398.7579345703
1494295656.9869520664,       -3.5913085938,       -1.0112304688,        0.5395507812,       86.5936279297,       96.9390869141,     -398.7579345703
1494295656.9896450043,       -3.5913085938,       -1.0112304688,        0.5395507812,       86.5936279297,       96.9390869141,     -450.6530761719
1494295656.9922969341,       -3.5913085938,       -1.3793945312,        0.6323242188,       95.8099365234,       95.5657958984,     -450.6530761719
1494295656.9948549271,       -4.0439453125,       -1.3793945312,        0.6323242188,       95.8099365234,       95.5657958984,     -478.1951904297
1494295656.9974141121,       -4.0439453125,       -1.3793945312,        0.6323242188,       84.8083496094,       92.3767089844,     -478.1951904297
1494295656.9999709129,       -4.0439453125,       -1.3793945312,        0.6323242188,       84.8083496094,       92.3767089844,     -478.1951904297
1494295657.0026409626,       -4.9189453125,        0.9492187500,        0.8315429688,       57.4951171875,       93.1396484375,     -444.0307617188
1494295657.0053360462,       -4.9775390625,        0.9492187500,        0.8315429688,       57.4951171875,       93.1396484375,     -444.0307617188
1494295657.0080330372,       -4.9775390625,        0.9492187500,        0.8315429688,       26.8859863281,       97.5341796875,     -347.5189208984
1494295657.0107319355,       -4.9775390625,        0.9492187500,        0.8315429688,       26.8859863281,       97.5341796875,     -347.5189208984
1494295657.0132880211,       -1.9423828125,        4.7182617188,        2.2763671875,       11.3830566406,      127.6092529297,     -258.8500976562
1494295657.0158441067,       -1.9423828125,        4.7182617188,        2.2763671875,       11.3830566406,      127.6092529297,     -258.8500976562
1494295657.0183959007,       -1.9423828125,        4.7182617188,        2.2763671875,       17.2882080078,      151.7333984375,     -215.5456542969
1494295657.0209920406,       -1.9423828125,        4.7182617188,        2.2763671875,       17.2882080078,      151.7333984375,     -215.5456542969
1494295657.0235459805,        3.6250000000,        3.7714843750,        1.9555664062,      108.8714599609,        9.1247558594,     -124.4812011719
1494295657.0260930061,        3.6250000000,        3.7714843750,        1.9555664062,      108.8714599609,        9.1247558594,     -124.4812011719
1494295657.0286469460,        3.6250000000,        3.7714843750,        1.9555664062,      164.0777587891,     -127.9144287109,        3.4942626953
1494295657.0313329697,        3.6250000000,        3.7714843750,        1.9555664062,      164.0777587891,     -127.9144287109,        3.4942626953
1494295657.0338850021,       -0.0957031250,       -0.6406250000,       -0.2915039062,      132.6599121094,      -99.9755859375,       84.4421386719
1494295657.0365509987,       -0.0957031250,       -0.6406250000,       -0.2915039062,      132.6599121094,      -99.9755859375,       84.4421386719
1494295657.0391190052,       -0.0957031250,       -0.6406250000,       -0.2915039062,       97.5036621094,      -89.6759033203,      115.1428222656
1494295657.0418300629,       -0.0957031250,       -0.6406250000,       -0.2915039062,       95.6420898438,      -89.6759033203,      115.1428222656
1494295657.0443890095,       -0.8750000000,       -0.4741210938,       -0.7646484375,       95.6420898438,      -87.2955322266,      147.8118896484
1494295657.0469460487,       -0.8750000000,       -0.4741210938,       -0.7646484375,       25.3906250000,      -87.2955322266,      147.8118896484
1494295657.0495109558,       -0.8750000000,       -0.4741210938,       -0.7646484375,       25.3906250000,      -83.3892822266,      181.7016601562
1494295657.0521910191,       -0.8750000000,       -0.4741210938,       -0.1396484375,      -23.8952636719,      -82.1533203125,      181.7016601562
1494295657.0548889637,       -0.9272460938,        0.7509765625,       -0.1503906250,      -23.8952636719,      -82.1533203125,      195.9686279297
1494295657.0575919151,       -0.9272460938,        0.7509765625,       -0.1503906250,      -45.4406738281,      -76.9805908203,      195.9686279297
1494295657.0602889061,       -0.9272460938,        0.7509765625,       -0.1503906250,      -45.4406738281,      -76.9805908203,      193.0999755859
1494295657.0630071163,       -0.9272460938,       -0.1987304688,       -0.6176757812,      -51.5747070312,      -74.1882324219,      193.0999755859
1494295657.0657091141,       -0.7343750000,       -0.1987304688,       -0.6176757812,      -51.5747070312,      -74.1882324219,      176.7883300781
1494295657.0684089661,       -0.7343750000,       -0.1987304688,       -0.6176757812,      -48.0651855469,      -64.8193359375,      176.7883300781
1494295657.0711390972,       -0.7343750000,       -0.1987304688,       -0.6176757812,      -48.0651855469,      -64.8193359375,      149.3072509766
1494295657.0736958981,       -0.4453125000,       -1.0351562500,       -1.0717773438,      -44.6472167969,      -48.5382080078,      149.3072509766
1494295657.0762519836,       -0.4453125000,       -1.0351562500,       -1.0717773438,      -44.6472167969,      -48.5382080078,      149.3072509766
1494295657.0788180828,       -0.4453125000,       -1.0351562500,       -1.0717773438,      -54.0618896484,      -31.1737060547,      114.7766113281
1494295657.0814828873,       -0.4453125000,       -1.0351562500,       -1.0717773438,      -54.0618896484,      -31.1737060547,      114.7766113281
1494295657.0840480328,       -0.0874023438,       -1.1767578125,       -0.8525390625,      -74.4781494141,      -17.1966552734,       76.8280029297
1494295657.0866069794,       -0.0874023438,       -1.1767578125,       -0.8525390625,      -74.4781494141,      -17.1966552734,       76.8280029297
1494295657.0891690254,       -0.0874023438,       -1.1767578125,       -0.8525390625,      -95.5047607422,       -9.5214843750,       41.9769287109
1494295657.0917589664,       -0.0874023438,       -1.1767578125,       -0.8525390625,      -95.5047607422,       -9.5214843750,       41.9769287109
1494295657.0943169594,        0.1518554688,       -0.7407226562,       -0.4741210938,     -109.9548339844,       -4.5471191406,       13.7023925781
1494295657.0970890522,        0.1518554688,       -0.7407226562,       -0.4741210938,     -109.9548339844,       -4.5471191406,       13.7023925781
1494295657.0996561050,        0.1518554688,       -0.7407226562,       -0.4741210938,     -120.6665039062,       -2.0294189453,       -9.2468261719
1494295657.1026120186,        0.1518554688,       -0.7407226562,       -0.2241210938,     -120.6665039062,       -2.0294189453,       -9.2468261719
1494295657.1052739620,        0.0810546875,       -0.5219726562,       -0.1914062500,     -132.3699951172,       -0.0915527344,      -27.8167724609
1494295657.1079289913,        0.0810546875,       -0.5219726562,       -0.1914062500,     -132.3699951172,       -0.0915527344,      -27.8167724609
1494295657.1106979847,        0.0810546875,       -0.5219726562,       -0.1914062500,     -143.2342529297,       -0.0762939453,      -41.3360595703
1494295657.1134030819,        0.0810546875,       -0.2128906250,        0.1215820312,     -143.2342529297,       -0.0762939453,      -41.3360595703
1494295657.1161029339,        0.0493164062,       -0.2128906250,        0.1215820312,     -140.1367187500,       -1.7547607422,      -52.4902343750
1494295657.1187999249,        0.0493164062,       -0.2128906250,        0.1215820312,     -140.1367187500,       -1.7547607422,      -52.4902343750
1494295657.1215000153,        0.0493164062,       -0.2128906250,        0.1215820312,     -117.2943115234,       -2.5634765625,      -59.5245361328
1494295657.1241970062,        0.1230468750,        0.0688476562,        0.1367187500,     -117.2943115234,       -2.5634765625,      -59.5245361328
1494295657.1268939972,        0.1230468750,        0.0688476562,        0.1367187500,      -82.8552246094,       -4.2724609375,      -61.9354248047
1494295657.1295900345,        0.1230468750,        0.0688476562,        0.1367187500,      -82.8552246094,       -4.2724609375,      -61.9354248047
1494295657.1322081089,        0.1230468750,        0.0688476562,        0.1367187500,      -45.9136962891,       -8.7890625000,      -60.4248046875
1494295657.1347649097,        0.1391601562,        0.1831054688,        0.0112304688,      -45.9136962891,       -8.7890625000,      -60.4248046875
1494295657.1373169422,        0.1391601562,        0.1831054688,        0.0112304688,      -11.3830566406,      -13.4429931641,      -54.0924072266
1494295657.1398799419,        0.1391601562,        0.1831054688,        0.0112304688,      -11.3830566406,      -13.4429931641,      -54.0924072266
1494295657.1424849033,        0.1391601562,        0.1831054688,        0.0112304688,       19.8669433594,      -17.7001953125,      -46.2493896484
1494295657.1450428963,        0.0288085938,        0.3007812500,       -0.0952148438,       19.7448730469,      -17.7001953125,      -46.2493896484
1494295657.1476049423,        0.0288085938,        0.3007812500,       -0.0952148438,       19.7448730469,      -21.6064453125,      -38.5131835938
1494295657.1501669884,        0.0288085938,        0.3007812500,       -0.0952148438,       50.7659912109,      -21.1639404297,      -38.5131835938
1494295657.1528229713,        0.0288085938,        0.3007812500,       -0.0952148438,       50.7659912109,      -21.1639404297,      -29.2358398438
1494295657.1553900242,       -0.0805664062,        0.5043945312,       -0.1552734375,       79.2694091797,      -23.9715576172,      -29.2358398438
1494295657.1579520702,       -0.0805664062,        0.5043945312,       -0.1552734375,       79.2694091797,      -23.9715576172,      -17.5170898438
1494295657.1605141163,       -0.0805664062,        0.5043945312,       -0.1552734375,      102.5543212891,      -25.7263183594,      -19.0124511719
1494295657.1633119583,       -0.0805664062,        0.5043945312,       -0.1801757812,      102.5543212891,      -25.7263183594,      -11.1999511719
1494295657.1660120487,       -0.1254882812,        0.5209960938,       -0.1801757812,      117.2637939453,      -27.8320312500,       -9.3536376953
1494295657.1687150002,       -0.1254882812,        0.5209960938,       -0.1801757812,      117.2637939453,      -27.8320312500,        2.3651123047
1494295657.1714229584,       -0.1254882812,        0.5209960938,       -0.1801757812,      120.7427978516,      -29.8767089844,        0.0457763672
1494295657.1741170883,       -0.1254882812,        0.3994140625,       -0.2983398438,      120.7427978516,      -29.8767089844,        0.0457763672
1494295657.1768200397,       -0.1489257812,        0.3994140625,       -0.2983398438,      114.0441894531,      -30.4565429688,        8.8958740234
1494295657.1795210838,       -0.1489257812,        0.3994140625,       -0.2983398438,      114.0441894531,      -30.4565429688,        8.8958740234
1494295657.1822350025,       -0.1489257812,        0.3994140625,       -0.2983398438,       96.7864990234,      -28.4881591797,       17.1356201172
1494295657.1850540638,       -0.1845703125,        0.1894531250,       -0.4565429688,       96.7864990234,      -28.4881591797,       24.9481201172
1494295657.1877579689,       -0.1845703125,        0.1894531250,       -0.4565429688,       71.1364746094,      -24.2156982422,       24.8413085938
1494295657.1904621124,       -0.1845703125,        0.1894531250,       -0.4565429688,       71.1364746094,      -24.2156982422,       24.8413085938
1494295657.1930470467,       -0.1845703125,        0.1894531250,       -0.4565429688,       39.4134521484,      -17.4865722656,       31.7535400391
1494295657.1956079006,       -0.2216796875,       -0.0268554688,       -0.5200195312,       39.4134521484,      -17.4865722656,       31.7535400391
1494295657.1981689930,       -0.2216796875,       -0.0268554688,       -0.5200195312,        6.9580078125,      -10.4522705078,       37.3992919922
1494295657.2007150650,       -0.2216796875,       -0.0268554688,       -0.5200195312,        6.9580078125,      -10.4522705078,       37.3992919922
1494295657.2033829689,       -0.2216796875,       -0.0268554688,       -0.3950195312,      -22.6287841797,       -4.2572021484,       39.5812988281
1494295657.2060370445,       -0.1713867188,       -0.1152343750,       -0.4550781250,      -22.6287841797,       -4.2572021484,       39.5812988281
1494295657.2086949348,       -0.1713867188,       -0.1152343750,       -0.4550781250,      -46.6003417969,       -0.2746582031,       38.9099121094
1494295657.2117021084,       -0.1713867188,       -0.1152343750,       -0.4550781250,      -46.6003417969,       -0.2746582031,       38.9099121094
1494295657.2143580914,       -0.0463867188,       -0.0546875000,       -0.3364257812,      -64.9871826172,        1.8768310547,       35.7971191406
1494295657.2170579433,       -0.0708007812,       -0.0546875000,       -0.3364257812,      -64.9871826172,        1.8768310547,       35.7971191406
1494295657.2197630405,       -0.0708007812,       -0.0546875000,       -0.3364257812,      -76.3244628906,        3.5858154297,       31.1737060547
1494295657.2227001190,       -0.0708007812,       -0.0546875000,       -0.3364257812,      -76.3244628906,        3.5858154297,       31.1737060547
1494295657.2254040241,       -0.0244140625,        0.0292968750,       -0.2197265625,      -79.9102783203,        4.8828125000,       26.4434814453
1494295657.2281019688,       -0.0244140625,        0.0292968750,       -0.2197265625,      -79.9102783203,        4.8828125000,       26.4434814453
1494295657.2308120728,       -0.0244140625,        0.0292968750,       -0.2197265625,      -77.4841308594,        6.6528320312,       22.2015380859
1494295657.2335100174,       -0.0244140625,        0.0292968750,       -0.2197265625,      -77.4841308594,        6.6528320312,       22.2015380859
1494295657.2362051010,       -0.0034179688,        0.0781250000,       -0.1445312500,      -70.9533691406,        7.9650878906,       19.2871093750
1494295657.2389030457,       -0.0034179688,        0.0781250000,       -0.1445312500,      -70.9533691406,        7.9650878906,       19.2871093750
1494295657.2415740490,       -0.0034179688,        0.0781250000,       -0.1445312500,      -61.5844726562,        9.0332031250,       16.8151855469
1494295657.2441310883,       -0.0034179688,        0.0781250000,       -0.0888671875,      -61.5844726562,        9.0332031250,       16.8151855469
1494295657.2466909885,       -0.0034179688,        0.0917968750,       -0.0888671875,      -51.6662597656,        9.1400146484,       15.6555175781
1494295657.2492449284,       -0.0034179688,        0.0917968750,       -0.0888671875,      -51.6662597656,        9.1400146484,       15.6555175781
1494295657.2518160343,       -0.0034179688,        0.0917968750,       -0.0888671875,      -42.4041748047,        9.2926025391,       15.1977539062
1494295657.2543730736,       -0.0034179688,        0.0581054688,       -0.0419921875,      -42.4041748047,        9.2926025391,       15.1977539062
1494295657.2570350170,       -0.0307617188,        0.0581054688,       -0.0419921875,      -32.9284667969,        8.7585449219,       15.2587890625
1494295657.2595989704,       -0.0307617188,        0.0581054688,       -0.0419921875,      -32.9284667969,        8.7585449219,       15.2587890625
1494295657.2621660233,       -0.0307617188,        0.0581054688,       -0.0419921875,      -21.2097167969,        8.6364746094,       16.4642333984
1494295657.2647221088,       -0.0307617188,        0.0185546875,       -0.0009765625,      -23.3001708984,        8.6364746094,       16.4642333984
1494295657.2672829628,       -0.0361328125,        0.0185546875,       -0.0009765625,      -23.3001708984,        4.7302246094,       17.4865722656
1494295657.2698349953,       -0.0361328125,        0.0185546875,       -0.0009765625,      -12.8784179688,        7.3242187500,       17.4865722656
1494295657.2724471092,       -0.0361328125,        0.0185546875,       -0.0009765625,      -12.8784179688,        7.3242187500,       18.7988281250
1494295657.2750020027,       -0.0253906250,       -0.0449218750,        0.0019531250,       -1.7700195312,        6.2255859375,       18.7988281250
1494295657.2775440216,       -0.0253906250,       -0.0449218750,        0.0019531250,       -1.7700195312,        6.2255859375,       18.7988281250
1494295657.2800989151,       -0.0253906250,       -0.0449218750,        0.0019531250,        8.5296630859,        5.2642822266,       18.5546875000
1494295657.2828969955,       -0.0253906250,       -0.0449218750,        0.0019531250,        8.5296630859,        5.2642822266,       18.5546875000
1494295657.2855899334,       -0.0351562500,       -0.1601562500,       -0.0185546875,       15.8386230469,        4.5623779297,       17.5170898438
1494295657.2882909775,       -0.0351562500,       -0.1601562500,       -0.0185546875,       15.8386230469,        4.5623779297,       17.5170898438
1494295657.2909910679,       -0.0351562500,       -0.1601562500,       -0.0185546875,       20.6146240234,        4.0283203125,       15.5792236328
1494295657.2935500145,       -0.0351562500,       -0.1601562500,       -0.0185546875,       20.6146240234,        4.0283203125,       15.5792236328
1494295657.2961089611,       -0.0571289062,       -0.2314453125,       -0.0405273438,       22.8576660156,        4.4097900391,       12.4969482422
1494295657.2986640930,       -0.0571289062,       -0.2314453125,       -0.0405273438,       22.8576660156,        4.4097900391,       12.4969482422
1494295657.3012599945,       -0.0571289062,       -0.2314453125,       -0.0405273438,       23.5290527344,        4.5318603516,        9.3688964844
1494295657.3039629459,       -0.0571289062,       -0.2314453125,       -0.0405273438,       23.5290527344,        4.5318603516,        9.3688964844
1494295657.3066570759,       -0.0644531250,       -0.2485351562,       -0.0654296875,       23.3764648438,        4.8522949219,        5.7525634766
1494295657.3093531132,       -0.0644531250,       -0.2485351562,       -0.0654296875,       23.3764648438,        4.8522949219,        5.7525634766
1494295657.3120479584,       -0.0644531250,       -0.2485351562,       -0.0654296875,       22.4761962891,        5.3558349609,        1.7547607422
1494295657.3147439957,       -0.0644531250,       -0.2485351562,       -0.1010742188,       22.4761962891,        5.3558349609,        1.7547607422
1494295657.3174340725,       -0.0581054688,       -0.2158203125,       -0.1010742188,       21.0571289062,        5.7373046875,       -2.6855468750
1494295657.3201310635,       -0.0581054688,       -0.2158203125,       -0.1010742188,       21.0571289062,        5.7373046875,       -2.6855468750
1494295657.3228399754,       -0.0581054688,       -0.2158203125,       -0.1010742188,       20.7672119141,        6.5002441406,       -7.8125000000
1494295657.3255329132,       -0.0581054688,       -0.1474609375,       -0.1171875000,       20.7672119141,        6.5002441406,       -7.8125000000
1494295657.3282260895,       -0.0581054688,       -0.1474609375,       -0.1171875000,       20.3552246094,        8.2092285156,      -12.7258300781
1494295657.3310809135,       -0.0581054688,       -0.1474609375,       -0.1171875000,       20.3552246094,        8.2092285156,      -12.7258300781
1494295657.3337800503,       -0.0581054688,       -0.1474609375,       -0.1171875000,       19.9279785156,        9.1857910156,      -17.7154541016
1494295657.3364779949,       -0.0566406250,       -0.1040039062,       -0.1328125000,       19.9279785156,        9.1857910156,      -17.7154541016
1494295657.3392660618,       -0.0566406250,       -0.1040039062,       -0.1328125000,       19.0887451172,       10.4827880859,      -21.6064453125
1494295657.3421139717,       -0.0566406250,       -0.1040039062,       -0.1328125000,       19.0887451172,       10.4827880859,      -21.6064453125
1494295657.3446810246,       -0.0566406250,       -0.1040039062,       -0.1250000000,       16.8762207031,       12.2222900391,      -24.7650146484
1494295657.3472430706,       -0.0605468750,       -0.0805664062,       -0.1250000000,       16.8762207031,       12.2222900391,      -24.7650146484
1494295657.3498070240,       -0.0605468750,       -0.0805664062,       -0.1250000000,       13.7176513672,       13.9923095703,      -27.3284912109
1494295657.3524730206,       -0.0605468750,       -0.0805664062,       -0.1250000000,       13.7176513672,       13.9923095703,      -27.3284912109
1494295657.3551750183,       -0.0605468750,       -0.0683593750,       -0.0986328125,        8.6669921875,       14.7094726562,      -29.5410156250
1494295657.3578739166,       -0.0502929688,       -0.0683593750,       -0.0986328125,        8.6669921875,       14.7094726562,      -29.5410156250
1494295657.3605699539,       -0.0502929688,       -0.0683593750,       -0.0986328125,        3.0517578125,       15.5639648438,      -31.3873291016
1494295657.3632850647,       -0.0502929688,       -0.0683593750,       -0.0986328125,        3.0517578125,       15.5639648438,      -31.3873291016
1494295657.3659899235,       -0.0527343750,       -0.0375976562,       -0.0859375000,       -1.1901855469,       16.6778564453,      -33.2031250000
1494295657.3686759472,       -0.0527343750,       -0.0375976562,       -0.0859375000,       -1.1901855469,       16.6778564453,      -33.2031250000
1494295657.3713560104,       -0.0527343750,       -0.0375976562,       -0.0859375000,       -4.0435791016,       17.0440673828,      -35.3851318359
1494295657.3739149570,       -0.0527343750,       -0.0375976562,       -0.0859375000,       -4.0435791016,       17.0440673828,      -35.3851318359
1494295657.3764719963,       -0.0698242188,       -0.0014648438,       -0.0659179688,       -4.0435791016,       17.3645019531,      -36.7279052734
1494295657.3790359497,       -0.0698242188,       -0.0014648438,       -0.0659179688,       -5.3710937500,       17.3645019531,      -36.7279052734
1494295657.3819129467,       -0.0698242188,       -0.0014648438,       -0.0659179688,       -5.3710937500,       17.3797607422,      -38.3605957031
1494295657.3844709396,       -0.0698242188,       -0.0014648438,       -0.0659179688,       -4.6081542969,       17.3797607422,      -38.3605957031
1494295657.3870239258,       -0.0756835938,        0.0092773438,       -0.0507812500,       -4.6081542969,       17.3797607422,      -40.0238037109
1494295657.3895781040,       -0.0756835938,        0.0092773438,       -0.0507812500,       -1.8768310547,       18.0664062500,      -40.0238037109
1494295657.3924670219,       -0.0756835938,        0.0092773438,       -0.0507812500,       -1.8768310547,       18.0664062500,      -41.2292480469
1494295657.3950159550,       -0.0756835938,        0.0092773438,       -0.0507812500,        1.4495849609,       17.6696777344,      -41.2292480469
1494295657.3975780010,       -0.0937500000,        0.0131835938,       -0.0146484375,        1.4495849609,       17.6696777344,      -41.2292480469
1494295657.4001429081,       -0.0937500000,        0.0131835938,       -0.0146484375,        6.0119628906,       16.8457031250,      -41.7480468750
1494295657.4027559757,       -0.0937500000,        0.0131835938,       -0.0146484375,        6.0119628906,       16.8457031250,      -41.7480468750
1494295657.4054200649,       -0.0937500000,       -0.1118164062,       -0.0029296875,       12.5885009766,       16.0217285156,      -41.8243408203
1494295657.4079809189,       -0.0874023438,       -0.0083007812,       -0.0029296875,       12.5885009766,       16.0217285156,      -41.8243408203
1494295657.4105350971,       -0.0874023438,       -0.0083007812,       -0.0029296875,       20.7519531250,       15.0451660156,      -41.7022705078
1494295657.4131059647,       -0.0874023438,       -0.0083007812,       -0.0029296875,       20.7519531250,       15.0451660156,      -41.7022705078
1494295657.4156599045,       -0.0874023438,       -0.0083007812,       -0.0170898438,       28.3660888672,       14.8010253906,      -41.1987304688
1494295657.4182169437,       -0.0673828125,       -0.0517578125,       -0.0170898438,       28.3660888672,       14.8010253906,      -41.1987304688
1494295657.4207749367,       -0.0673828125,       -0.0517578125,       -0.0170898438,       34.3322753906,       14.3737792969,      -40.7867431641
1494295657.4233350754,       -0.0673828125,       -0.0517578125,       -0.0170898438,       34.3322753906,       14.3737792969,      -40.7867431641
1494295657.4258980751,       -0.0673828125,       -0.0561523438,       -0.0273437500,       38.4063720703,       13.9465332031,      -40.5426025391
1494295657.4284598827,       -0.0620117188,       -0.0561523438,       -0.0273437500,       38.4063720703,       13.9465332031,      -40.5426025391
1494295657.4310159683,       -0.0620117188,       -0.0561523438,       -0.0273437500,       42.3126220703,       13.8397216797,      -39.5355224609
1494295657.4335820675,       -0.0620117188,       -0.0561523438,       -0.0273437500,       42.4346923828,       13.8397216797,      -39.5355224609
1494295657.4361429214,       -0.0620117188,       -0.0410156250,       -0.0312500000,       42.4346923828,       13.8397216797,      -39.2303466797
1494295657.4387230873,       -0.0708007812,       -0.0410156250,       -0.0312500000,       46.9207763672,       14.0686035156,      -39.2303466797
1494295657.4413859844,       -0.0708007812,       -0.0410156250,       -0.0312500000,       46.9207763672,       14.0686035156,      -39.0777587891
1494295657.4440770149,       -0.0708007812,       -0.0410156250,       -0.0312500000,       52.0324707031,       14.0991210938,      -39.0777587891
1494295657.4467709064,       -0.0463867188,       -0.0146484375,       -0.0322265625,       52.0324707031,       14.0991210938,      -39.0319824219
1494295657.4494700432,       -0.0463867188,       -0.0146484375,       -0.0322265625,       56.8847656250,       15.1672363281,      -39.0319824219
1494295657.4521760941,       -0.0463867188,       -0.0146484375,       -0.0322265625,       56.8847656250,       15.1672363281,      -38.5589599609
1494295657.4548799992,       -0.0463867188,       -0.0146484375,       -0.0322265625,       61.4776611328,       15.8386230469,      -38.5589599609
1494295657.4578061104,       -0.0200195312,        0.0317382812,       -0.0014648438,       61.4776611328,       11.9323730469,      -37.6892089844
1494295657.4609570503,       -0.0200195312,        0.0317382812,       -0.0014648438,       65.0787353516,       14.9993896484,      -37.6892089844
1494295657.4636619091,       -0.0200195312,        0.0317382812,       -0.0014648438,       68.5119628906,       14.4500732422,      -36.0107421875
1494295657.4663619995,       -0.0200195312,        0.0996093750,        0.0312500000,       68.5119628906,       14.4500732422,      -36.0107421875
1494295657.4690659046,       -0.0004882812,        0.0996093750,        0.0312500000,       72.4182128906,       13.9617919922,      -34.2102050781
1494295657.4717760086,       -0.0004882812,        0.0996093750,        0.0312500000,       72.5708007812,       13.9617919922,      -34.2102050781
1494295657.4744839668,       -0.0004882812,        0.0996093750,        0.0312500000,       76.4770507812,       12.9089355469,      -31.5704345703
1494295657.4773879051,       -0.0034179688,        0.1372070312,        0.0522460938,       76.2634277344,       12.9089355469,      -31.5704345703
1494295657.4800889492,       -0.0034179688,        0.1372070312,        0.0522460938,       81.4971923828,       10.9863281250,      -28.7475585938
1494295657.4828050137,       -0.0034179688,        0.1372070312,        0.0522460938,       81.4971923828,       10.9863281250,      -28.7475585938
1494295657.4855051041,       -0.0034179688,        0.1372070312,        0.0522460938,       87.4633789062,       10.6658935547,      -25.6500244141
1494295657.4881999493,       -0.0273437500,        0.0952148438,        0.0205078125,       87.4633789062,       10.6658935547,      -25.6500244141
1494295657.4909451008,       -0.0273437500,        0.0952148438,        0.0205078125,       91.5679931641,       10.6964111328,      -22.4761962891
1494295657.4935040474,       -0.0273437500,        0.0952148438,        0.0205078125,       91.5679931641,       10.6964111328,      -22.4761962891
1494295657.4960639477,       -0.0273437500,        0.0952148438,        0.0019531250,       91.5679931641,       11.1541748047,      -19.3939208984
1494295657.4986269474,       -0.0400390625,        0.0161132812,        0.0019531250,       90.8508300781,       11.1541748047,      -19.3939208984
1494295657.5013840199,       -0.0400390625,        0.0161132812,        0.0019531250,       90.8508300781,       11.1541748047,      -16.6778564453
1494295657.5039680004,       -0.0400390625,        0.0161132812,        0.0019531250,       85.6323242188,        9.2620849609,      -16.6778564453
1494295657.5065259933,       -0.0400390625,       -0.0712890625,        0.0068359375,       85.6323242188,        9.2620849609,      -13.5650634766
1494295657.5090820789,       -0.0585937500,       -0.0712890625,        0.0068359375,       79.4372558594,        7.5531005859,      -13.5650634766
1494295657.5118188858,       -0.0585937500,       -0.0712890625,        0.0068359375,       79.4372558594,        7.5531005859,       -5.7525634766
1494295657.5143671036,       -0.0585937500,       -0.0712890625,        0.0068359375,       70.1141357422,        7.0648193359,       -7.3852539062
1494295657.5169210434,       -0.1835937500,        0.0126953125,       -0.0620117188,       70.1141357422,        7.0648193359,       -7.3852539062
1494295657.5194768906,       -0.1386718750,        0.0126953125,       -0.0620117188,       55.2673339844,        6.9885253906,        0.8544921875
1494295657.5222849846,       -0.1386718750,        0.0126953125,       -0.0620117188,       55.2673339844,        6.9885253906,        0.8544921875
1494295657.5248410702,       -0.1386718750,        0.0126953125,       -0.0620117188,       37.9028320312,        6.8817138672,       11.0473632812
1494295657.5273990631,       -0.1933593750,        0.1318359375,       -0.0634765625,       37.9028320312,        6.8817138672,       11.0473632812
1494295657.5299530029,       -0.1933593750,        0.1318359375,       -0.0634765625,       19.3634033203,        6.8054199219,       21.1029052734
1494295657.5327210426,       -0.1933593750,        0.1318359375,       -0.0634765625,       19.3634033203,        6.8054199219,       21.1029052734
1494295657.5354139805,       -0.1933593750,        0.1318359375,       -0.0634765625,        1.1291503906,        4.9896240234,       30.6091308594
1494295657.5381100178,       -0.1694335938,        0.1577148438,       -0.0375976562,        1.1291503906,        4.9896240234,       30.6091308594
1494295657.5408101082,       -0.1694335938,        0.1577148438,       -0.0375976562,      -18.2800292969,        2.4719238281,       39.5965576172
1494295657.5434970856,       -0.1694335938,        0.1577148438,       -0.0375976562,      -18.2800292969,        2.4719238281,       39.5965576172
1494295657.5461940765,       -0.1694335938,        0.1577148438,       -0.7875976562,      -34.4085693359,        5.2642822266,       50.9948730469
1494295657.5488839149,       -0.3803710938,        2.0400390625,       -0.8076171875,      -34.4085693359,        5.2642822266,       50.9948730469
1494295657.5517060757,       -0.3803710938,        2.0400390625,       -0.8076171875,      -51.6815185547,       36.5753173828,       95.8862304688
1494295657.5544080734,       -0.3803710938,        2.0400390625,       -0.8076171875,      -51.6815185547,       36.5753173828,       95.8862304688
1494295657.5571069717,       -1.5053710938,       13.6215820312,        2.7495117188,     -185.7147216797,       13.4887695312,      234.2071533203
1494295657.5598049164,       -1.5073242188,       13.6215820312,        2.7495117188,     -185.7147216797,       13.4887695312,      234.2071533203
1494295657.5625510216,       -1.5073242188,       13.6215820312,        2.7495117188,     -173.9196777344,      -72.9370117188,      444.4122314453
1494295657.5652489662,       -1.5073242188,       13.6215820312,        2.7495117188,     -173.9196777344,      -72.9370117188,      444.4122314453
1494295657.5679519176,       -6.1074218750,       -2.6640625000,       -0.5859375000,     -396.6217041016,      -23.5748291016,      498.9166259766
1494295657.5706839561,       -6.1074218750,       -2.6640625000,       -0.5859375000,     -396.6217041016,      -23.5748291016,      498.9166259766
1494295657.5733890533,       -6.1074218750,       -2.6640625000,       -0.5859375000,      -31.6162109375,     -130.5694580078,      356.4147949219
1494295657.5760879517,       -6.1074218750,       -2.6640625000,       -0.5859375000,      -31.6162109375,     -130.5694580078,      356.4147949219
1494295657.5789139271,       -5.3686523438,      -11.7597656250,       -2.5976562500,     -101.0437011719,      -54.8706054688,      162.7197265625
1494295657.5816869736,       -5.3686523438,      -11.7597656250,       -2.5976562500,     -101.0437011719,      -54.8706054688,      162.7197265625
1494295657.5844049454,       -5.3686523438,      -11.7597656250,       -2.5976562500,     -152.8167724609,      -12.8784179688,      160.1867675781
1494295657.5871028900,       -5.3686523438,       -1.3535156250,        3.7255859375,     -152.8167724609,      -12.8784179688,      160.1867675781
1494295657.5898010731,        0.4340820312,       -1.3535156250,        3.7255859375,      -41.9921875000,      -67.1081542969,       93.5058593750
1494295657.5924100876,        0.4340820312,       -1.3535156250,        3.7255859375,      -41.9921875000,      -67.1081542969,       93.5058593750
1494295657.5949699879,        0.4340820312,       -1.3535156250,        3.7255859375,     -278.6102294922,     -128.7841796875,      144.8059082031
1494295657.5975298882,       -4.6909179688,        3.8232421875,       -0.3447265625,     -278.6102294922,     -128.7841796875,      144.8059082031
1494295657.6000831127,       -4.6533203125,        3.8232421875,       -0.3447265625,     -455.1849365234,     -158.3557128906,      229.5379638672
1494295657.6027970314,       -4.6533203125,        3.8232421875,       -0.3447265625,     -455.1849365234,     -158.3557128906,      229.5379638672
1494295657.6054968834,       -4.6533203125,        3.8232421875,       -0.3447265625,      -91.0339355469,     -114.2272949219,      206.4971923828
1494295657.6081919670,       -7.0581054688,        2.6381835938,       -0.0136718750,      -91.0339355469,     -114.2272949219,      206.4971923828
1494295657.6109340191,       -7.0581054688,        2.6381835938,       -0.0136718750,      100.3265380859,      -54.7790527344,      176.9866943359
1494295657.6134920120,       -7.0581054688,        2.6381835938,       -0.0136718750,      100.3265380859,      -54.7790527344,      176.9866943359
1494295657.6160469055,       -7.0581054688,        2.6381835938,       -0.0136718750,       45.6390380859,      -33.1115722656,      206.4514160156
1494295657.6186120510,       -4.3305664062,       -2.3330078125,       -3.3535156250,       46.1425781250,      -33.1115722656,      206.4514160156
1494295657.6211819649,       -4.3305664062,       -2.3330078125,       -3.3535156250,       46.1425781250,      -37.0178222656,      206.0089111328
1494295657.6237440109,       -4.3305664062,       -2.3330078125,       -3.3535156250,       76.6754150391,      -36.8499755859,      206.0089111328
1494295657.6264140606,       -4.3305664062,       -2.3330078125,       -3.3535156250,       76.6754150391,      -36.8499755859,      144.2108154297
1494295657.6289710999,        0.5166015625,        1.5249023438,        0.6347656250,     -135.2386474609,      -36.6210937500,      144.2108154297
1494295657.6316690445,        0.5166015625,        1.5249023438,        0.6347656250,     -135.2386474609,      -36.6210937500,      119.2474365234
1494295657.6342298985,        0.5166015625,        1.5249023438,        0.6347656250,     -213.3331298828,      -13.3972167969,      119.2474365234
1494295657.6367840767,        0.5166015625,        1.5249023438,        0.6347656250,     -213.3331298828,      -13.3972167969,      119.2474365234
1494295657.6393430233,        0.9326171875,        0.9233398438,        1.1210937500,     -166.8853759766,      -14.3890380859,      109.6801757812
1494295657.6420409679,        0.9326171875,        0.9233398438,        1.1210937500,     -166.8853759766,      -14.3890380859,      109.6801757812
1494295657.6446049213,        0.9326171875,        0.9233398438,        1.1210937500,      -93.5668945312,      -13.0767822266,       91.9036865234
1494295657.6471650600,        0.9326171875,        0.9233398438,        1.7456054688,      -93.5668945312,      -13.0767822266,       91.9036865234
1494295657.6497249603,        0.9916992188,        0.6284179688,        1.7456054688,      -53.1311035156,       -7.2631835938,       59.6618652344
1494295657.6524090767,        0.9916992188,        0.6284179688,        1.7456054688,      -53.1311035156,       -7.2631835938,       59.6618652344
1494295657.6550970078,        0.9916992188,        0.6284179688,        1.7456054688,      -29.4799804688,      -18.5699462891,       24.1851806641
1494295657.6577889919,        0.9916992188,        1.3286132812,        0.6035156250,      -29.4799804688,      -18.5699462891,       24.1851806641
1494295657.6604909897,        0.7436523438,        1.3286132812,        0.6035156250,       -2.8381347656,      -20.6756591797,        5.5847167969
1494295657.6631910801,        0.7436523438,        1.3286132812,        0.6035156250,       -2.8381347656,      -20.6756591797,        5.5847167969
1494295657.6658871174,        0.7436523438,        1.3286132812,        0.6035156250,       13.3361816406,       -7.0648193359,       -2.3651123047
1494295657.6685819626,       -1.2285156250,        1.1928710938,       -1.1381835938,       13.3361816406,       -7.0648193359,       -2.3651123047
1494295657.6712729931,       -1.2285156250,        1.1928710938,       -1.1381835938,       16.7083740234,       12.1765136719,       -9.1857910156
1494295657.6739680767,       -1.2285156250,        1.1928710938,       -1.1381835938,       16.7083740234,       12.1765136719,       -9.1857910156
1494295657.6766560078,       -1.2285156250,        1.1928710938,       -1.1381835938,        5.4016113281,       19.3023681641,      -19.8669433594
1494295657.6793420315,       -2.3325195312,        0.0722656250,       -0.6166992188,        5.4016113281,       19.3023681641,      -19.8669433594
1494295657.6820509434,       -2.3325195312,        0.0722656250,       -0.6166992188,      -24.3377685547,       14.5111083984,      -24.9023437500
1494295657.6847479343,       -2.3325195312,        0.0722656250,       -0.6166992188,      -24.3377685547,       14.5111083984,      -24.9023437500
1494295657.6874520779,       -2.3325195312,        0.0722656250,        0.5205078125,      -59.1278076172,       11.7187500000,      -17.9138183594
1494295657.6901528835,       -1.1303710938,        0.2084960938,        0.5205078125,      -59.1278076172,       11.7187500000,      -17.9138183594
1494295657.6927540302,       -1.1303710938,        0.2084960938,        0.5205078125,      -70.8007812500,       11.7950439453,      -13.4429931641
1494295657.6953148842,       -1.1303710938,        0.2084960938,        0.5205078125,      -70.8007812500,       11.7950439453,      -13.4429931641
1494295657.6982409954,       -1.1303710938,        0.9213867188,        0.2915039062,      -57.2814941406,       11.5661621094,      -20.2026367188
1494295657.7011969090,       -0.1958007812,        0.9213867188,        0.2915039062,      -57.2814941406,       11.5661621094,      -20.2026367188
1494295657.7039089203,       -0.1958007812,        0.9213867188,        0.2915039062,      -32.7606201172,       13.1072998047,      -33.7371826172
1494295657.7066080570,       -0.1958007812,        0.9213867188,        0.2915039062,      -32.7606201172,       13.1072998047,      -33.7371826172
1494295657.7093079090,       -0.5390625000,        0.7636718750,       -0.0302734375,       -8.5906982422,       16.4337158203,      -47.0581054688
1494295657.7120161057,       -0.5390625000,        0.7636718750,       -0.0302734375,       -8.5906982422,       16.4337158203,      -47.0581054688
1494295657.7147099972,       -0.5390625000,        0.7636718750,       -0.0302734375,        0.0000000000,       17.7917480469,      -55.2673339844
1494295657.7174079418,       -0.5390625000,        0.7636718750,       -0.0302734375,        0.0000000000,       17.7917480469,      -55.2673339844
1494295657.7201049328,       -0.6577148438,        0.4707031250,       -0.0581054688,       -0.9307861328,       17.6849365234,      -61.2182617188
1494295657.7228150368,       -0.6577148438,        0.4707031250,       -0.0581054688,       -0.9307861328,       17.6849365234,      -61.2182617188
1494295657.7255098820,       -0.6577148438,        0.4707031250,       -0.0581054688,       -2.5787353516,       17.7001953125,      -66.9708251953
1494295657.7282130718,       -0.6577148438,        0.4707031250,        0.0214843750,       -2.5787353516,       17.7001953125,      -66.9708251953
1494295657.7309520245,       -0.7094726562,        0.4936523438,        0.0214843750,       -2.5024414062,       17.5933837891,      -71.1975097656
1494295657.7335040569,       -0.7094726562,        0.4936523438,        0.0214843750,       -2.5024414062,       17.5933837891,      -71.1975097656
1494295657.7360539436,       -0.7094726562,        0.4936523438,        0.0214843750,       -3.9062500000,       18.6614990234,      -74.0356445312
1494295657.7386140823,       -0.7094726562,        0.4575195312,        0.0917968750,       -3.9062500000,       18.6614990234,      -74.0356445312
1494295657.7411849499,       -0.7094726562,        0.4575195312,        0.0917968750,       -7.8125000000,       20.4925537109,      -76.9195556641
1494295657.7437388897,       -0.7094726562,        0.4575195312,        0.0917968750,       -7.2784423828,       20.4925537109,      -76.9195556641
1494295657.7462940216,       -0.7094726562,        0.4575195312,        0.0917968750,       -7.2784423828,       20.4925537109,      -79.2388916016
1494295657.7488489151,       -0.7094726562,        0.4052734375,        0.1088867188,       -9.8571777344,       22.0642089844,      -79.2388916016
1494295657.7515549660,       -0.6606445312,        0.4052734375,        0.1088867188,       -9.8571777344,       22.0642089844,      -81.5429687500
1494295657.7541129589,       -0.6606445312,        0.4052734375,        0.1088867188,      -10.4370117188,       23.0865478516,      -81.5429687500
1494295657.7566730976,       -0.6606445312,        0.4052734375,        0.1088867188,      -10.4370117188,       23.0865478516,      -85.4492187500
1494295657.7592399120,       -0.6816406250,        0.3930664062,        0.0966796875,       -8.2550048828,       24.5361328125,      -83.4655761719
1494295657.7619578838,       -0.6816406250,        0.3930664062,        0.0966796875,       -8.2550048828,       24.5361328125,      -83.4655761719
1494295657.7646648884,       -0.6816406250,        0.3930664062,        0.0966796875,       -3.9520263672,       26.0925292969,      -84.6557617188
1494295657.7673590183,       -0.6816406250,        0.3930664062,        0.0966796875,       -3.9520263672,       26.0925292969,      -84.6557617188
1494295657.7700519562,       -0.7353515625,        0.3144531250,        0.0488281250,        0.7629394531,       27.0996093750,      -85.6781005859
1494295657.7728729248,       -0.7353515625,        0.3144531250,        0.0488281250,        0.7629394531,       27.0996093750,      -89.5843505859
1494295657.7755699158,       -0.7353515625,        0.3144531250,        0.0488281250,        4.9438476562,       26.6418457031,      -86.8988037109
1494295657.7782680988,       -0.7353515625,        0.3144531250,        0.0219726562,        4.9438476562,       26.6418457031,      -86.8988037109
1494295657.7809751034,       -0.7641601562,        0.1713867188,        0.0219726562,        9.4757080078,       26.4739990234,      -87.1582031250
1494295657.7835290432,       -0.7641601562,        0.1713867188,        0.0219726562,        9.4757080078,       26.4739990234,      -87.1582031250
1494295657.7860898972,       -0.7641601562,        0.1713867188,        0.0219726562,       15.8538818359,       27.2064208984,      -86.8682861328
1494295657.7886500359,       -0.7641601562,        0.1713867188,        0.0312500000,       15.8538818359,       27.2064208984,      -86.8682861328
1494295657.7912170887,       -0.7548828125,        0.1982421875,        0.0312500000,       20.8435058594,       26.0925292969,      -85.8154296875
1494295657.7937829494,       -0.7548828125,        0.1982421875,        0.0312500000,       20.8435058594,       26.0925292969,      -85.8154296875
1494295657.7963409424,       -0.7548828125,        0.1982421875,        0.0312500000,       24.9481201172,       24.0631103516,      -85.0982666016
1494295657.7988998890,       -0.7548828125,        0.2749023438,       -0.0273437500,       24.9481201172,       24.0631103516,      -85.0982666016
1494295657.8015770912,       -0.7163085938,        0.2749023438,       -0.0273437500,       28.5186767578,       22.1710205078,      -84.4421386719
1494295657.8042769432,       -0.7163085938,        0.2749023438,       -0.0273437500,       28.5186767578,       22.1710205078,      -84.4421386719
1494295657.8069789410,       -0.7163085938,        0.2749023438,       -0.0273437500,       30.9448242188,       19.9279785156,      -83.4503173828
1494295657.8096768856,       -0.6474609375,        0.2719726562,       -0.0073242188,       30.9448242188,       19.9279785156,      -83.4503173828
1494295657.8123919964,       -0.6474609375,        0.2719726562,       -0.0073242188,       32.7453613281,       18.1274414062,      -82.5347900391
1494295657.8151009083,       -0.6474609375,        0.2719726562,       -0.0073242188,       32.7453613281,       18.1274414062,      -82.5347900391
1494295657.8178670406,       -0.6474609375,        0.2719726562,       -0.0073242188,       34.3475341797,       16.3726806641,      -81.7871093750
1494295657.8209459782,       -0.5917968750,        0.2221679688,       -0.0122070312,       34.3475341797,       16.3726806641,      -81.7871093750
1494295657.8236529827,       -0.5917968750,        0.2221679688,       -0.0122070312,       33.2794189453,       13.7939453125,      -80.5969238281
1494295657.8263549805,       -0.5917968750,        0.2221679688,       -0.0122070312,       33.2794189453,       13.7939453125,      -80.5969238281
1494295657.8290610313,       -0.5917968750,        0.1708984375,       -0.0170898438,       30.5328369141,       11.8560791016,      -79.6661376953
1494295657.8317220211,       -0.5781250000,        0.1708984375,       -0.0170898438,       30.5328369141,       11.8560791016,      -79.6661376953
1494295657.8342809677,       -0.5781250000,        0.1708984375,       -0.0170898438,       27.5421142578,        9.9334716797,      -77.3773193359
1494295657.8368360996,       -0.5781250000,        0.1708984375,       -0.0170898438,       27.5421142578,        9.9334716797,      -77.3773193359
1494295657.8393900394,       -0.5781250000,        0.1445312500,       -0.0024414062,       24.7497558594,        7.2631835938,      -74.4323730469
1494295657.8420279026,       -0.6044921875,        0.1445312500,       -0.0024414062,       24.7497558594,        7.2631835938,      -74.4323730469
1494295657.8447310925,       -0.6044921875,        0.1445312500,       -0.0024414062,       22.8729248047,        5.4473876953,      -71.3043212891
1494295657.8475389481,       -0.6044921875,        0.1445312500,       -0.0024414062,       22.8729248047,        5.4473876953,      -71.3043212891
1494295657.8502490520,       -0.6279296875,        0.1186523438,        0.0385742188,       20.8435058594,        3.6315917969,      -68.2373046875
1494295657.8528430462,       -0.6279296875,        0.1186523438,        0.0385742188,       20.8435058594,        3.6315917969,      -68.2373046875
1494295657.8554019928,       -0.6279296875,        0.1186523438,        0.0385742188,       20.8435058594,        2.9602050781,      -65.0177001953
1494295657.8579549789,       -0.6279296875,        0.1186523438,        0.0385742188,       19.2260742188,        2.9602050781,      -65.0177001953
1494295657.8605110645,       -0.6132812500,        0.0981445312,        0.0869140625,       19.2260742188,        2.9602050781,      -61.7065429688
1494295657.8630840778,       -0.6132812500,        0.0981445312,        0.0869140625,       18.2495117188,        2.0751953125,      -61.7065429688
1494295657.8656380177,       -0.6132812500,        0.0981445312,        0.0869140625,       18.2495117188,        2.0751953125,      -57.8002929688
1494295657.8681890965,       -0.6132812500,        0.0981445312,        0.0869140625,       18.4631347656,        1.5563964844,      -58.1817626953
1494295657.8709421158,       -0.5966796875,        0.1010742188,        0.1489257812,       18.4631347656,        1.5563964844,      -58.1817626953
1494295657.8735160828,       -0.5966796875,        0.1010742188,        0.1489257812,       18.1121826172,        1.2817382812,      -55.1757812500
1494295657.8760809898,       -0.5966796875,        0.1010742188,        0.1489257812,       18.1121826172,        1.2817382812,      -55.1757812500
1494295657.8786370754,       -0.5966796875,        0.1010742188,        0.1489257812,       17.5170898438,        1.5106201172,      -51.9256591797
1494295657.8813190460,       -0.5947265625,        0.0566406250,        0.1840820312,       17.5170898438,        1.5106201172,      -51.9256591797
1494295657.8838849068,       -0.5947265625,        0.0566406250,        0.1840820312,       16.6015625000,        3.0975341797,      -48.9959716797
1494295657.8864400387,       -0.5947265625,        0.0566406250,        0.1840820312,       16.6015625000,        3.0975341797,      -48.9959716797
1494295657.8889949322,       -0.5947265625,        0.0566406250,        0.1840820312,       15.4418945312,        5.2185058594,      -44.9218750000
1494295657.8916161060,       -0.6186523438,        0.0170898438,        0.1835937500,       15.4418945312,        5.2185058594,      -44.9218750000
1494295657.8943080902,       -0.6186523438,        0.0170898438,        0.1835937500,       13.6260986328,        5.5847167969,      -40.2221679688
1494295657.8970069885,       -0.6186523438,        0.0170898438,        0.1835937500,       13.6260986328,        5.5847167969,      -40.2221679688
1494295657.8997011185,       -0.6186523438,       -0.0356445312,        0.1401367188,        9.0942382812,        6.1187744141,      -36.0412597656
1494295657.9024031162,       -0.6567382812,       -0.0356445312,        0.1401367188,        9.0942382812,        6.1187744141,      -36.0412597656
1494295657.9051029682,       -0.6567382812,       -0.0356445312,        0.1401367188,        4.1809082031,        5.4779052734,      -30.7769775391
1494295657.9077949524,       -0.6567382812,       -0.0356445312,        0.1401367188,        4.1809082031,        5.4779052734,      -30.7769775391
1494295657.9104840755,       -0.6889648438,       -0.0688476562,        0.0751953125,       -0.5340576172,        5.2490234375,      -24.0783691406
1494295657.9130630493,       -0.6889648438,       -0.0688476562,        0.0751953125,       -0.5340576172,        5.2490234375,      -24.0783691406
1494295657.9156150818,       -0.6889648438,       -0.0688476562,        0.0751953125,       -6.9885253906,        4.9896240234,      -17.0440673828
1494295657.9182729721,       -0.6889648438,       -0.0688476562,        0.0751953125,       -6.9885253906,        4.9896240234,      -17.0440673828
1494295657.9209039211,       -0.7275390625,       -0.0776367188,        0.0141601562,      -14.1296386719,        5.2795410156,       -9.7808837891
1494295657.9235980511,       -0.7275390625,       -0.0776367188,        0.0141601562,      -14.1296386719,        5.2795410156,       -9.7808837891
1494295657.9262979031,       -0.7275390625,       -0.0776367188,        0.0141601562,      -20.3857421875,        5.8441162109,       -2.2735595703
1494295657.9289898872,       -0.7275390625,       -0.0776367188,        0.0141601562,      -20.3857421875,        5.8441162109,       -2.2735595703
1494295657.9316411018,       -0.7768554688,       -0.0253906250,       -0.0380859375,      -24.2919921875,        4.7302246094,        5.3405761719
1494295657.9341919422,       -0.7768554688,       -0.0253906250,       -0.0380859375,      -25.3143310547,        4.7302246094,        5.3405761719
1494295657.9368250370,       -0.7768554688,       -0.0253906250,       -0.0380859375,      -25.3143310547,        3.8452148438,       12.5122070312
