time_stamp before, Acceleration x, Acceleration y, Acceleration z, Gyro x, Gyro y, Gyro z
1494295234.7004361153,       -0.9140625000,       -0.0512695312,       -0.1748046875,       31.0668945312,       20.7061767578,     -396.9726562500
1494295234.7148671150,       -1.0351562500,       -0.0346679688,       -0.1293945312,       21.3623046875,       18.4783935547,     -403.1524658203
1494295234.7187860012,       -1.0351562500,       -0.0346679688,       -0.1293945312,        9.6435546875,       16.2658691406,     -409.0270996094
1494295234.7217640877,       -1.0351562500,       -0.0346679688,       -0.1293945312,        9.9334716797,       16.2658691406,     -409.0270996094
1494295234.7244560719,       -1.2324218750,       -0.0141601562,       -0.1064453125,       -5.6915283203,       14.4805908203,     -414.2608642578
1494295234.7271440029,       -1.2324218750,       -0.0141601562,       -0.1064453125,       -4.5471191406,       14.4805908203,     -414.2608642578
1494295234.7298328876,       -1.2324218750,       -0.0141601562,       -0.1064453125,      -20.1721191406,       12.1917724609,     -419.2962646484
1494295234.7325670719,       -1.2324218750,       -0.0141601562,       -0.1064453125,      -22.1862792969,       12.1917724609,     -419.2962646484
1494295234.7352581024,       -1.4223632812,        0.0195312500,       -0.0644531250,      -41.7175292969,       10.0860595703,     -423.7976074219
1494295234.7379479408,       -1.4223632812,        0.0195312500,       -0.0644531250,      -40.1153564453,       10.0860595703,     -423.7976074219
1494295234.7406780720,       -1.4223632812,        0.0195312500,       -0.0644531250,      -55.7403564453,        7.7056884766,     -429.0771484375
1494295234.7432279587,       -1.4223632812,        0.0195312500,       -0.0644531250,      -57.7545166016,        7.7056884766,     -429.0771484375
1494295234.7457780838,       -1.6147460938,        0.1552734375,       -0.0444335938,      -57.7545166016,        7.7056884766,     -434.6466064453
1494295234.7483220100,       -1.6147460938,        0.1552734375,       -0.0444335938,      -75.3631591797,        4.3487548828,     -434.6466064453
1494295234.7510700226,       -1.6147460938,        0.1552734375,       -0.0444335938,      -75.3631591797,        4.3487548828,     -438.6749267578
1494295234.7536230087,       -1.6147460938,        0.1552734375,        0.0805664062,      -89.1113281250,        2.5482177734,     -438.6749267578
1494295234.7561829090,       -1.8164062500,        0.3842773438,        0.0180664062,      -89.1113281250,        2.5482177734,     -438.6749267578
1494295234.7587330341,       -1.8164062500,        0.3842773438,        0.0180664062,      -98.3886718750,        3.7994384766,     -438.8885498047
1494295234.7614738941,       -1.8164062500,        0.3842773438,        0.0180664062,      -98.3886718750,        3.7994384766,     -438.8885498047
1494295234.7641689777,       -1.8164062500,        0.5092773438,        0.0546875000,     -103.4545898438,        8.4533691406,     -434.0972900391
1494295234.7668659687,       -1.9345703125,        0.6157226562,        0.0546875000,     -103.4545898438,        8.4533691406,     -434.0972900391
1494295234.7695629597,       -1.9345703125,        0.6157226562,        0.0546875000,     -104.1717529297,       15.1672363281,     -426.0559082031
1494295234.7722709179,       -1.9345703125,        0.6157226562,        0.0546875000,     -104.1717529297,       15.1672363281,     -426.0559082031
1494295234.7749750614,       -2.0170898438,        0.9257812500,        0.1284179688,     -101.5777587891,       22.2625732422,     -416.0461425781
1494295234.7776699066,       -2.0170898438,        0.9257812500,        0.1284179688,     -101.5777587891,       22.2625732422,     -416.0461425781
1494295234.7803668976,       -2.0170898438,        0.9257812500,        0.1284179688,      -95.1232910156,       29.2816162109,     -404.0985107422
1494295234.7830750942,       -2.0170898438,        0.9257812500,        0.1284179688,      -95.1232910156,       29.2816162109,     -404.0985107422
1494295234.7857739925,       -2.0805664062,        1.2832031250,        0.2578125000,      -82.5958251953,       37.2924804688,     -387.6342773438
1494295234.7886300087,       -2.0805664062,        1.2832031250,        0.2578125000,      -82.5958251953,       37.2924804688,     -387.6342773438
1494295234.7913670540,       -2.0805664062,        1.2832031250,        0.2578125000,      -61.5386962891,       44.4183349609,     -369.5373535156
1494295234.7940649986,       -2.0805664062,        1.2832031250,        0.2578125000,      -61.5386962891,       44.4183349609,     -369.5373535156
1494295234.7967610359,       -2.0791015625,        1.4096679688,        0.2792968750,      -36.7431640625,       52.2613525391,     -348.9379882812
1494295234.7994511127,       -2.0791015625,        1.4096679688,        0.2792968750,      -36.7431640625,       52.2613525391,     -348.9379882812
1494295234.8020880222,       -2.0791015625,        1.4096679688,        0.2792968750,      -18.2342529297,       57.8613281250,     -326.8127441406
1494295234.8046441078,       -2.0791015625,        1.2846679688,        0.3652343750,      -18.2342529297,       57.8613281250,     -326.8127441406
1494295234.8072009087,       -1.9067382812,        1.3056640625,        0.3652343750,       -9.6282958984,       59.3414306641,     -304.3670654297
1494295234.8097579479,       -1.9067382812,        1.3056640625,        0.3652343750,       -9.6282958984,       59.3414306641,     -304.3670654297
1494295234.8123159409,       -1.9067382812,        1.3056640625,        0.3652343750,      -14.8010253906,       55.4656982422,     -282.7758789062
1494295234.8148720264,       -1.9067382812,        1.1396484375,        0.4443359375,      -14.8010253906,       55.4656982422,     -282.7758789062
1494295234.8175110817,       -1.6088867188,        1.1396484375,        0.4443359375,      -37.0330810547,       48.1872558594,     -261.9323730469
1494295234.8200740814,       -1.6088867188,        1.1396484375,        0.4443359375,      -37.0330810547,       48.1872558594,     -261.9323730469
1494295234.8227880001,       -1.6088867188,        1.1396484375,        0.4443359375,      -73.1964111328,       39.1235351562,     -241.5161132812
1494295234.8254880905,       -1.3354492188,        1.3540039062,        0.6171875000,      -73.1964111328,       39.1235351562,     -241.5161132812
1494295234.8281900883,       -1.3354492188,        1.3540039062,        0.6171875000,     -114.2120361328,       25.0244140625,     -222.8698730469
1494295234.8309440613,       -1.3354492188,        1.3540039062,        0.6171875000,     -114.2120361328,       25.0244140625,     -222.8698730469
1494295234.8336389065,       -1.3354492188,        1.3540039062,        0.6171875000,     -143.0206298828,        8.6975097656,     -204.9560546875
1494295234.8363420963,       -1.1772460938,        2.0991210938,        0.7802734375,     -143.0206298828,        8.6975097656,     -204.9560546875
1494295234.8390359879,       -1.1772460938,        2.0991210938,        0.7802734375,     -142.9748535156,       -3.8604736328,     -183.2580566406
1494295234.8417789936,       -1.1772460938,        2.0991210938,        0.7802734375,     -142.9748535156,       -3.8604736328,     -183.2580566406
1494295234.8444719315,       -1.1772460938,        2.0991210938,        0.6552734375,     -113.4796142578,      -10.1776123047,     -151.8402099609
1494295234.8471710682,       -1.0805664062,        2.6533203125,        0.6318359375,     -113.4796142578,      -10.1776123047,     -151.8402099609
1494295234.8498671055,       -1.0805664062,        2.6533203125,        0.6318359375,      -68.7866210938,      -11.3372802734,     -111.1755371094
1494295234.8524858952,       -1.0805664062,        2.6533203125,        0.6318359375,      -68.7866210938,      -11.3372802734,     -111.1755371094
1494295234.8550438881,       -1.0805664062,        2.5283203125,        0.3593750000,      -29.7241210938,      -13.3056640625,      -65.9484863281
1494295234.8576090336,       -1.0927734375,        2.5761718750,        0.3593750000,      -28.9154052734,      -13.3056640625,      -65.9484863281
1494295234.8602750301,       -1.0927734375,        2.5761718750,        0.3593750000,       -5.4779052734,      -17.2271728516,      -21.9726562500
1494295234.8629810810,       -1.0927734375,        2.5761718750,        0.3593750000,       -4.0588378906,      -17.2271728516,      -21.9726562500
1494295234.8655440807,       -1.0927734375,        2.2490234375,        0.3935546875,       -4.0588378906,      -17.2271728516,       19.3634033203
1494295234.8680930138,       -1.1098632812,        2.2490234375,        0.3935546875,       10.6811523438,      -17.2882080078,       19.3634033203
1494295234.8707818985,       -1.1098632812,        2.2490234375,        0.3935546875,       10.6811523438,      -17.2882080078,       60.0891113281
1494295234.8734910488,       -1.1098632812,        2.2490234375,        0.3935546875,       17.5018310547,      -17.2576904297,       60.0891113281
1494295234.8761899471,       -0.9497070312,        1.9121093750,        0.5253906250,       17.5018310547,      -17.2576904297,       98.1903076172
1494295234.8788900375,       -0.9497070312,        1.9121093750,        0.5253906250,       12.6342773438,      -20.1263427734,       98.1903076172
1494295234.8815989494,       -0.9497070312,        1.9121093750,        0.5253906250,       12.6342773438,      -20.1263427734,      133.1787109375
1494295234.8843009472,       -0.9497070312,        1.9121093750,        0.5253906250,       -6.0577392578,      -27.4047851562,      133.1787109375
1494295234.8870000839,       -0.9047851562,        1.6884765625,        0.4594726562,       -6.0577392578,      -27.4047851562,      164.7644042969
1494295234.8896939754,       -0.9047851562,        1.6884765625,        0.4594726562,      -35.2783203125,      -37.9638671875,      164.7644042969
1494295234.8923990726,       -0.9047851562,        1.6884765625,        0.4594726562,      -35.2783203125,      -37.9638671875,      190.8874511719
1494295234.8951020241,       -0.9047851562,        1.6884765625,        0.3159179688,      -64.5446777344,      -49.3164062500,      190.8874511719
1494295234.8978009224,       -0.9555664062,        1.6445312500,        0.3159179688,      -64.5446777344,      -49.3164062500,      213.1347656250
1494295234.9005050659,       -0.9555664062,        1.6445312500,        0.3159179688,      -85.7696533203,      -58.5784912109,      213.1347656250
1494295234.9030859470,       -0.9555664062,        1.6445312500,        0.3159179688,      -85.7696533203,      -58.5784912109,      213.1347656250
1494295234.9056420326,       -0.9555664062,        1.3730468750,        0.1220703125,      -96.8475341797,      -61.0961914062,      231.2316894531
1494295234.9082100391,       -1.0058593750,        1.3730468750,        0.1220703125,      -96.8475341797,      -61.0961914062,      231.2316894531
1494295234.9111270905,       -1.0058593750,        1.3730468750,        0.1220703125,     -103.3630371094,      -55.3894042969,      240.6311035156
1494295234.9137909412,       -1.0058593750,        1.3730468750,        0.1220703125,     -103.3630371094,      -55.3894042969,      240.6311035156
1494295234.9165740013,       -0.8750000000,        0.3471679688,        0.0126953125,     -114.2120361328,      -48.7365722656,      237.5030517578
1494295234.9192490578,       -0.8750000000,        0.3471679688,        0.0126953125,     -114.2120361328,      -48.7365722656,      210.5865478516
1494295234.9223918915,       -0.8750000000,        0.3471679688,        0.0126953125,     -129.5471191406,      -43.3502197266,      210.5865478516
1494295234.9250969887,       -0.8750000000,        0.3471679688,        0.0126953125,     -129.5471191406,      -43.3502197266,      165.8477783203
1494295234.9277949333,       -0.6992187500,       -2.3559570312,        0.0288085938,     -134.0942382812,      -21.3317871094,      165.8477783203
1494295234.9304881096,       -0.6992187500,       -2.3559570312,        0.0288085938,     -134.0942382812,      -21.3317871094,      113.2812500000
1494295234.9332029819,       -0.6992187500,       -2.3559570312,        0.0288085938,     -158.6303710938,       -3.4179687500,      113.2812500000
1494295234.9360120296,       -0.6992187500,       -4.4003906250,       -0.0781250000,     -158.6303710938,       -3.4179687500,       45.0744628906
1494295234.9387109280,       -1.1889648438,       -4.4003906250,       -0.0781250000,     -110.8703613281,      -13.3666992188,       45.0744628906
1494295234.9414229393,       -1.1889648438,       -4.4003906250,       -0.0781250000,     -110.8703613281,      -13.3666992188,       29.5257568359
1494295234.9441189766,       -1.1889648438,       -4.4003906250,       -0.0781250000,       26.8707275391,      -34.5458984375,       29.5257568359
1494295234.9468159676,       -3.7724609375,        1.4848632812,       -1.8803710938,       26.8707275391,      -34.5458984375,      157.2265625000
1494295234.9495120049,       -3.7724609375,        1.4848632812,       -1.8803710938,      -40.4357910156,      -41.8548583984,      157.2265625000
1494295234.9521420002,       -3.7724609375,        1.4848632812,       -1.8803710938,      -40.4357910156,      -41.8548583984,      262.6953125000
1494295234.9546930790,       -3.7724609375,        1.4848632812,       -1.8803710938,     -244.7814941406,      -47.8820800781,      263.9312744141
1494295234.9572451115,       -1.9487304688,        4.5043945312,        0.7851562500,     -244.7814941406,      -47.8820800781,      263.9312744141
1494295234.9598040581,       -1.9487304688,        4.5043945312,        0.7851562500,     -313.0035400391,      -73.4405517578,      261.5661621094
1494295234.9623749256,       -1.9487304688,        4.5043945312,        0.7851562500,     -313.0035400391,      -73.4405517578,      261.5661621094
1494295234.9649310112,       -1.9487304688,        4.5043945312,        0.7851562500,     -157.4859619141,      -72.4639892578,      239.2272949219
1494295234.9674799442,       -0.5644531250,        1.6669921875,        0.2617187500,     -157.4859619141,      -72.4639892578,      239.2272949219
1494295234.9700350761,       -0.5644531250,        1.6669921875,        0.2617187500,       50.7354736328,      -64.6972656250,      213.8366699219
1494295234.9726390839,       -0.5644531250,        1.6669921875,        0.2617187500,       50.7354736328,      -64.6972656250,      213.8366699219
1494295234.9751939774,       -0.5644531250,        1.6669921875,        0.2617187500,      153.4271240234,      -32.3028564453,      177.2003173828
1494295234.9777510166,       -0.6845703125,        0.0795898438,       -0.5297851562,      153.4271240234,      -32.3028564453,      177.2003173828
1494295234.9803030491,       -0.6845703125,        0.0795898438,       -0.5297851562,      134.6435546875,      -13.3972167969,      144.2871093750
1494295234.9831070900,       -0.6845703125,        0.0795898438,       -0.5297851562,      134.6435546875,      -13.3972167969,      144.2871093750
1494295234.9858140945,       -0.6845703125,        0.0795898438,       -0.0898437500,       67.7032470703,      -15.2282714844,      131.5155029297
1494295234.9885070324,       -0.4194335938,        0.4145507812,       -0.0898437500,       67.7032470703,      -15.2282714844,      131.5155029297
1494295234.9912180901,       -0.4194335938,        0.4145507812,       -0.0898437500,       21.3775634766,      -29.6936035156,      126.8463134766
1494295234.9939169884,       -0.4194335938,        0.4145507812,       -0.0898437500,       21.3775634766,      -29.6936035156,      126.8463134766
1494295234.9966139793,       -0.5444335938,        0.3715820312,        0.3710937500,       -2.0599365234,      -50.2471923828,      120.6054687500
1494295234.9993081093,       -0.5625000000,        0.3715820312,        0.3710937500,       -3.1585693359,      -50.2471923828,      120.6054687500
1494295235.0019550323,       -0.5625000000,        0.3715820312,        0.3710937500,      -18.7835693359,      -68.6492919922,      115.3869628906
1494295235.0045149326,       -0.5625000000,        0.3715820312,        0.3710937500,      -16.8151855469,      -68.6492919922,      115.3869628906
1494295235.0070700645,       -0.8510742188,        0.4790039062,        0.3974609375,      -16.8151855469,      -76.4617919922,      114.4866943359
1494295235.0097410679,       -0.8510742188,        0.4790039062,        0.3974609375,      -18.6462402344,      -75.5615234375,      114.4866943359
1494295235.0124089718,       -0.8510742188,        0.4790039062,        0.3974609375,      -18.6462402344,      -71.6552734375,      115.0970458984
1494295235.0151090622,       -0.8510742188,        0.4790039062,        0.3974609375,      -14.0380859375,      -70.7550048828,      115.0970458984
1494295235.0178050995,       -0.8261718750,        0.4467773438,        0.2309570312,      -14.0380859375,      -70.7550048828,      113.6474609375
1494295235.0204999447,       -0.8261718750,        0.4467773438,        0.2309570312,       -3.6926269531,      -62.5152587891,      113.6474609375
1494295235.0232059956,       -0.8261718750,        0.4467773438,        0.2309570312,       -3.6926269531,      -62.5152587891,      109.0393066406
1494295235.0258998871,       -0.8261718750,        0.4467773438,        0.2309570312,       17.5170898438,      -55.4046630859,      109.0393066406
1494295235.0286009312,       -0.9179687500,        0.4628906250,        0.2094726562,       17.5170898438,      -55.4046630859,      101.6845703125
1494295235.0313448906,       -0.9179687500,        0.4628906250,        0.2094726562,       45.1049804688,      -47.9736328125,      101.6845703125
1494295235.0340390205,       -0.9179687500,        0.4628906250,        0.2094726562,       45.1049804688,      -47.9736328125,       93.2006835938
1494295235.0368208885,       -0.9179687500,        0.5605468750,        0.2993164062,       67.7490234375,      -40.1763916016,       93.2006835938
1494295235.0396559238,       -0.9760742188,        0.5605468750,        0.2993164062,       67.7490234375,      -31.0974121094,       84.0911865234
1494295235.0426969528,       -0.9760742188,        0.5605468750,        0.2993164062,       77.1026611328,      -31.0974121094,       84.0911865234
1494295235.0453989506,       -0.9760742188,        0.5605468750,        0.2993164062,       81.0089111328,      -24.0325927734,       74.6917724609
1494295235.0480999947,       -0.8286132812,        0.3535156250,        0.3286132812,       78.3538818359,      -24.0325927734,       74.6917724609
1494295235.0508079529,       -0.8286132812,        0.3535156250,        0.3286132812,       78.3538818359,      -19.2871093750,       66.6198730469
1494295235.0534710884,       -0.8286132812,        0.3535156250,        0.3286132812,       78.2165527344,      -19.2871093750,       66.6198730469
1494295235.0560359955,       -0.8286132812,        0.3535156250,        0.3286132812,       78.2165527344,      -19.2871093750,       59.2956542969
1494295235.0585930347,       -0.7768554688,        0.2001953125,        0.1948242188,       75.2563476562,      -16.5710449219,       59.2956542969
1494295235.0612220764,       -0.7768554688,        0.2001953125,        0.1948242188,       75.2563476562,      -16.5710449219,       53.7719726562
1494295235.0639200211,       -0.7768554688,        0.2001953125,        0.1948242188,       67.1844482422,      -15.4571533203,       53.7719726562
1494295235.0672609806,       -0.6518554688,        0.0981445312,        0.0610351562,       57.8460693359,      -16.5863037109,       49.8199462891
1494295235.0704450607,       -0.7431640625,        0.0981445312,        0.0610351562,       57.8460693359,      -16.5863037109,       49.8199462891
1494295235.0730590820,       -0.7431640625,        0.0981445312,        0.0610351562,       56.2133789062,      -17.1813964844,       47.5616455078
1494295235.0756220818,       -0.7431640625,        0.0981445312,        0.0610351562,       56.2133789062,      -17.1813964844,       47.5616455078
1494295235.0781829357,       -0.7387695312,        0.0429687500,        0.0097656250,       60.1196289062,      -14.1448974609,       45.7153320312
1494295235.0807430744,       -0.7387695312,        0.0429687500,        0.0097656250,       61.7675781250,      -14.1448974609,       45.7153320312
1494295235.0835380554,       -0.7387695312,        0.0429687500,        0.0097656250,       65.6738281250,      -12.3596191406,       42.5415039062
1494295235.0862228870,       -0.7387695312,        0.0429687500,        0.0097656250,       65.9637451172,      -12.3596191406,       42.5415039062
1494295235.0889010429,       -0.7749023438,        0.0537109375,       -0.0668945312,       65.9637451172,      -14.3585205078,       39.0167236328
1494295235.0915949345,       -0.7749023438,        0.0537109375,       -0.0668945312,       68.0236816406,      -14.3585205078,       39.0167236328
1494295235.0942780972,       -0.7749023438,        0.0537109375,       -0.0668945312,       68.0236816406,      -17.0440673828,       35.8581542969
1494295235.0969579220,       -0.7749023438,       -0.0712890625,       -0.0795898438,       69.8089599609,      -17.0440673828,       35.8581542969
1494295235.0996398926,       -0.8481445312,       -0.0351562500,       -0.0795898438,       69.8089599609,      -18.1274414062,       34.4543457031
1494295235.1023449898,       -0.8481445312,       -0.0351562500,       -0.0795898438,       68.2983398438,      -18.1274414062,       34.4543457031
1494295235.1049029827,       -0.8481445312,       -0.0351562500,       -0.0795898438,       68.2983398438,      -18.1274414062,       35.4461669922
1494295235.1074550152,       -0.8481445312,       -0.0830078125,        0.0659179688,       61.4471435547,      -17.3187255859,       35.4461669922
1494295235.1100139618,       -0.8720703125,       -0.0830078125,        0.0659179688,       61.4471435547,      -17.3187255859,       35.4461669922
1494295235.1126720905,       -0.8720703125,       -0.0830078125,        0.0659179688,       52.4139404297,      -15.8081054688,       36.7126464844
1494295235.1152310371,       -0.8720703125,       -0.0830078125,        0.0659179688,       52.4139404297,      -15.8081054688,       36.7126464844
1494295235.1177949905,       -0.8310546875,       -0.0175781250,        0.2250976562,       43.3349609375,      -13.1225585938,       37.2161865234
1494295235.1203548908,       -0.8310546875,       -0.0175781250,        0.2250976562,       43.3349609375,      -13.1225585938,       37.2161865234
1494295235.1231420040,       -0.8310546875,       -0.0175781250,        0.2250976562,       34.4238281250,       -9.4909667969,       40.4815673828
1494295235.1258430481,       -0.8310546875,       -0.0175781250,        0.2250976562,       34.4238281250,       -9.4909667969,       40.4815673828
1494295235.1285390854,       -0.7294921875,       -0.0258789062,        0.3159179688,       28.9459228516,       -7.8125000000,       45.5169677734
1494295235.1312429905,       -0.7294921875,       -0.0258789062,        0.3159179688,       28.9459228516,       -7.8125000000,       45.5169677734
1494295235.1339340210,       -0.7294921875,       -0.0258789062,        0.3159179688,       27.8167724609,       -9.3536376953,       47.2869873047
1494295235.1366269588,       -0.7294921875,       -0.0258789062,        0.3159179688,       27.8167724609,       -9.3536376953,       47.2869873047
1494295235.1393220425,       -0.6669921875,       -0.1840820312,        0.3144531250,       26.9927978516,      -11.5661621094,       46.9818115234
1494295235.1420350075,       -0.6669921875,       -0.1840820312,        0.3144531250,       26.9927978516,      -11.5661621094,       46.9818115234
1494295235.1447370052,       -0.6669921875,       -0.1840820312,        0.3144531250,       27.8625488281,      -10.8642578125,       47.2259521484
1494295235.1474339962,       -0.6669921875,       -0.1840820312,        0.2412109375,       27.8625488281,      -10.8642578125,       47.2259521484
1494295235.1501328945,       -0.6562500000,       -0.1655273438,        0.2412109375,       26.5655517578,      -12.8784179688,       49.1790771484
1494295235.1527359486,       -0.6562500000,       -0.1655273438,        0.2412109375,       26.5655517578,      -12.8784179688,       49.1790771484
1494295235.1552889347,       -0.6562500000,       -0.1655273438,        0.2412109375,       25.1159667969,      -14.1448974609,       51.3153076172
1494295235.1579558849,       -0.6562500000,       -0.0175781250,        0.2148437500,       25.1159667969,      -14.1448974609,       51.3153076172
1494295235.1605169773,       -0.7260742188,       -0.0175781250,        0.2148437500,       25.7263183594,      -13.5955810547,       53.8482666016
1494295235.1632320881,       -0.7260742188,       -0.0175781250,        0.2148437500,       25.7263183594,      -13.5955810547,       53.8482666016
1494295235.1659278870,       -0.7260742188,       -0.0175781250,        0.2148437500,       30.3192138672,      -11.0321044922,       57.3120117188
1494295235.1686270237,       -0.8281250000,        0.1889648438,        0.1547851562,       30.3192138672,      -11.0321044922,       57.3120117188
1494295235.1713690758,       -0.8281250000,        0.1889648438,        0.1547851562,       37.7044677734,       -9.7656250000,       61.0351562500
1494295235.1740639210,       -0.8281250000,        0.1889648438,        0.1547851562,       37.7044677734,       -9.7656250000,       61.0351562500
1494295235.1768069267,       -0.8281250000,        0.1889648438,        0.1547851562,       48.6297607422,       -8.1481933594,       63.9343261719
1494295235.1795420647,       -0.9389648438,        0.2978515625,        0.1132812500,       48.6297607422,       -8.1481933594,       63.9343261719
1494295235.1822490692,       -0.9389648438,        0.2978515625,        0.1132812500,       62.8356933594,       -5.9509277344,       67.5354003906
1494295235.1849520206,       -0.9389648438,        0.2978515625,        0.1132812500,       62.8356933594,       -5.9509277344,       67.5354003906
1494295235.1876471043,       -0.9389648438,        0.2978515625,        0.0380859375,       76.0192871094,       -4.3334960938,       70.9075927734
1494295235.1903469563,       -0.9848632812,        0.1811523438,        0.0380859375,       76.0192871094,       -4.3334960938,       70.9075927734
1494295235.1930499077,       -0.9848632812,        0.1811523438,        0.0380859375,       84.8236083984,       -4.4860839844,       72.8912353516
1494295235.1957440376,       -0.9848632812,        0.1811523438,        0.0380859375,       84.8236083984,       -4.4860839844,       72.8912353516
1494295235.1984400749,       -1.1098632812,       -0.0122070312,       -0.1025390625,       90.5761718750,       -3.0822753906,       74.5391845703
1494295235.2011580467,       -1.0063476562,       -0.0122070312,       -0.1025390625,       90.5761718750,       -3.0822753906,       74.5391845703
1494295235.2037119865,       -1.0063476562,       -0.0122070312,       -0.1025390625,       88.1805419922,       -1.2969970703,       78.1860351562
1494295235.2062690258,       -1.0063476562,       -0.0122070312,       -0.1025390625,       88.1805419922,       -1.2969970703,       78.1860351562
1494295235.2088220119,       -1.0419921875,       -0.0351562500,       -0.1445312500,       84.2742919922,       -0.1068115234,       82.9162597656
1494295235.2113931179,       -1.0419921875,       -0.0351562500,       -0.1445312500,       82.1685791016,       -0.1068115234,       82.9162597656
1494295235.2139539719,       -1.0419921875,       -0.0351562500,       -0.1445312500,       82.1685791016,        3.7994384766,       87.2192382812
1494295235.2165069580,       -1.0419921875,       -0.0351562500,       -0.1445312500,       76.5228271484,        1.9378662109,       87.2192382812
1494295235.2190709114,       -1.0590820312,       -0.0659179688,       -0.1201171875,       76.5228271484,        1.9378662109,       91.4154052734
1494295235.2217209339,       -1.0590820312,       -0.0659179688,       -0.1201171875,       70.7702636719,        3.8757324219,       91.4154052734
1494295235.2242820263,       -1.0590820312,       -0.0659179688,       -0.1201171875,       70.7702636719,        3.8757324219,       95.3216552734
1494295235.2268419266,       -1.0590820312,       -0.0659179688,       -0.1201171875,       67.4133300781,        5.8898925781,       96.2066650391
1494295235.2294020653,       -1.0732421875,       -0.0405273438,       -0.0336914062,       67.4133300781,        5.8898925781,       96.2066650391
1494295235.2322349548,       -1.0732421875,       -0.0405273438,       -0.0336914062,       65.6280517578,        7.3394775391,      101.3488769531
1494295235.2349259853,       -1.0732421875,       -0.0405273438,       -0.0336914062,       65.6280517578,        7.3394775391,      101.3488769531
1494295235.2376270294,       -1.0732421875,       -0.0405273438,       -0.0336914062,       64.2700195312,        8.6517333984,      107.0251464844
1494295235.2403221130,       -1.1123046875,       -0.0952148438,        0.0493164062,       64.2700195312,        8.6517333984,      107.0251464844
1494295235.2430300713,       -1.1123046875,       -0.0952148438,        0.0493164062,       65.1550292969,        8.5601806641,      112.9608154297
1494295235.2457239628,       -1.1123046875,       -0.0952148438,        0.0493164062,       65.1550292969,        8.5601806641,      112.9608154297
1494295235.2484230995,       -1.1123046875,       -0.2202148438,        0.1044921875,       65.4144287109,        8.8348388672,      119.0643310547
1494295235.2511470318,       -1.1284179688,       -0.2333984375,        0.1044921875,       65.4144287109,        8.8348388672,      119.0643310547
1494295235.2537078857,       -1.1284179688,       -0.2333984375,        0.1044921875,       63.3697509766,        9.8571777344,      125.6103515625
1494295235.2562630177,       -1.1284179688,       -0.2333984375,        0.1044921875,       63.3697509766,        9.8571777344,      125.6103515625
1494295235.2588210106,       -1.1284179688,       -0.3544921875,        0.1113281250,       59.7991943359,        9.3688964844,      132.4310302734
1494295235.2614359856,       -1.1533203125,       -0.3544921875,        0.1113281250,       59.7991943359,        9.3688964844,      132.4310302734
1494295235.2641320229,       -1.1533203125,       -0.3544921875,        0.1113281250,       55.9387207031,        8.2550048828,      140.1824951172
1494295235.2668290138,       -1.1533203125,       -0.3544921875,        0.1113281250,       55.9387207031,        8.2550048828,      140.1824951172
1494295235.2695269585,       -1.2602539062,       -0.4091796875,        0.1049804688,       53.4515380859,        7.2021484375,      147.8881835938
1494295235.2722339630,       -1.2602539062,       -0.4091796875,        0.1049804688,       53.4515380859,        7.2021484375,      147.8881835938
1494295235.2750699520,       -1.2602539062,       -0.4091796875,        0.1049804688,       49.4537353516,        6.1187744141,      156.6162109375
1494295235.2776260376,       -1.2602539062,       -0.4091796875,        0.1049804688,       49.4537353516,        6.1187744141,      156.6162109375
1494295235.2801799774,       -1.3798828125,       -0.5717773438,       -0.0112304688,       50.0183105469,        6.7138671875,      164.2913818359
1494295235.2829310894,       -1.3798828125,       -0.5717773438,       -0.0112304688,       50.0183105469,        6.7138671875,      164.2913818359
1494295235.2855908871,       -1.3798828125,       -0.5717773438,       -0.0112304688,       50.5828857422,        7.3699951172,      170.3491210938
1494295235.2883439064,       -1.3798828125,       -0.5717773438,       -0.0634765625,       50.5828857422,        7.3699951172,      170.3491210938
1494295235.2911999226,       -1.4370117188,       -0.5708007812,       -0.0634765625,       48.0499267578,        6.9885253906,      178.3142089844
1494295235.2939090729,       -1.4370117188,       -0.5708007812,       -0.0634765625,       48.0499267578,        6.9885253906,      178.3142089844
1494295235.2966060638,       -1.4370117188,       -0.5708007812,       -0.0634765625,       49.9572753906,        6.0882568359,      186.6912841797
1494295235.2992990017,       -1.4370117188,       -0.7128906250,       -0.0947265625,       49.9572753906,        6.0882568359,      186.6912841797
1494295235.3019440174,       -1.3872070312,       -0.7128906250,       -0.0947265625,       50.8728027344,        7.0648193359,      193.8323974609
1494295235.3046081066,       -1.3872070312,       -0.7128906250,       -0.0947265625,       50.8728027344,        7.0648193359,      193.8323974609
1494295235.3071670532,       -1.3872070312,       -0.7128906250,       -0.0947265625,       53.6193847656,        7.5836181641,      201.2176513672
1494295235.3097240925,       -1.3569335938,       -0.8828125000,        0.0273437500,       53.6193847656,        7.5836181641,      201.2176513672
1494295235.3124179840,       -1.3569335938,       -0.8828125000,        0.0273437500,       59.4482421875,        9.1400146484,      209.1064453125
1494295235.3151099682,       -1.3569335938,       -0.8828125000,        0.0273437500,       59.4482421875,        9.1400146484,      209.1064453125
1494295235.3178069592,       -1.3569335938,       -0.8828125000,        0.0273437500,       67.8558349609,        7.8582763672,      216.2933349609
1494295235.3204989433,       -1.3383789062,       -0.9672851562,        0.2114257812,       67.8558349609,        7.8582763672,      216.2933349609
1494295235.3230760098,       -1.3383789062,       -0.9672851562,        0.2114257812,       79.5745849609,        5.4931640625,      222.1832275391
1494295235.3256309032,       -1.3383789062,       -0.9672851562,        0.2114257812,       80.5511474609,        5.4931640625,      222.1832275391
1494295235.3281850815,       -1.3383789062,       -0.9672851562,        0.2114257812,       80.5511474609,        5.4931640625,      227.4169921875
1494295235.3307309151,       -1.3476562500,       -0.8701171875,        0.3642578125,       98.1597900391,        2.6245117188,      227.4169921875
1494295235.3332879543,       -1.3476562500,       -0.8701171875,        0.3642578125,       98.1597900391,        2.6245117188,      231.3232421875
1494295235.3358430862,       -1.3476562500,       -0.8701171875,        0.3642578125,      119.9035644531,       -0.6408691406,      232.2845458984
1494295235.3383998871,       -1.3476562500,       -0.8701171875,        0.3642578125,      119.9035644531,       -0.6408691406,      232.2845458984
1494295235.3411049843,       -1.5800781250,       -0.6367187500,        0.3911132812,      142.4102783203,       -3.8757324219,      238.4185791016
1494295235.3436620235,       -1.5800781250,       -0.6367187500,        0.3911132812,      142.4102783203,       -3.8757324219,      238.4185791016
1494295235.3462200165,       -1.5800781250,       -0.6367187500,        0.3911132812,      158.9508056641,       -4.6539306641,      250.4730224609
1494295235.3487789631,       -1.5800781250,       -0.6367187500,        0.3911132812,      158.9508056641,       -4.6539306641,      250.4730224609
1494295235.3514780998,       -2.1245117188,       -0.5981445312,        0.3837890625,      156.1889648438,       -6.4239501953,      270.2178955078
1494295235.3540279865,       -2.1245117188,       -0.5981445312,        0.3837890625,      156.1889648438,       -6.4239501953,      270.2178955078
1494295235.3565790653,       -2.1245117188,       -0.5981445312,        0.3837890625,      133.2244873047,      -10.1013183594,      294.4488525391
1494295235.3591399193,       -2.1245117188,       -0.5981445312,        0.4003906250,      133.2244873047,      -10.1013183594,      294.4488525391
1494295235.3618021011,       -2.4746093750,       -1.1738281250,        0.4003906250,      101.4862060547,      -11.2762451172,      308.7615966797
1494295235.3645029068,       -2.4746093750,       -1.1738281250,        0.4003906250,      101.4862060547,      -11.2762451172,      308.7615966797
1494295235.3671960831,       -2.4746093750,       -1.1738281250,        0.4003906250,       64.4683837891,       -7.8430175781,      305.2215576172
1494295235.3698871136,       -2.4746093750,       -1.3291015625,        0.3544921875,       64.4683837891,       -7.8430175781,      305.2215576172
1494295235.3725929260,       -2.4775390625,       -1.3291015625,        0.3544921875,       35.6445312500,       -2.0141601562,      291.7480468750
1494295235.3752779961,       -2.4775390625,       -1.3291015625,        0.3544921875,       35.6445312500,       -2.0141601562,      291.7480468750
1494295235.3780739307,       -2.4775390625,       -1.3291015625,        0.3544921875,       21.2707519531,        2.1667480469,      276.9317626953
1494295235.3807780743,       -2.1367187500,       -0.4208984375,        0.4448242188,       21.2707519531,        2.1667480469,      276.9317626953
1494295235.3834741116,       -2.1367187500,       -0.4208984375,        0.4448242188,       24.7955322266,        8.3618164062,      261.8103027344
1494295235.3861639500,       -2.1367187500,       -0.4208984375,        0.4448242188,       24.7955322266,        8.3618164062,      261.8103027344
1494295235.3888590336,       -2.1367187500,       -0.4208984375,        0.4448242188,       40.9393310547,       19.0582275391,      251.1749267578
1494295235.3915688992,       -1.7792968750,       -0.2651367188,        0.1396484375,       40.9393310547,       19.0582275391,      251.1749267578
1494295235.3942630291,       -1.7792968750,       -0.2651367188,        0.1396484375,       40.0848388672,       24.4598388672,      244.1864013672
1494295235.3969550133,       -1.7792968750,       -0.2651367188,        0.1396484375,       40.0848388672,       24.4598388672,      244.1864013672
1494295235.3996479511,       -1.7792968750,       -0.5151367188,        0.2109375000,       14.2669677734,       19.0582275391,      237.0300292969
1494295235.4022760391,       -1.2622070312,       -0.5273437500,        0.2109375000,       14.2669677734,       19.0582275391,      237.0300292969
1494295235.4048340321,       -1.2622070312,       -0.5273437500,        0.2109375000,      -28.7017822266,        0.3967285156,      224.1363525391
1494295235.4076159000,       -1.2622070312,       -0.5273437500,        0.2109375000,      -30.4718017578,        0.3967285156,      224.1363525391
1494295235.4101800919,       -0.6372070312,       -0.5263671875,        0.4213867188,      -82.6873779297,      -25.5889892578,      202.7587890625
1494295235.4131999016,       -0.7128906250,       -0.5263671875,        0.4213867188,      -82.6873779297,      -25.5889892578,      202.7587890625
1494295235.4158980846,       -0.7128906250,       -0.5263671875,        0.4213867188,      -88.1652832031,      -38.1469726562,      164.0319824219
1494295235.4185979366,       -0.7128906250,       -0.5263671875,        0.4213867188,      -88.1652832031,      -38.1469726562,      164.0319824219
1494295235.4213459492,       -0.6137695312,        0.0385742188,       -0.0683593750,      -55.0537109375,      -35.6292724609,      118.2098388672
1494295235.4240438938,       -0.6137695312,        0.0385742188,       -0.0683593750,      -55.0537109375,      -35.6292724609,      118.2098388672
1494295235.4267380238,       -0.6137695312,        0.0385742188,       -0.0683593750,      -57.6629638672,      -52.1850585938,       94.2535400391
1494295235.4294340611,       -0.6137695312,        0.0385742188,        0.5566406250,      -57.6629638672,      -52.1850585938,       94.2535400391
1494295235.4321730137,       -0.6225585938,        0.5688476562,        0.5126953125,      -77.3162841797,      -79.2541503906,       86.1663818359
1494295235.4348740578,       -0.6225585938,        0.5688476562,        0.5126953125,      -77.3162841797,      -79.2541503906,       86.1663818359
1494295235.4375650883,       -0.6225585938,        0.5688476562,        0.5126953125,      -67.3522949219,      -73.3947753906,       60.4553222656
1494295235.4402620792,       -0.6225585938,       -0.4189453125,        0.0063476562,      -67.3522949219,      -73.3947753906,       60.4553222656
1494295235.4428529739,       -0.5737304688,       -0.4189453125,        0.0063476562,      -24.3835449219,      -45.4254150391,       12.2833251953
1494295235.4454100132,       -0.5737304688,       -0.4189453125,        0.0063476562,      -23.4527587891,      -45.4254150391,       12.2833251953
1494295235.4479670525,       -0.5737304688,       -0.4189453125,        0.0063476562,      -23.4527587891,      -29.8004150391,      -37.3687744141
1494295235.4505219460,       -0.3237304688,       -0.7578125000,       -0.0195312500,       20.9045410156,      -27.4963378906,      -37.3687744141
1494295235.4532001019,       -0.3178710938,       -0.7578125000,       -0.0195312500,       20.9045410156,      -27.4963378906,      -72.7996826172
1494295235.4557631016,       -0.3178710938,       -0.7578125000,       -0.0195312500,       40.2984619141,      -21.9268798828,      -72.7996826172
1494295235.4583179951,       -0.3178710938,       -0.7578125000,       -0.0195312500,       40.2984619141,      -21.9268798828,      -72.7996826172
1494295235.4610590935,       -0.1601562500,       -0.7304687500,       -0.0258789062,       36.5142822266,      -19.8822021484,      -96.3439941406
1494295235.4636170864,       -0.1601562500,       -0.7304687500,       -0.0258789062,       36.5142822266,      -19.8822021484,      -96.3439941406
1494295235.4661800861,       -0.1601562500,       -0.7304687500,       -0.0258789062,       20.0653076172,      -18.4631347656,     -118.9270019531
1494295235.4687409401,       -0.1601562500,       -0.7304687500,       -0.0258789062,       20.0653076172,      -18.4631347656,     -118.9270019531
1494295235.4714729786,       -0.1162109375,       -0.6748046875,       -0.1142578125,       -3.8909912109,      -18.6004638672,     -142.9748535156
1494295235.4741680622,       -0.1162109375,       -0.6748046875,       -0.1142578125,       -3.8909912109,      -18.6004638672,     -142.9748535156
1494295235.4768619537,       -0.1162109375,       -0.6748046875,       -0.1142578125,      -32.9895019531,      -20.0805664062,     -167.1447753906
1494295235.4795620441,       -0.1162109375,       -0.6748046875,       -0.1142578125,      -32.9895019531,      -20.0805664062,     -167.1447753906
1494295235.4822709560,       -0.1542968750,       -0.5273437500,        0.0092773438,      -60.9130859375,      -21.6217041016,     -190.0329589844
1494295235.4849750996,       -0.1542968750,       -0.5273437500,        0.0092773438,      -60.9130859375,      -21.6217041016,     -190.0329589844
1494295235.4876799583,       -0.1542968750,       -0.5273437500,        0.0092773438,      -80.7952880859,      -20.7061767578,     -209.6099853516
1494295235.4903779030,       -0.1542968750,       -0.4023437500,        0.1137695312,      -80.7952880859,      -20.7061767578,     -209.6099853516
1494295235.4929580688,       -0.1757812500,       -0.4125976562,        0.1137695312,      -92.0867919922,      -19.5312500000,     -226.8218994141
1494295235.4955160618,       -0.1757812500,       -0.4125976562,        0.1137695312,      -92.0867919922,      -19.5312500000,     -226.8218994141
1494295235.4980719090,       -0.1757812500,       -0.4125976562,        0.1137695312,      -99.3194580078,      -17.9901123047,     -242.7673339844
1494295235.5006771088,       -0.1757812500,       -0.2558593750,        0.1362304688,      -99.3194580078,      -17.9901123047,     -242.7673339844
1494295235.5033779144,       -0.2382812500,       -0.2558593750,        0.1362304688,     -103.1341552734,      -15.5181884766,     -256.8817138672
1494295235.5060720444,       -0.2382812500,       -0.2558593750,        0.1362304688,     -103.1341552734,      -15.5181884766,     -256.8817138672
1494295235.5087649822,       -0.2382812500,       -0.2558593750,        0.1362304688,     -103.0273437500,      -13.2598876953,     -268.9971923828
1494295235.5114760399,       -0.2973632812,       -0.1386718750,        0.1005859375,     -103.0273437500,      -13.2598876953,     -268.9971923828
1494295235.5141758919,       -0.2973632812,       -0.1386718750,        0.1005859375,      -97.4578857422,      -12.2375488281,     -281.5704345703
1494295235.5168719292,       -0.2973632812,       -0.1386718750,        0.1005859375,      -97.4578857422,      -12.2375488281,     -281.5704345703
1494295235.5195760727,       -0.2973632812,       -0.1386718750,        0.1005859375,      -88.6077880859,      -10.4827880859,     -294.1284179688
1494295235.5222890377,       -0.3862304688,       -0.1132812500,        0.0458984375,      -88.6077880859,      -10.4827880859,     -294.1284179688
1494295235.5251059532,       -0.3862304688,       -0.1132812500,        0.0458984375,      -76.8737792969,       -7.2784423828,     -306.2286376953
1494295235.5279529095,       -0.3862304688,       -0.1132812500,        0.0458984375,      -76.8737792969,       -7.2784423828,     -306.2286376953
1494295235.5310568810,       -0.3862304688,       -0.0776367188,       -0.0073242188,      -63.2629394531,       -2.9907226562,     -316.7572021484
1494295235.5336201191,       -0.4775390625,       -0.0776367188,       -0.0073242188,      -63.2629394531,       -2.9907226562,     -316.7572021484
1494295235.5361831188,       -0.4775390625,       -0.0776367188,       -0.0073242188,      -47.8973388672,        0.5950927734,     -325.4089355469
1494295235.5387349129,       -0.4775390625,       -0.0776367188,       -0.0073242188,      -47.8973388672,        0.5950927734,     -325.4089355469
1494295235.5413639545,       -0.6025390625,       -0.0200195312,       -0.0219726562,      -30.5328369141,        4.6081542969,     -333.5571289062
1494295235.5440640450,       -0.5747070312,       -0.0200195312,       -0.0219726562,      -30.5328369141,        4.6081542969,     -333.5571289062
1494295235.5467629433,       -0.5747070312,       -0.0200195312,       -0.0219726562,      -15.2435302734,        9.1400146484,     -341.2170410156
1494295235.5494558811,       -0.5747070312,       -0.0200195312,       -0.0219726562,      -15.2435302734,        9.1400146484,     -341.2170410156
1494295235.5521628857,       -0.6386718750,        0.0341796875,       -0.0253906250,       -2.0141601562,       13.7023925781,     -349.0142822266
1494295235.5548579693,       -0.6386718750,        0.0341796875,       -0.0253906250,       -2.0141601562,       13.7023925781,     -349.0142822266
1494295235.5575549603,       -0.6386718750,        0.0341796875,       -0.0253906250,        9.9487304688,       15.5944824219,     -356.6894531250
1494295235.5602500439,       -0.6386718750,        0.0341796875,       -0.0253906250,        9.9487304688,       15.5944824219,     -356.6894531250
1494295235.5628390312,       -0.7001953125,        0.0302734375,       -0.0400390625,       18.9666748047,       15.5639648438,     -363.9984130859
1494295235.5653939247,       -0.7001953125,        0.0302734375,       -0.0400390625,       18.9666748047,       15.5639648438,     -363.9984130859
1494295235.5679519176,       -0.7001953125,        0.0302734375,       -0.0400390625,       18.9666748047,       15.3198242188,     -371.8109130859
1494295235.5705130100,       -0.7001953125,        0.0302734375,       -0.0400390625,       23.2543945312,       15.3198242188,     -371.8109130859
1494295235.5730988979,       -0.8408203125,        0.0180664062,       -0.0297851562,       23.2543945312,       15.3198242188,     -378.5705566406
1494295235.5756580830,       -0.8408203125,        0.0180664062,       -0.0297851562,       25.5889892578,       15.8996582031,     -378.5705566406
1494295235.5782160759,       -0.8408203125,        0.0180664062,       -0.0297851562,       25.5889892578,       15.8996582031,     -386.3830566406
1494295235.5808749199,       -0.8408203125,        0.0180664062,        0.0097656250,       25.5432128906,       16.6015625000,     -384.6588134766
1494295235.5834510326,       -1.0273437500,       -0.0200195312,        0.0097656250,       25.5432128906,       16.6015625000,     -384.6588134766
1494295235.5860090256,       -1.0273437500,       -0.0200195312,        0.0097656250,       22.3693847656,       17.0135498047,     -389.7705078125
1494295235.5885670185,       -1.0273437500,       -0.0200195312,        0.0097656250,       22.3693847656,       17.0135498047,     -389.7705078125
1494295235.5912930965,       -1.0273437500,       -0.0200195312,        0.0312500000,       15.5792236328,       18.6004638672,     -394.5007324219
1494295235.5939979553,       -1.2299804688,       -0.0468750000,        0.0312500000,       15.5792236328,       18.6004638672,     -394.5007324219
1494295235.5966980457,       -1.2299804688,       -0.0468750000,        0.0312500000,        3.1585693359,       19.3176269531,     -399.2309570312
1494295235.5995059013,       -1.2299804688,       -0.0468750000,        0.0312500000,        3.1585693359,       19.3176269531,     -399.2309570312
1494295235.6022150517,       -1.4106445312,       -0.0195312500,        0.0283203125,      -14.2364501953,       19.0124511719,     -404.1748046875
1494295235.6049139500,       -1.4106445312,       -0.0195312500,        0.0283203125,      -14.2364501953,       19.0124511719,     -404.1748046875
1494295235.6076118946,       -1.4106445312,       -0.0195312500,        0.0283203125,      -36.2701416016,       18.7530517578,     -407.6843261719
1494295235.6103088856,       -1.4106445312,       -0.0195312500,        0.0283203125,      -36.2701416016,       18.7530517578,     -407.6843261719
1494295235.6130189896,       -1.5776367188,        0.0810546875,        0.0141601562,      -65.6280517578,       16.8304443359,     -409.2559814453
1494295235.6157200336,       -1.5776367188,        0.0810546875,        0.0141601562,      -65.6280517578,       16.8304443359,     -409.2559814453
1494295235.6184220314,       -1.5776367188,        0.0810546875,        0.0141601562,      -97.3205566406,       11.2457275391,     -408.2031250000
1494295235.6211469173,       -1.5776367188,        0.0810546875,        0.0141601562,      -97.3205566406,       11.2457275391,     -408.2031250000
1494295235.6237070560,       -1.6972656250,        0.4443359375,        0.1240234375,     -125.3356933594,        4.4708251953,     -403.9764404297
1494295235.6262640953,       -1.6972656250,        0.4443359375,        0.1240234375,     -125.3356933594,        4.4708251953,     -403.9764404297
1494295235.6288189888,       -1.6972656250,        0.4443359375,        0.1240234375,     -145.1263427734,        0.9613037109,     -397.3388671875
1494295235.6314899921,       -1.6972656250,        0.4443359375,        0.1303710938,     -145.1263427734,        0.9613037109,     -397.3388671875
1494295235.6340470314,       -1.8061523438,        0.7753906250,        0.1303710938,     -156.6619873047,       -0.3967285156,     -389.6331787109
1494295235.6366100311,       -1.8061523438,        0.7753906250,        0.1303710938,     -156.6619873047,       -0.3967285156,     -389.6331787109
1494295235.6391720772,       -1.8061523438,        0.7753906250,        0.1303710938,     -165.3594970703,       -0.6103515625,     -378.7536621094
1494295235.6418199539,       -1.8061523438,        0.8696289062,        0.2329101562,     -165.3594970703,       -0.6103515625,     -378.7536621094
1494295235.6445200443,       -1.8994140625,        0.8696289062,        0.2329101562,     -171.6308593750,        1.8615722656,     -365.3717041016
1494295235.6473441124,       -1.8994140625,        0.8696289062,        0.2329101562,     -171.6308593750,        1.8615722656,     -365.3717041016
1494295235.6500411034,       -1.8994140625,        0.8696289062,        0.2329101562,     -169.2047119141,        7.9956054688,     -350.9368896484
1494295235.6531610489,       -1.8984375000,        0.9360351562,        0.3227539062,     -169.2047119141,        7.9956054688,     -350.9368896484
1494295235.6558620930,       -1.8984375000,        0.9360351562,        0.3227539062,     -154.9530029297,       17.0440673828,     -335.9680175781
1494295235.6585569382,       -1.8984375000,        0.9360351562,        0.3227539062,     -154.9530029297,       17.0440673828,     -335.9680175781
1494295235.6612660885,       -1.8984375000,        0.9360351562,        0.3227539062,     -135.2996826172,       24.6124267578,     -321.0601806641
1494295235.6639649868,       -1.8569335938,        1.0869140625,        0.4199218750,     -135.2996826172,       24.6124267578,     -321.0601806641
1494295235.6666619778,       -1.8569335938,        1.0869140625,        0.4199218750,     -117.6147460938,       29.0832519531,     -304.4433593750
1494295235.6693630219,       -1.8569335938,        1.0869140625,        0.4199218750,     -117.6147460938,       29.0832519531,     -304.4433593750
1494295235.6720669270,       -1.8569335938,        1.2119140625,        0.5000000000,     -106.4910888672,       30.8074951172,     -287.9791259766
1494295235.6748769283,       -1.7709960938,        1.1992187500,        0.5000000000,     -106.4910888672,       30.8074951172,     -287.9791259766
1494295235.6775839329,       -1.7709960938,        1.1992187500,        0.5000000000,     -104.4464111328,       31.8603515625,     -271.4538574219
1494295235.6802799702,       -1.7709960938,        1.1992187500,        0.5000000000,     -104.4464111328,       31.8603515625,     -271.4538574219
1494295235.6828761101,       -1.5893554688,        1.3095703125,        0.5864257812,     -112.7014160156,       31.6162109375,     -253.7384033203
1494295235.6854341030,       -1.5893554688,        1.3095703125,        0.5864257812,     -112.7014160156,       31.6162109375,     -253.7384033203
1494295235.6879971027,       -1.5893554688,        1.3095703125,        0.5864257812,     -128.0364990234,       27.7709960938,     -235.5499267578
1494295235.6905589104,       -1.5893554688,        1.3095703125,        0.5864257812,     -128.0364990234,       27.7709960938,     -235.5499267578
1494295235.6931231022,       -1.2597656250,        1.7690429688,        0.8549804688,     -128.0364990234,       16.8457031250,     -218.1091308594
1494295235.6956789494,       -1.2597656250,        1.7690429688,        0.8549804688,     -142.6239013672,       16.8457031250,     -218.1091308594
1494295235.6982400417,       -1.2597656250,        1.7690429688,        0.8549804688,     -142.6239013672,       16.8457031250,     -199.2187500000
1494295235.7009060383,       -1.2597656250,        1.7690429688,        0.8549804688,     -139.3890380859,        3.9062500000,     -199.2187500000
1494295235.7034769058,       -1.0083007812,        2.3203125000,        0.9697265625,     -139.3890380859,        3.9062500000,     -173.7976074219
1494295235.7060298920,       -1.0083007812,        2.3203125000,        0.9697265625,     -114.9597167969,       -6.2103271484,     -173.7976074219
1494295235.7085850239,       -1.0083007812,        2.3203125000,        0.9697265625,     -114.9597167969,       -6.2103271484,     -173.7976074219
1494295235.7112889290,       -1.0083007812,        2.3203125000,        0.9697265625,      -76.7059326172,      -14.9383544922,     -138.9007568359
1494295235.7139930725,       -0.8852539062,        2.5898437500,        0.6787109375,      -76.7059326172,      -14.9383544922,     -138.9007568359
1494295235.7166950703,       -0.8852539062,        2.5898437500,        0.6787109375,      -35.1562500000,      -23.7121582031,      -96.8627929688
1494295235.7193930149,       -0.8852539062,        2.5898437500,        0.6787109375,      -35.1562500000,      -23.7121582031,      -96.8627929688
1494295235.7220969200,       -0.8852539062,        2.5898437500,        0.4028320312,       -0.3814697266,      -31.0058593750,      -51.4678955078
1494295235.7247910500,       -0.9121093750,        2.4365234375,        0.4028320312,       -0.3814697266,      -31.0058593750,      -51.4678955078
1494295235.7274849415,       -0.9121093750,        2.4365234375,        0.4028320312,       25.1159667969,      -33.7219238281,       -7.3089599609
1494295235.7301750183,       -0.9121093750,        2.4365234375,        0.4028320312,       25.1159667969,      -33.7219238281,       -7.3089599609
1494295235.7327580452,       -0.9121093750,        2.1518554688,        0.3886718750,       40.0390625000,      -32.9589843750,       33.4625244141
1494295235.7353119850,       -0.8891601562,        2.1518554688,        0.3886718750,       40.0390625000,      -32.9589843750,       33.4625244141
1494295235.7378659248,       -0.8891601562,        2.1518554688,        0.3886718750,       44.4335937500,      -30.9295654297,       71.8536376953
1494295235.7404251099,       -0.8891601562,        2.1518554688,        0.3886718750,       44.4335937500,      -30.9295654297,       71.8536376953
1494295235.7430338860,       -0.7641601562,        1.9340820312,        0.3657226562,       36.6363525391,      -32.1502685547,      107.1929931641
1494295235.7457070351,       -0.8544921875,        1.9340820312,        0.3657226562,       36.6363525391,      -32.1502685547,      107.1929931641
1494295235.7482619286,       -0.8544921875,        1.9340820312,        0.3657226562,       19.2565917969,      -37.1093750000,      138.6413574219
1494295235.7508718967,       -0.8544921875,        1.9340820312,        0.3657226562,       19.2565917969,      -37.1093750000,      138.6413574219
1494295235.7534399033,       -0.8901367188,        1.7021484375,        0.2255859375,       -2.4414062500,      -44.4488525391,      166.0919189453
1494295235.7559978962,       -0.8901367188,        1.7021484375,        0.2255859375,       -2.4414062500,      -44.4488525391,      166.0919189453
1494295235.7585570812,       -0.8901367188,        1.7021484375,        0.2255859375,      -21.9726562500,      -49.6063232422,      188.7664794922
1494295235.7611930370,       -0.8901367188,        1.7021484375,        0.2255859375,      -23.0865478516,      -49.6063232422,      188.7664794922
1494295235.7638890743,       -1.0136718750,        0.9096679688,        0.0581054688,      -23.0865478516,      -53.2989501953,      202.5604248047
1494295235.7666320801,       -1.0136718750,        0.9096679688,        0.0581054688,      -45.3033447266,      -53.2989501953,      202.5604248047
1494295235.7694098949,       -1.0136718750,        0.9096679688,        0.0581054688,      -60.5163574219,      -46.5698242188,      204.2846679688
1494295235.7725489140,       -1.0136718750,        0.9096679688,       -0.2548828125,      -60.5163574219,      -46.5698242188,      204.2846679688
1494295235.7752499580,       -1.3007812500,       -0.5761718750,       -0.2548828125,     -105.1788330078,      -27.1759033203,      204.1168212891
1494295235.7779529095,       -1.3007812500,       -0.5761718750,       -0.2548828125,     -105.1788330078,      -27.1759033203,      204.1168212891
1494295235.7806870937,       -1.3007812500,       -0.5761718750,       -0.2548828125,     -222.7478027344,      -16.5100097656,      178.3752441406
1494295235.7832489014,       -1.3007812500,       -4.3715820312,        0.4829101562,     -222.7478027344,      -16.5100097656,      178.3752441406
1494295235.7858109474,       -1.7133789062,       -4.3715820312,        0.4829101562,     -214.9353027344,      -19.8211669922,      117.9351806641
1494295235.7883710861,       -1.7133789062,       -4.3715820312,        0.4829101562,     -216.4611816406,      -19.8211669922,      117.9351806641
1494295235.7909870148,       -1.7133789062,       -4.3715820312,        0.4829101562,     -216.4611816406,      -20.8435058594,       77.4078369141
1494295235.7936840057,       -3.3300781250,       -0.3422851562,       -2.3452148438,       14.5721435547,      -20.8435058594,       77.4078369141
1494295235.7963860035,       -3.3300781250,       -0.3422851562,       -2.3452148438,       14.5721435547,      -24.7497558594,      164.2456054688
1494295235.7990829945,       -3.3300781250,       -0.3422851562,       -2.3452148438,      -26.3519287109,      -26.3214111328,      164.2456054688
1494295235.8017430305,       -3.3300781250,       -0.3422851562,       -2.3452148438,      -26.3519287109,      -26.3214111328,      274.5819091797
1494295235.8042979240,       -2.0297851562,        4.3110351562,        0.4379882812,     -264.4195556641,      -32.9742431641,      274.5819091797
1494295235.8068540096,       -2.0297851562,        4.3110351562,        0.4379882812,     -264.4195556641,      -32.9742431641,      286.3006591797
1494295235.8094120026,       -2.0297851562,        4.3110351562,        0.4379882812,     -364.0594482422,      -77.3620605469,      286.4227294922
1494295235.8119759560,       -2.0297851562,        4.3110351562,        0.4379882812,     -364.0594482422,      -77.3620605469,      286.4227294922
1494295235.8145380020,       -0.3417968750,        2.4311523438,        0.3613281250,     -229.0191650391,      -86.7156982422,      253.0670166016
1494295235.8171010017,       -0.3417968750,        2.4311523438,        0.3613281250,     -229.0191650391,      -86.7156982422,      253.0670166016
1494295235.8197689056,       -0.3417968750,        2.4311523438,        0.3613281250,       -0.5950927734,      -81.4666748047,      213.3331298828
1494295235.8224298954,       -0.3417968750,        2.4311523438,        0.3613281250,       -0.5950927734,      -81.4666748047,      213.3331298828
1494295235.8249878883,       -0.6303710938,        0.4951171875,       -0.3256835938,      143.3868408203,      -54.2297363281,      177.4291992188
1494295235.8275458813,       -0.6303710938,        0.4951171875,       -0.3256835938,      143.3868408203,      -54.2297363281,      177.4291992188
1494295235.8301100731,       -0.6303710938,        0.4951171875,       -0.3256835938,      167.6788330078,      -30.3344726562,      153.9764404297
1494295235.8328049183,       -0.6303710938,        0.4951171875,       -0.3256835938,      167.6788330078,      -30.3344726562,      153.9764404297
1494295235.8353710175,       -0.4125976562,        0.6718750000,        0.3657226562,      126.1596679688,      -24.3225097656,      142.1051025391
1494295235.8379309177,       -0.4125976562,        0.6718750000,        0.3657226562,      126.1596679688,      -24.3225097656,      142.1051025391
1494295235.8404879570,       -0.4125976562,        0.6718750000,        0.3657226562,       74.5239257812,      -35.0036621094,      137.8326416016
1494295235.8432180882,       -0.4125976562,        0.6718750000,        0.6240234375,       74.5239257812,      -35.0036621094,      137.8326416016
1494295235.8459129333,       -0.6015625000,        0.6372070312,        0.6240234375,       34.4848632812,      -55.4046630859,      136.0931396484
1494295235.8486170769,       -0.6015625000,        0.6372070312,        0.6240234375,       34.4848632812,      -55.4046630859,      136.0931396484
1494295235.8513629436,       -0.6015625000,        0.6372070312,        0.6240234375,        6.3781738281,      -69.7631835938,      134.0789794922
1494295235.8540558815,       -1.1015625000,        0.6738281250,        0.6420898438,        6.3781738281,      -69.7631835938,      134.0789794922
1494295235.8567481041,       -1.0156250000,        0.6738281250,        0.6420898438,      -14.6789550781,      -76.8127441406,      136.2609863281
1494295235.8594460487,       -1.0156250000,        0.6738281250,        0.6420898438,      -14.6789550781,      -76.8127441406,      136.2609863281
1494295235.8620810509,       -1.0156250000,        0.6738281250,        0.6420898438,      -22.4914550781,      -78.8879394531,      140.8233642578
1494295235.8646390438,       -1.3027343750,        0.7509765625,        0.1430664062,      -20.2789306641,      -78.8879394531,      140.8233642578
1494295235.8672029972,       -1.3027343750,        0.7509765625,        0.1430664062,      -20.2789306641,      -67.1691894531,      139.3585205078
1494295235.8697609901,       -1.3027343750,        0.7509765625,        0.1430664062,       -3.2348632812,      -68.2983398438,      139.3585205078
1494295235.8724610806,       -1.3027343750,        0.7509765625,        0.1430664062,       -3.2348632812,      -68.2983398438,      126.9378662109
1494295235.8750200272,       -1.1010742188,        0.5825195312,        0.0092773438,       16.6320800781,      -47.9583740234,      126.9378662109
1494295235.8775858879,       -1.1010742188,        0.5825195312,        0.0092773438,       16.6320800781,      -47.9583740234,      107.4066162109
1494295235.8801460266,       -1.1010742188,        0.5825195312,        0.0092773438,       43.7774658203,      -29.6478271484,      105.5297851562
1494295235.8827960491,       -1.1010742188,        0.5825195312,        0.0092773438,       43.7774658203,      -29.6478271484,      105.5297851562
1494295235.8853509426,       -0.6103515625,        0.5292968750,        0.1640625000,       71.9757080078,      -29.1290283203,       90.1489257812
1494295235.8881430626,       -0.6103515625,        0.5292968750,        0.1640625000,       71.9757080078,      -29.1290283203,       90.1489257812
1494295235.8910870552,       -0.6103515625,        0.5292968750,        0.1640625000,       87.4023437500,      -39.2303466797,       85.2203369141
1494295235.8939061165,       -0.6103515625,        0.4042968750,        0.2705078125,       87.4023437500,      -39.2303466797,       79.0405273438
1494295235.8966059685,       -0.7700195312,        0.3950195312,        0.2705078125,       91.4611816406,      -37.7960205078,       79.0405273438
1494295235.8993060589,       -0.7700195312,        0.3950195312,        0.2705078125,       91.4611816406,      -37.7960205078,       68.1610107422
1494295235.9020171165,       -0.7700195312,        0.3950195312,        0.2705078125,       94.7113037109,      -25.6958007812,       68.1610107422
1494295235.9047179222,       -0.8271484375,        0.1777343750,        0.2280273438,       94.7113037109,      -25.6958007812,       56.4422607422
1494295235.9074161053,       -0.8271484375,        0.1777343750,        0.2280273438,      101.3641357422,      -17.1966552734,       58.3648681641
1494295235.9101190567,       -0.8271484375,        0.1777343750,        0.2280273438,      101.3641357422,      -17.1966552734,       54.4586181641
1494295235.9128339291,       -0.8271484375,        0.1777343750,        0.2280273438,      101.3946533203,      -15.3808593750,       52.6885986328
1494295235.9155349731,       -0.7934570312,        0.1210937500,        0.0805664062,      101.3946533203,      -15.3808593750,       48.7823486328
1494295235.9182400703,       -0.7934570312,        0.1210937500,        0.0805664062,       91.5679931641,      -15.4724121094,       47.8057861328
1494295235.9209430218,       -0.7934570312,        0.1210937500,        0.0805664062,       91.5679931641,      -15.4724121094,       47.8057861328
1494295235.9235019684,       -0.7934570312,        0.1210937500,        0.0805664062,       78.6743164062,      -15.5792236328,       41.3055419922
1494295235.9260649681,       -0.7700195312,        0.1250000000,        0.0351562500,       78.6743164062,      -15.5792236328,       41.3055419922
1494295235.9286229610,       -0.7700195312,        0.1250000000,        0.0351562500,       65.9027099609,      -14.8315429688,       37.1856689453
1494295235.9311909676,       -0.7700195312,        0.1250000000,        0.0351562500,       65.9027099609,      -14.8315429688,       37.1856689453
1494295235.9337499142,       -0.7700195312,        0.1250000000,        0.0351562500,       53.0853271484,      -13.9007568359,       35.4156494141
1494295235.9363040924,       -0.7543945312,        0.0415039062,        0.0415039062,       53.0853271484,      -13.9007568359,       35.4156494141
1494295235.9388608932,       -0.7543945312,        0.0415039062,        0.0415039062,       43.5333251953,      -14.4500732422,       33.8592529297
1494295235.9415500164,       -0.7543945312,        0.0415039062,        0.0415039062,       43.5333251953,      -14.4500732422,       33.8592529297
1494295235.9441080093,       -0.7543945312,        0.0415039062,        0.1098632812,       41.3360595703,      -13.5345458984,       32.2875976562
1494295235.9466650486,       -0.8110351562,       -0.0654296875,        0.1098632812,       41.3360595703,      -13.5345458984,       32.2875976562
1494295235.9492249489,       -0.8110351562,       -0.0654296875,        0.1098632812,       43.4570312500,      -10.5743408203,       29.9377441406
1494295235.9519479275,       -0.8110351562,       -0.0654296875,        0.1098632812,       43.4570312500,      -10.5743408203,       29.9377441406
1494295235.9546480179,       -0.8110351562,       -0.0214843750,        0.1401367188,       44.5251464844,       -8.0413818359,       28.4118652344
1494295235.9573409557,       -0.8310546875,       -0.0214843750,        0.1401367188,       44.5251464844,       -8.0413818359,       28.4118652344
1494295235.9600350857,       -0.8310546875,       -0.0214843750,        0.1401367188,       42.6483154297,       -6.3934326172,       27.4810791016
1494295235.9627680779,       -0.8310546875,       -0.0214843750,        0.1401367188,       42.6483154297,       -6.3934326172,       27.4810791016
1494295235.9655649662,       -0.7919921875,       -0.0107421875,        0.1655273438,       40.1916503906,       -5.8441162109,       27.2674560547
1494295235.9682629108,       -0.7919921875,       -0.0107421875,        0.1655273438,       40.1916503906,       -5.8441162109,       27.2674560547
1494295235.9709680080,       -0.7919921875,       -0.0107421875,        0.1655273438,       40.1916503906,       -5.2642822266,       27.0690917969
1494295235.9735279083,       -0.7919921875,       -0.0107421875,        0.1655273438,       39.6728515625,       -5.2642822266,       27.0690917969
1494295235.9760859013,       -0.7460937500,       -0.0615234375,        0.1967773438,       39.6728515625,       -5.2642822266,       26.3671875000
1494295235.9786419868,       -0.7460937500,       -0.0615234375,        0.1967773438,       40.3900146484,       -4.9591064453,       26.3671875000
1494295235.9812068939,       -0.7460937500,       -0.0615234375,        0.1967773438,       40.3900146484,       -4.9591064453,       26.2603759766
1494295235.9837670326,       -0.7460937500,       -0.0615234375,        0.1967773438,       42.2821044922,       -4.2266845703,       26.2603759766
1494295235.9863269329,       -0.7099609375,       -0.0249023438,        0.2446289062,       42.2821044922,       -4.2266845703,       26.2603759766
1494295235.9888811111,       -0.7099609375,       -0.0249023438,        0.2446289062,       45.8679199219,       -2.0294189453,       26.1688232422
1494295235.9914910793,       -0.7099609375,       -0.0249023438,        0.2446289062,       45.8679199219,       -2.0294189453,       26.1688232422
1494295235.9941940308,       -0.7099609375,       -0.0249023438,        0.2446289062,       51.6662597656,       -0.9155273438,       27.0385742188
1494295235.9968891144,       -0.7192382812,        0.0366210938,        0.2329101562,       51.6662597656,       -0.9155273438,       27.0385742188
1494295235.9995849133,       -0.7192382812,        0.0366210938,        0.2329101562,       57.4951171875,       -1.6937255859,       28.3660888672
1494295236.0022830963,       -0.7192382812,        0.0366210938,        0.2329101562,       57.4951171875,       -1.6937255859,       28.3660888672
1494295236.0049839020,       -0.7192382812,        0.0366210938,        0.2236328125,       60.5621337891,       -2.7923583984,       30.1818847656
1494295236.0077650547,       -0.7421875000,        0.0229492188,        0.2236328125,       60.5621337891,       -2.7923583984,       30.1818847656
1494295236.0109000206,       -0.7421875000,        0.0229492188,        0.2236328125,       61.3861083984,       -4.1046142578,       32.1044921875
1494295236.0136010647,       -0.7421875000,        0.0229492188,        0.2236328125,       61.3861083984,       -4.1046142578,       36.0107421875
1494295236.0162980556,       -0.7602539062,        0.0839843750,        0.1928710938,       62.3931884766,       -5.3863525391,       35.7513427734
1494295236.0189900398,       -0.7602539062,        0.0839843750,        0.1928710938,       62.3931884766,       -5.3863525391,       39.6575927734
1494295236.0216391087,       -0.7602539062,        0.0839843750,        0.1928710938,       64.7735595703,       -6.7291259766,       40.6494140625
1494295236.0241889954,       -0.7602539062,        0.0839843750,        0.1928710938,       64.7735595703,       -6.7291259766,       40.6494140625
1494295236.0267419815,       -0.7324218750,        0.0668945312,        0.1850585938,       69.7784423828,       -8.0261230469,       44.5098876953
1494295236.0292999744,       -0.7324218750,        0.0668945312,        0.1850585938,       69.7784423828,       -8.0261230469,       44.5098876953
1494295236.0319750309,       -0.7324218750,        0.0668945312,        0.1850585938,       76.0498046875,       -8.5601806641,       47.1191406250
1494295236.0346720219,       -0.7324218750,        0.0668945312,        0.1850585938,       76.0498046875,       -8.5601806641,       47.1191406250
1494295236.0373671055,       -0.7578125000,        0.0590820312,        0.1723632812,       82.9925537109,       -7.3242187500,       50.3692626953
1494295236.0401790142,       -0.7578125000,        0.0590820312,        0.1723632812,       82.9925537109,       -7.3242187500,       50.3692626953
1494295236.0427620411,       -0.7578125000,        0.0590820312,        0.1723632812,       89.9963378906,       -5.3710937500,       54.2907714844
1494295236.0453150272,       -0.7578125000,       -0.0659179688,        0.0610351562,       89.9963378906,       -5.3710937500,       54.2907714844
1494295236.0478699207,       -0.8183593750,       -0.0058593750,        0.0610351562,       93.6126708984,       -4.3487548828,       58.9141845703
1494295236.0504291058,       -0.8183593750,       -0.0058593750,        0.0610351562,       93.6126708984,       -4.3487548828,       58.9141845703
1494295236.0530300140,       -0.8183593750,       -0.0058593750,        0.0610351562,       90.2557373047,       -3.6010742188,       63.5375976562
1494295236.0555849075,       -0.8183593750,       -0.1059570312,        0.0629882812,       90.2557373047,       -3.6010742188,       63.5375976562
1494295236.0581378937,       -0.7915039062,       -0.1059570312,        0.0629882812,       85.6475830078,       -2.1972656250,       67.6422119141
1494295236.0608079433,       -0.7915039062,       -0.1059570312,        0.0629882812,       85.6475830078,       -2.1972656250,       67.6422119141
1494295236.0633699894,       -0.7915039062,       -0.1059570312,        0.0629882812,       77.8350830078,        0.1678466797,       72.8607177734
1494295236.0659248829,       -0.7915039062,       -0.0830078125,       -0.0478515625,       77.4078369141,        0.1678466797,       72.8607177734
1494295236.0684840679,       -0.8076171875,       -0.0830078125,       -0.0478515625,       77.4078369141,        0.1678466797,       78.7200927734
1494295236.0711669922,       -0.8076171875,       -0.0830078125,       -0.0478515625,       66.6046142578,        1.7700195312,       78.7200927734
1494295236.0737330914,       -0.8076171875,       -0.0830078125,       -0.0478515625,       66.6046142578,        1.7700195312,       83.2061767578
1494295236.0762898922,       -0.9599609375,        0.0063476562,       -0.0493164062,       58.1665039062,        2.2888183594,       83.2061767578
1494295236.0788478851,       -0.9599609375,        0.0063476562,       -0.0493164062,       58.1665039062,        2.2888183594,       87.1124267578
1494295236.0814480782,       -0.9599609375,        0.0063476562,       -0.0493164062,       54.4891357422,        2.2583007812,       86.1663818359
1494295236.0841290951,       -0.9599609375,        0.0063476562,       -0.0493164062,       54.4891357422,        2.2583007812,       86.1663818359
1494295236.0868089199,       -1.0283203125,        0.0952148438,        0.0048828125,       55.3894042969,        2.1972656250,       88.6230468750
1494295236.0894870758,       -1.0283203125,        0.0952148438,        0.0048828125,       55.3894042969,        2.1972656250,       88.6230468750
1494295236.0921819210,       -1.0283203125,        0.0952148438,        0.0048828125,       57.5866699219,        1.5563964844,       91.7358398438
1494295236.0948610306,       -1.0283203125,        0.0952148438,        0.0048828125,       57.5866699219,        1.5563964844,       91.7358398438
1494295236.0975370407,       -1.0166015625,        0.0566406250,        0.0043945312,       58.1665039062,        2.0294189453,       94.1009521484
1494295236.1002199650,       -1.0166015625,        0.0566406250,        0.0043945312,       58.1665039062,        2.0294189453,       94.1009521484
1494295236.1029689312,       -1.0166015625,        0.0566406250,        0.0043945312,       60.0280761719,        4.3640136719,       95.3216552734
1494295236.1056199074,       -1.0166015625,        0.0566406250,       -0.0151367188,       60.0280761719,        4.3640136719,       95.3216552734
1494295236.1082730293,       -1.0478515625,       -0.0205078125,       -0.0151367188,       62.2558593750,        7.8277587891,       98.4802246094
1494295236.1109600067,       -1.0478515625,       -0.0205078125,       -0.0151367188,       62.2558593750,        7.8277587891,       98.4802246094
1494295236.1137690544,       -1.0478515625,       -0.0205078125,       -0.0151367188,       59.6313476562,       10.1470947266,      103.3935546875
1494295236.1164751053,       -1.0634765625,       -0.1489257812,        0.0966796875,       59.6313476562,       10.1470947266,      103.3935546875
1494295236.1191730499,       -1.0634765625,       -0.1489257812,        0.0966796875,       55.4809570312,        9.6282958984,      109.4818115234
1494295236.1218121052,       -1.0634765625,       -0.1489257812,        0.0966796875,       55.4809570312,        9.6282958984,      109.4818115234
1494295236.1243700981,       -1.0634765625,       -0.1489257812,        0.0966796875,       51.9714355469,       10.0555419922,      116.3940429688
1494295236.1271429062,       -1.2055664062,       -0.3007812500,        0.0795898438,       51.9714355469,       10.0555419922,      116.3940429688
1494295236.1297199726,       -1.2055664062,       -0.3007812500,        0.0795898438,       46.5087890625,       10.9252929688,      123.5961914062
1494295236.1326420307,       -1.2055664062,       -0.3007812500,        0.0795898438,       46.5087890625,       10.9252929688,      123.5961914062
1494295236.1353340149,       -1.2055664062,       -0.3007812500,        0.0795898438,       43.1518554688,       11.0015869141,      130.5847167969
1494295236.1380360126,       -1.3071289062,       -0.3320312500,        0.0522460938,       43.1518554688,       11.0015869141,      130.5847167969
1494295236.1407439709,       -1.3071289062,       -0.3320312500,        0.0522460938,       42.3431396484,       10.5590820312,      138.1988525391
1494295236.1434459686,       -1.3071289062,       -0.3320312500,        0.0522460938,       42.3431396484,       10.5590820312,      138.1988525391
1494295236.1461429596,       -1.3071289062,       -0.4570312500,        0.0087890625,       43.4112548828,       10.2844238281,      145.4315185547
1494295236.1488420963,       -1.3100585938,       -0.4008789062,        0.0087890625,       43.4112548828,       10.2844238281,      145.4315185547
1494295236.1515529156,       -1.3100585938,       -0.4008789062,        0.0087890625,       44.7235107422,       10.5590820312,      153.3966064453
1494295236.1542460918,       -1.3100585938,       -0.4008789062,        0.0087890625,       44.7235107422,       10.5590820312,      153.3966064453
1494295236.1569468975,       -1.3393554688,       -0.4721679688,       -0.0429687500,       45.1202392578,       11.7187500000,      161.5295410156
1494295236.1596438885,       -1.3393554688,       -0.4721679688,       -0.0429687500,       45.1202392578,       11.7187500000,      161.5295410156
1494295236.1622970104,       -1.3393554688,       -0.4721679688,       -0.0429687500,       45.6237792969,       12.4664306641,      169.5709228516
1494295236.1648519039,       -1.3393554688,       -0.4721679688,       -0.0429687500,       45.6237792969,       12.4664306641,      169.5709228516
1494295236.1674120426,       -1.4135742188,       -0.5805664062,       -0.0263671875,       47.2564697266,       13.5803222656,      177.0935058594
1494295236.1699690819,       -1.4135742188,       -0.5805664062,       -0.0263671875,       47.2564697266,       13.5803222656,      177.0935058594
1494295236.1725370884,       -1.4135742188,       -0.5805664062,       -0.0263671875,       49.7589111328,       14.6636962891,      184.0057373047
1494295236.1750969887,       -1.4135742188,       -0.5805664062,       -0.0263671875,       49.7589111328,       14.6636962891,      184.0057373047
1494295236.1776518822,       -1.4360351562,       -0.7031250000,        0.0727539062,       53.6651611328,       14.8620605469,      190.3381347656
1494295236.1802120209,       -1.4360351562,       -0.7031250000,        0.0727539062,       54.6112060547,       14.8620605469,      190.3381347656
1494295236.1828160286,       -1.4360351562,       -0.7031250000,        0.0727539062,       54.6112060547,       14.8620605469,      196.0296630859
1494295236.1854770184,       -1.4360351562,       -0.7031250000,        0.0727539062,       62.2711181641,       14.8315429688,      196.0296630859
1494295236.1880369186,       -1.3862304688,       -0.8081054688,        0.1391601562,       62.2711181641,       14.8315429688,      201.6143798828
1494295236.1905949116,       -1.3862304688,       -0.8081054688,        0.1391601562,       68.8781738281,       15.9301757812,      201.6143798828
1494295236.1933200359,       -1.3862304688,       -0.8081054688,        0.1391601562,       68.8781738281,       15.9301757812,      206.8786621094
1494295236.1960139275,       -1.3862304688,       -0.8081054688,        0.2641601562,       80.9783935547,       15.0451660156,      206.8786621094
1494295236.1987109184,       -1.3627929688,       -0.9267578125,        0.2788085938,       80.9783935547,       15.0451660156,      211.3952636719
1494295236.2014200687,       -1.3627929688,       -0.9267578125,        0.2788085938,       95.8709716797,       14.6942138672,      211.3952636719
1494295236.2041211128,       -1.3627929688,       -0.9267578125,        0.2788085938,       95.8709716797,       14.6942138672,      215.3015136719
1494295236.2068219185,       -1.3627929688,       -1.0322265625,        0.3637695312,      111.6027832031,       13.1988525391,      216.7053222656
1494295236.2095220089,       -1.3359375000,       -1.0322265625,        0.3637695312,      111.6027832031,       13.1988525391,      220.6115722656
1494295236.2122340202,       -1.3359375000,       -1.0322265625,        0.3637695312,      126.8310546875,       10.7116699219,      221.5881347656
1494295236.2149279118,       -1.3359375000,       -1.0322265625,        0.3637695312,      126.8310546875,       10.7116699219,      229.4006347656
1494295236.2176260948,       -1.5341796875,       -0.8916015625,        0.3447265625,      140.2587890625,        9.7198486328,      226.7456054688
1494295236.2203209400,       -1.5341796875,       -0.8916015625,        0.3447265625,      140.2587890625,        9.7198486328,      226.7456054688
1494295236.2229061127,       -1.5341796875,       -0.8916015625,        0.3447265625,      144.0124511719,        8.7280273438,      236.3739013672
1494295236.2254641056,       -1.5341796875,       -0.8916015625,        0.3447265625,      144.0124511719,        8.7280273438,      236.3739013672
1494295236.2280189991,       -2.1166992188,       -0.5805664062,        0.4111328125,      125.6103515625,        6.6833496094,      256.6528320312
1494295236.2305788994,       -2.1166992188,       -0.5805664062,        0.4111328125,      125.6103515625,        6.6833496094,      256.6528320312
1494295236.2332839966,       -2.1166992188,       -0.5805664062,        0.4111328125,       88.3789062500,        1.6174316406,      284.7900390625
1494295236.2359778881,       -2.1166992188,       -0.5805664062,        0.4111328125,       88.3789062500,        1.6174316406,      284.7900390625
1494295236.2386779785,       -2.4511718750,       -1.0791015625,        0.3999023438,       51.4984130859,       -2.3345947266,      304.3670654297
1494295236.2413799763,       -2.4511718750,       -1.0791015625,        0.3999023438,       51.4984130859,       -2.3345947266,      304.3670654297
1494295236.2440710068,       -2.4511718750,       -1.0791015625,        0.3999023438,       28.3813476562,       -1.7852783203,      303.2531738281
1494295236.2468430996,       -2.4511718750,       -1.0791015625,        0.3676757812,       28.3813476562,       -1.7852783203,      303.2531738281
1494295236.2496750355,       -2.4306640625,       -1.0937500000,        0.3676757812,        8.7890625000,        2.6245117188,      289.9017333984
1494295236.2527029514,       -2.4306640625,       -1.0937500000,        0.3676757812,        8.7890625000,        2.6245117188,      289.9017333984
1494295236.2553930283,       -2.4306640625,       -1.0937500000,        0.3676757812,       -1.9989013672,        9.2010498047,      273.9715576172
1494295236.2580819130,       -2.1958007812,       -0.3730468750,        0.3413085938,       -1.9989013672,        9.2010498047,      273.9715576172
1494295236.2609310150,       -2.1958007812,       -0.3730468750,        0.3413085938,        5.6762695312,       18.8903808594,      262.6342773438
1494295236.2636260986,       -2.1958007812,       -0.3730468750,        0.3413085938,        5.6762695312,       18.8903808594,      262.6342773438
1494295236.2663230896,       -2.1958007812,       -0.3730468750,        0.3413085938,       17.3492431641,       30.1055908203,      255.3253173828
1494295236.2690200806,       -1.7753906250,       -0.4599609375,        0.1967773438,       17.3492431641,       30.1055908203,      255.3253173828
1494295236.2717120647,       -1.7753906250,       -0.4599609375,        0.1967773438,        7.8582763672,       32.2113037109,      245.7427978516
1494295236.2742650509,       -1.7753906250,       -0.4599609375,        0.1967773438,        7.8582763672,       32.2113037109,      245.7427978516
1494295236.2768220901,       -1.7753906250,       -0.4599609375,        0.3217773438,      -27.2369384766,       22.8118896484,      232.8338623047
1494295236.2793800831,       -1.2661132812,       -0.5722656250,        0.3662109375,      -27.2369384766,       22.8118896484,      232.8338623047
1494295236.2819468975,       -1.2661132812,       -0.5722656250,        0.3662109375,      -76.1871337891,        1.8920898438,      218.4753417969
1494295236.2845029831,       -1.2661132812,       -0.5722656250,        0.3662109375,      -76.1871337891,        1.8920898438,      218.4753417969
1494295236.2870650291,       -1.2661132812,       -0.5722656250,        0.3193359375,     -118.4082031250,      -20.0500488281,      198.2727050781
1494295236.2896220684,       -0.7416992188,       -0.6528320312,        0.3193359375,     -118.4082031250,      -20.0500488281,      198.2727050781
1494295236.2921919823,       -0.7416992188,       -0.6528320312,        0.3193359375,     -109.7412109375,      -23.7274169922,      159.4390869141
1494295236.2947559357,       -0.7416992188,       -0.6528320312,        0.3193359375,     -109.7412109375,      -23.7274169922,      159.4390869141
1494295236.2973170280,       -0.7416992188,       -0.6528320312,        0.1259765625,     -109.7412109375,      -24.1699218750,      116.5008544922
1494295236.2998759747,       -0.7246093750,        0.1342773438,        0.1259765625,      -87.2802734375,      -24.1699218750,      116.5008544922
1494295236.3026010990,       -0.7246093750,        0.1342773438,        0.1259765625,      -87.2802734375,      -47.6074218750,       98.1750488281
1494295236.3051600456,       -0.7246093750,        0.1342773438,        0.1259765625,     -100.9368896484,      -47.4090576172,       98.1750488281
1494295236.3077208996,       -0.7246093750,        0.0375976562,        0.3095703125,     -100.9368896484,      -47.4090576172,       85.2203369141
1494295236.3102788925,       -0.8032226562,        0.0375976562,        0.3095703125,     -116.7755126953,      -54.3823242188,       85.2203369141
1494295236.3130979538,       -0.8032226562,        0.0375976562,        0.3095703125,     -116.7755126953,      -54.3823242188,       46.1425781250
1494295236.3157958984,       -0.8032226562,        0.0375976562,        0.3095703125,      -94.5129394531,      -23.3001708984,       46.1425781250
1494295236.3184869289,       -0.6694335938,       -0.8017578125,       -0.0913085938,      -94.5129394531,      -23.3001708984,       -9.4604492188
1494295236.3211760521,       -0.6694335938,       -0.8017578125,       -0.0913085938,      -46.1883544922,        1.9531250000,       -9.4604492188
1494295236.3237290382,       -0.6694335938,       -0.8017578125,       -0.0913085938,      -46.1883544922,        1.9531250000,       -9.4604492188
1494295236.3262810707,       -0.6694335938,       -0.8017578125,       -0.0913085938,      -12.2833251953,        7.5378417969,      -54.6722412109
1494295236.3288350105,       -0.3750000000,       -0.5888671875,       -0.0166015625,      -12.2833251953,        7.5378417969,      -54.6722412109
1494295236.3314349651,       -0.3750000000,       -0.5888671875,       -0.0166015625,       -3.0364990234,        7.8735351562,      -81.6497802734
1494295236.3342359066,       -0.3750000000,       -0.5888671875,       -0.0166015625,       -3.0364990234,        7.8735351562,      -81.6497802734
1494295236.3369259834,       -0.3750000000,       -0.5888671875,       -0.0166015625,       -6.0424804688,       10.8337402344,     -103.8665771484
1494295236.3396201134,       -0.2192382812,       -0.6079101562,       -0.0942382812,       -6.0424804688,       10.8337402344,     -103.8665771484
1494295236.3423659801,       -0.2192382812,       -0.6079101562,       -0.0942382812,      -15.5792236328,       14.4958496094,     -128.6621093750
1494295236.3450629711,       -0.2192382812,       -0.6079101562,       -0.0942382812,      -15.5792236328,       14.4958496094,     -128.6621093750
1494295236.3477621078,       -0.2192382812,       -0.6079101562,        0.0102539062,      -28.0456542969,       14.3127441406,     -154.9072265625
1494295236.3504650593,       -0.1523437500,       -0.6025390625,        0.0102539062,      -28.0456542969,       14.3127441406,     -154.9072265625
1494295236.3531789780,       -0.1523437500,       -0.6025390625,        0.0102539062,      -39.3981933594,       11.6577148438,     -179.7180175781
1494295236.3558859825,       -0.1523437500,       -0.6025390625,        0.0102539062,      -39.3981933594,       11.6577148438,     -179.7180175781
1494295236.3585879803,       -0.1733398438,       -0.5781250000,        0.1547851562,      -47.1038818359,       10.1470947266,     -201.9042968750
1494295236.3612949848,       -0.1733398438,       -0.5781250000,        0.1547851562,      -47.1038818359,       10.1470947266,     -201.9042968750
1494295236.3639910221,       -0.1733398438,       -0.5781250000,        0.1547851562,      -52.7496337891,        9.6435546875,     -221.3897705078
1494295236.3667008877,       -0.1733398438,       -0.5781250000,        0.1547851562,      -52.7496337891,        9.6435546875,     -221.3897705078
1494295236.3695669174,       -0.2646484375,       -0.4375000000,        0.1303710938,      -56.8542480469,       10.3607177734,     -238.8153076172
1494295236.3726000786,       -0.2646484375,       -0.4375000000,        0.1303710938,      -56.8542480469,       10.3607177734,     -238.8153076172
1494295236.3751599789,       -0.2646484375,       -0.4375000000,        0.1303710938,      -59.8297119141,       12.1917724609,     -254.9591064453
1494295236.3777210712,       -0.2646484375,       -0.4375000000,        0.0053710938,      -59.8297119141,       12.1917724609,     -254.9591064453
1494295236.3802878857,       -0.4096679688,       -0.2636718750,        0.0551757812,      -61.2945556641,       14.3127441406,     -270.0653076172
1494295236.3830170631,       -0.4096679688,       -0.2636718750,        0.0551757812,      -61.2945556641,       14.3127441406,     -270.0653076172
1494295236.3857231140,       -0.4096679688,       -0.2636718750,        0.0551757812,      -59.6008300781,       15.1367187500,     -284.2102050781
1494295236.3884210587,       -0.4096679688,       -0.1567382812,       -0.0166015625,      -59.6008300781,       15.1367187500,     -284.2102050781
1494295236.3911728859,       -0.4990234375,       -0.1567382812,       -0.0166015625,      -53.6499023438,       16.7388916016,     -298.0041503906
1494295236.3938701153,       -0.4990234375,       -0.1567382812,       -0.0166015625,      -53.6499023438,       16.7388916016,     -298.0041503906
1494295236.3965709209,       -0.4990234375,       -0.1567382812,       -0.0166015625,      -43.0603027344,       19.8364257812,     -311.9354248047
1494295236.3992741108,       -0.6157226562,       -0.0366210938,       -0.0673828125,      -43.0603027344,       19.8364257812,     -311.9354248047
1494295236.4019269943,       -0.6157226562,       -0.0366210938,       -0.0673828125,      -29.8461914062,       24.7802734375,     -324.3408203125
1494295236.4044849873,       -0.6157226562,       -0.0366210938,       -0.0673828125,      -29.8461914062,       24.7802734375,     -324.3408203125
1494295236.4071490765,       -0.6157226562,       -0.0366210938,       -0.0673828125,      -15.3198242188,       31.4331054688,     -335.4797363281
1494295236.4097108841,       -0.6953125000,        0.0156250000,       -0.0961914062,      -15.3198242188,       31.4331054688,     -335.4797363281
1494295236.4123210907,       -0.6953125000,        0.0156250000,       -0.0961914062,        0.6408691406,       36.6973876953,     -345.2301025391
1494295236.4148800373,       -0.6953125000,        0.0156250000,       -0.0961914062,        0.6408691406,       36.6973876953,     -345.2301025391
1494295236.4174420834,       -0.6953125000,        0.0156250000,       -0.0961914062,       14.8620605469,       39.5812988281,     -353.9276123047
1494295236.4200038910,       -0.7519531250,       -0.0019531250,       -0.1088867188,       14.8620605469,       39.5812988281,     -353.9276123047
1494295236.4227809906,       -0.7519531250,       -0.0019531250,       -0.1088867188,       25.7568359375,       40.3137207031,     -362.6098632812
1494295236.4253420830,       -0.7519531250,       -0.0019531250,       -0.1088867188,       25.7568359375,       40.3137207031,     -362.6098632812
1494295236.4279010296,       -0.7519531250,       -0.0019531250,       -0.1088867188,       25.7568359375,       39.0319824219,     -371.6430664062
1494295236.4304609299,       -0.8022460938,       -0.0395507812,       -0.0976562500,       30.3039550781,       39.0319824219,     -371.6430664062
1494295236.4332919121,       -0.8022460938,       -0.0395507812,       -0.0976562500,       30.3039550781,       37.3077392578,     -381.2255859375
1494295236.4359939098,       -0.8022460938,       -0.0395507812,       -0.0976562500,       29.0527343750,       37.3077392578,     -381.2255859375
1494295236.4386880398,       -0.8022460938,       -0.0395507812,       -0.0585937500,       29.0527343750,       37.3077392578,     -389.3890380859
1494295236.4413909912,       -0.8300781250,       -0.0307617188,       -0.0585937500,       26.3214111328,       35.3698730469,     -389.3890380859
1494295236.4440870285,       -0.8300781250,       -0.0307617188,       -0.0585937500,       26.3214111328,       31.4636230469,     -396.3775634766
1494295236.4467821121,       -0.8300781250,       -0.0307617188,       -0.0585937500,       25.2838134766,       34.8968505859,     -396.3775634766
1494295236.4494841099,       -0.9736328125,       -0.0380859375,       -0.0205078125,       25.2838134766,       38.8031005859,     -402.4810791016
1494295236.4521939754,       -0.9736328125,       -0.0380859375,       -0.0205078125,       24.1088867188,       35.5529785156,     -402.4810791016
1494295236.4548909664,       -0.9736328125,       -0.0380859375,       -0.0205078125,       24.1088867188,       31.6467285156,     -408.8745117188
1494295236.4575920105,       -0.9736328125,       -0.0380859375,       -0.0205078125,       20.2941894531,       34.6984863281,     -408.8745117188
1494295236.4602899551,       -1.1484375000,       -0.0283203125,       -0.0004882812,       20.2941894531,       34.6984863281,     -414.9322509766
1494295236.4628849030,       -1.1484375000,       -0.0283203125,       -0.0004882812,        9.8114013672,       31.7535400391,     -414.9322509766
1494295236.4654409885,       -1.1484375000,       -0.0283203125,       -0.0004882812,        9.8114013672,       31.7535400391,     -418.8385009766
1494295236.4679980278,       -1.1484375000,       -0.0283203125,       -0.0004882812,       -6.4544677734,       26.0162353516,     -421.8139648438
1494295236.4705519676,       -1.3652343750,        0.0629882812,        0.0166015625,       -6.4544677734,       26.0162353516,     -421.8139648438
1494295236.4732069969,       -1.3652343750,        0.0629882812,        0.0166015625,      -25.3295898438,       19.4702148438,     -428.9550781250
1494295236.4757640362,       -1.3652343750,        0.0629882812,        0.0166015625,      -25.3295898438,       19.4702148438,     -428.9550781250
1494295236.4783229828,       -1.3652343750,        0.0629882812,        0.0166015625,      -47.6379394531,       14.5721435547,     -433.6090087891
1494295236.4810729027,       -1.5639648438,        0.2133789062,        0.0625000000,      -47.6379394531,       14.5721435547,     -433.6090087891
1494295236.4837689400,       -1.5639648438,        0.2133789062,        0.0625000000,      -72.7081298828,        9.3383789062,     -434.4787597656
1494295236.4864690304,       -1.5639648438,        0.2133789062,        0.0625000000,      -72.7081298828,        9.3383789062,     -434.4787597656
1494295236.4893069267,       -1.5639648438,        0.4575195312,        0.1962890625,      -95.5657958984,        3.4332275391,     -431.1218261719
1494295236.4924170971,       -1.6801757812,        0.4575195312,        0.1962890625,      -95.5657958984,        3.4332275391,     -423.3093261719
1494295236.4951069355,       -1.6801757812,        0.4575195312,        0.1962890625,     -114.5019531250,       -2.3651123047,     -425.4608154297
1494295236.4978020191,       -1.6801757812,        0.4575195312,        0.1962890625,     -114.5019531250,       -2.3651123047,     -425.4608154297
1494295236.5004971027,       -1.8471679688,        0.7827148438,        0.2553710938,     -128.3111572266,       -5.9814453125,     -419.1284179688
1494295236.5031979084,       -1.8471679688,        0.7827148438,        0.2553710938,     -128.3111572266,       -5.9814453125,     -419.1284179688
1494295236.5058970451,       -1.8471679688,        0.7827148438,        0.2553710938,     -136.4135742188,       -5.4016113281,     -411.3311767578
1494295236.5085930824,       -1.8471679688,        0.7827148438,        0.2553710938,     -136.4135742188,       -5.4016113281,     -411.3311767578
1494295236.5112628937,       -1.9057617188,        0.9541015625,        0.2636718750,     -138.2141113281,       -0.8697509766,     -400.4669189453
1494295236.5138208866,       -1.9057617188,        0.9541015625,        0.2636718750,     -138.2141113281,       -0.8697509766,     -400.4669189453
1494295236.5163860321,       -1.9057617188,        0.9541015625,        0.2636718750,     -132.8735351562,        4.9743652344,     -387.1459960938
1494295236.5189449787,       -1.9057617188,        0.9541015625,        0.3886718750,     -132.8735351562,        4.9743652344,     -387.1459960938
1494295236.5215458870,       -1.8754882812,        1.1840820312,        0.3837890625,     -122.4212646484,       12.1459960938,     -371.1242675781
1494295236.5241050720,       -1.8754882812,        1.1840820312,        0.3837890625,     -122.4212646484,       12.1459960938,     -371.1242675781
1494295236.5266630650,       -1.8754882812,        1.1840820312,        0.3837890625,     -105.5908203125,       19.0887451172,     -353.1036376953
1494295236.5292229652,       -1.8754882812,        1.1840820312,        0.5361328125,     -105.5908203125,       19.0887451172,     -353.1036376953
1494295236.5317869186,       -1.8750000000,        1.5048828125,        0.5361328125,      -82.9467773438,       24.3377685547,     -333.2214355469
1494295236.5343480110,       -1.8750000000,        1.5048828125,        0.5361328125,      -82.9467773438,       24.3377685547,     -333.2214355469
1494295236.5369009972,       -1.8750000000,        1.5048828125,        0.5361328125,      -59.5092773438,       27.1453857422,     -311.9812011719
1494295236.5394549370,       -1.8750000000,        1.5048828125,        0.5844726562,      -59.4635009766,       27.1453857422,     -311.9812011719
1494295236.5420539379,       -1.7075195312,        1.5463867188,        0.5844726562,      -59.4635009766,       31.0516357422,     -289.9017333984
1494295236.5446140766,       -1.7075195312,        1.5463867188,        0.5844726562,      -43.1060791016,       28.5797119141,     -289.9017333984
1494295236.5471699238,       -1.7075195312,        1.5463867188,        0.5844726562,      -43.1060791016,       28.5797119141,     -268.1427001953
1494295236.5497250557,       -1.7075195312,        1.2963867188,        0.6040039062,      -39.8864746094,       27.3895263672,     -268.1427001953
1494295236.5525040627,       -1.5039062500,        1.3378906250,        0.6040039062,      -39.8864746094,       27.3895263672,     -245.3613281250
1494295236.5553259850,       -1.5039062500,        1.3378906250,        0.6040039062,      -54.1229248047,       23.4375000000,     -245.3613281250
1494295236.5580279827,       -1.5039062500,        1.3378906250,        0.6040039062,      -54.1229248047,       23.4375000000,     -222.9919433594
1494295236.5607368946,       -1.3300781250,        1.5253906250,        0.7285156250,      -83.3129882812,       17.0593261719,     -222.9919433594
1494295236.5632989407,       -1.3300781250,        1.5253906250,        0.7285156250,      -83.3129882812,       17.0593261719,     -199.5544433594
1494295236.5658559799,       -1.3300781250,        1.5253906250,        0.7285156250,     -115.4479980469,        9.3383789062,     -201.0345458984
1494295236.5684120655,       -1.3300781250,        1.5253906250,        0.7285156250,     -115.4479980469,        9.3383789062,     -201.0345458984
1494295236.5709979534,       -1.1274414062,        2.2690429688,        0.9311523438,     -134.9792480469,       -3.5858154297,     -179.3212890625
1494295236.5736939907,       -1.1274414062,        2.2690429688,        0.9311523438,     -134.9792480469,       -3.5858154297,     -179.3212890625
1494295236.5763909817,       -1.1274414062,        2.2690429688,        0.9311523438,     -123.8250732422,      -17.5476074219,     -151.5502929688
1494295236.5790860653,       -1.1274414062,        2.2690429688,        0.9311523438,     -123.8250732422,      -17.5476074219,     -151.5502929688
1494295236.5817909241,       -0.8603515625,        2.8144531250,        0.8754882812,      -86.0748291016,      -25.8789062500,     -113.8458251953
1494295236.5844900608,       -0.8603515625,        2.8144531250,        0.8754882812,      -86.0748291016,      -25.8789062500,     -113.8458251953
1494295236.5871899128,       -0.8603515625,        2.8144531250,        0.8754882812,      -43.9300537109,      -31.4941406250,      -65.4449462891
1494295236.5898880959,       -0.8603515625,        2.6894531250,        0.4829101562,      -43.9300537109,      -31.4941406250,      -65.4449462891
1494295236.5925920010,       -0.8374023438,        2.6694335938,        0.4829101562,      -18.2495117188,      -39.7338867188,      -15.5487060547
1494295236.5952920914,       -0.8374023438,        2.6694335938,        0.4829101562,      -18.2495117188,      -39.7338867188,      -15.5487060547
1494295236.5979869366,       -0.8374023438,        2.6694335938,        0.4829101562,       -5.1727294922,      -46.6613769531,       28.1524658203
1494295236.6006910801,       -0.9228515625,        2.2983398438,        0.4111328125,       -5.1727294922,      -46.6613769531,       28.1524658203
1494295236.6033849716,       -0.9228515625,        2.2983398438,        0.4111328125,        4.6234130859,      -47.1038818359,       67.7185058594
1494295236.6060779095,       -0.9228515625,        2.2983398438,        0.4111328125,        4.6234130859,      -47.1038818359,       67.7185058594
1494295236.6089019775,       -0.9228515625,        2.2983398438,        0.4111328125,        9.2468261719,      -45.5780029297,      106.3995361328
1494295236.6118218899,       -0.8828125000,        2.0253906250,        0.4487304688,        9.2468261719,      -45.5780029297,      106.3995361328
1494295236.6143798828,       -0.8828125000,        2.0253906250,        0.4487304688,        3.9367675781,      -46.5850830078,      141.9982910156
1494295236.6169340611,       -0.8828125000,        2.0253906250,        0.4487304688,        3.9367675781,      -46.5850830078,      141.9982910156
1494295236.6194899082,       -0.8828125000,        2.0253906250,        0.4487304688,      -11.8408203125,      -50.0183105469,      172.2564697266
1494295236.6221950054,       -0.9243164062,        1.7485351562,        0.3666992188,      -11.8408203125,      -50.0183105469,      172.2564697266
1494295236.6254000664,       -0.9243164062,        1.7485351562,        0.3666992188,      -34.1033935547,      -56.5338134766,      198.3947753906
1494295236.6280651093,       -0.9243164062,        1.7485351562,        0.3666992188,      -34.1033935547,      -56.5338134766,      198.3947753906
1494295236.6306281090,       -0.9243164062,        0.7182617188,        0.0234375000,      -60.1959228516,      -61.8743896484,      216.4611816406
1494295236.6332640648,       -1.1645507812,        0.7182617188,        0.0234375000,      -60.1959228516,      -61.8743896484,      216.4611816406
1494295236.6358120441,       -1.1645507812,        0.7182617188,        0.0234375000,      -78.9337158203,      -52.3071289062,      217.1783447266
1494295236.6383619308,       -1.1645507812,        0.7182617188,        0.0234375000,      -78.9337158203,      -52.3071289062,      217.1783447266
1494295236.6409630775,       -1.5395507812,       -1.4853515625,       -0.2822265625,     -117.2027587891,      -22.7508544922,      212.9516601562
1494295236.6435229778,       -1.5532226562,       -1.4853515625,       -0.2822265625,     -117.2027587891,      -22.7508544922,      212.9516601562
1494295236.6460769176,       -1.5532226562,       -1.4853515625,       -0.2822265625,     -245.8038330078,        3.7078857422,      194.1528320312
1494295236.6486198902,       -1.5532226562,       -1.4853515625,       -0.2822265625,     -245.8038330078,        3.7078857422,      194.1528320312
1494295236.6512019634,       -2.4980468750,       -5.0727539062,       -0.2226562500,     -257.5225830078,        3.6773681641,      146.6064453125
1494295236.6537530422,       -2.4980468750,       -5.0727539062,       -0.2226562500,     -256.8664550781,        3.6773681641,      146.6064453125
1494295236.6563029289,       -2.4980468750,       -5.0727539062,       -0.2226562500,     -256.8664550781,        3.6773681641,      118.4387207031
1494295236.6588590145,       -2.4980468750,       -5.0727539062,       -0.2226562500,      -50.8880615234,      -23.2086181641,      118.4387207031
1494295236.6614971161,       -3.4770507812,        1.3549804688,       -1.9956054688,      -50.8880615234,      -23.2086181641,      184.4177246094
1494295236.6640601158,       -3.4770507812,        1.3549804688,       -1.9956054688,     -126.4648437500,      -32.7758789062,      184.4177246094
1494295236.6666150093,       -3.4770507812,        1.3549804688,       -1.9956054688,     -126.4648437500,      -32.7758789062,      184.4177246094
1494295236.6691789627,       -3.4770507812,        1.3549804688,       -1.9956054688,     -362.0605468750,      -46.9055175781,      284.0423583984
1494295236.6719050407,       -1.1132812500,        5.3793945312,        1.2338867188,     -362.0605468750,      -46.9055175781,      284.0423583984
1494295236.6746029854,       -1.1132812500,        5.3793945312,        1.2338867188,     -451.7822265625,     -108.3374023438,      306.8084716797
1494295236.6772999763,       -1.1132812500,        5.3793945312,        1.2338867188,     -451.7822265625,     -108.3374023438,      306.8084716797
1494295236.6799960136,       -1.1132812500,        5.3793945312,        1.2338867188,     -249.6643066406,     -123.3978271484,      278.6254882812
1494295236.6826970577,       -0.2827148438,        2.2299804688,        0.0092773438,     -249.6643066406,     -123.3978271484,      278.6254882812
1494295236.6854040623,       -0.2827148438,        2.2299804688,        0.0092773438,       47.7447509766,     -106.2927246094,      233.7493896484
1494295236.6881070137,       -0.2827148438,        2.2299804688,        0.0092773438,       47.7447509766,     -106.2927246094,      233.7493896484
1494295236.6908040047,       -0.2827148438,        0.3549804688,       -0.2954101562,      211.7614746094,      -57.9528808594,      188.3087158203
1494295236.6935069561,       -0.5722656250,        0.2890625000,       -0.2954101562,      211.7614746094,      -57.9528808594,      188.3087158203
1494295236.6962099075,       -0.5722656250,        0.2890625000,       -0.2954101562,      211.0290527344,      -19.0582275391,      155.3344726562
1494295236.6989140511,       -0.5722656250,        0.2890625000,       -0.2954101562,      211.0290527344,      -19.0582275391,      155.3344726562
1494295236.7017130852,       -0.3090820312,        0.6958007812,        0.3442382812,      135.9252929688,      -16.5710449219,      141.4794921875
1494295236.7042739391,       -0.3090820312,        0.6958007812,        0.3442382812,      135.9252929688,      -16.5710449219,      141.4794921875
1494295236.7068340778,       -0.3090820312,        0.6958007812,        0.3442382812,       73.0743408203,      -40.5578613281,      141.7541503906
1494295236.7093949318,       -0.3090820312,        0.6958007812,        0.3442382812,       73.0743408203,      -40.5578613281,      141.7541503906
1494295236.7120490074,       -0.6621093750,        0.5849609375,        0.5322265625,       37.2314453125,      -65.6280517578,      140.8996582031
1494295236.7146179676,       -0.6621093750,        0.5849609375,        0.5322265625,       37.2314453125,      -65.6280517578,      140.8996582031
1494295236.7171730995,       -0.6621093750,        0.5849609375,        0.5322265625,       21.5301513672,      -77.6214599609,      133.7890625000
1494295236.7197310925,       -0.6621093750,        0.5849609375,        0.5322265625,       21.5301513672,      -77.6214599609,      133.7890625000
1494295236.7224249840,       -1.0122070312,        0.4272460938,        0.3437500000,       17.3492431641,      -75.7904052734,      125.2441406250
1494295236.7251250744,       -1.0122070312,        0.4272460938,        0.3437500000,       17.3492431641,      -75.7904052734,      125.2441406250
1494295236.7279319763,       -1.0122070312,        0.4272460938,        0.3437500000,       15.5029296875,      -65.7348632812,      119.5068359375
1494295236.7310340405,       -1.0122070312,        0.4272460938,        0.2807617188,       15.5029296875,      -65.7348632812,      119.5068359375
1494295236.7337419987,       -1.0361328125,        0.5009765625,        0.2807617188,       10.2844238281,      -57.3730468750,      114.2883300781
1494295236.7364439964,       -1.0361328125,        0.5009765625,        0.2807617188,       10.2844238281,      -57.3730468750,      114.2883300781
1494295236.7391369343,       -1.0361328125,        0.5009765625,        0.2807617188,        6.7749023438,      -53.4515380859,      108.6730957031
1494295236.7418429852,       -0.9111328125,        0.6401367188,        0.3291015625,        6.7749023438,      -53.4515380859,      108.6730957031
1494295236.7445330620,       -0.9404296875,        0.6401367188,        0.3291015625,       12.4511718750,      -50.3234863281,      104.1412353516
1494295236.7472300529,       -0.9404296875,        0.6401367188,        0.3291015625,       12.4511718750,      -50.3234863281,      104.1412353516
1494295236.7499279976,       -0.9404296875,        0.6401367188,        0.3291015625,       19.9127197266,      -44.4946289062,       98.9837646484
1494295236.7526340485,       -0.9409179688,        0.5073242188,        0.2290039062,       19.9127197266,      -44.4946289062,       98.9837646484
1494295236.7553389072,       -0.9409179688,        0.5073242188,        0.2290039062,       25.7568359375,      -35.8123779297,       89.9963378906
1494295236.7580440044,       -0.9409179688,        0.5073242188,        0.2290039062,       25.7568359375,      -35.8123779297,       89.9963378906
1494295236.7607500553,       -0.9409179688,        0.5073242188,        0.2290039062,       34.0576171875,      -26.6571044922,       79.9865722656
1494295236.7633099556,       -0.8623046875,        0.2558593750,        0.1738281250,       34.0576171875,      -26.6571044922,       79.9865722656
1494295236.7658638954,       -0.8623046875,        0.2558593750,        0.1738281250,       41.5496826172,      -21.3623046875,       72.9217529297
1494295236.7684209347,       -0.8623046875,        0.2558593750,        0.1738281250,       41.5496826172,      -21.3623046875,       72.9217529297
1494295236.7709960938,       -0.8623046875,        0.2558593750,        0.1738281250,       45.4559326172,      -18.1884765625,       68.4967041016
1494295236.7735550404,       -0.8383789062,        0.2812500000,        0.1933593750,       45.9747314453,      -18.1884765625,       68.4967041016
1494295236.7762238979,       -0.8383789062,        0.2812500000,        0.1933593750,       45.9747314453,      -14.2822265625,       63.3850097656
1494295236.7787899971,       -0.8383789062,        0.2812500000,        0.1933593750,       50.1098632812,      -14.3890380859,       63.3850097656
1494295236.7814788818,       -0.8383789062,        0.2812500000,        0.1005859375,       50.1098632812,      -14.3890380859,       56.8084716797
1494295236.7840430737,       -0.7924804688,        0.2968750000,        0.1005859375,       56.9152832031,      -11.1846923828,       56.8084716797
1494295236.7866048813,       -0.7924804688,        0.2968750000,        0.1005859375,       56.9152832031,      -11.1846923828,       48.9959716797
1494295236.7891631126,       -0.7924804688,        0.2968750000,        0.1005859375,       64.4683837891,       -8.5296630859,       49.0722656250
1494295236.7918920517,       -0.7924804688,        0.3051757812,        0.0673828125,       64.4683837891,       -8.5296630859,       41.2597656250
1494295236.7945868969,       -0.7314453125,        0.3051757812,        0.0673828125,       67.1234130859,       -6.6528320312,       40.9698486328
1494295236.7972800732,       -0.7314453125,        0.3051757812,        0.0673828125,       67.1234130859,       -6.6528320312,       33.1573486328
1494295236.7999839783,       -0.7314453125,        0.3051757812,        0.0673828125,       65.2313232422,      -10.1928710938,       34.9884033203
1494295236.8026869297,       -0.7456054688,        0.2216796875,        0.0390625000,       65.2313232422,      -10.1928710938,       34.9884033203
1494295236.8053839207,       -0.7456054688,        0.2216796875,        0.0390625000,       59.0515136719,      -14.5263671875,       31.8145751953
1494295236.8080749512,       -0.7456054688,        0.2216796875,        0.0390625000,       59.0515136719,      -14.5263671875,       31.8145751953
1494295236.8107800484,       -0.7456054688,        0.2216796875,        0.0390625000,       54.3975830078,      -15.7012939453,       29.3121337891
1494295236.8133409023,       -0.7792968750,       -0.0288085938,        0.0185546875,       54.3975830078,      -15.7012939453,       29.3121337891
1494295236.8158960342,       -0.7792968750,       -0.0288085938,        0.0185546875,       50.0030517578,      -16.2811279297,       26.5197753906
1494295236.8184509277,       -0.7792968750,       -0.0288085938,        0.0185546875,       50.0030517578,      -16.2811279297,       26.5197753906
1494295236.8210411072,       -0.7792968750,       -0.0288085938,        0.0185546875,       41.5802001953,      -17.5018310547,       24.0783691406
1494295236.8237390518,       -0.8037109375,       -0.1835937500,        0.0107421875,       41.5802001953,      -17.5018310547,       24.0783691406
1494295236.8264400959,       -0.8037109375,       -0.1835937500,        0.0107421875,       32.6843261719,      -18.0664062500,       22.8118896484
1494295236.8291399479,       -0.8037109375,       -0.1835937500,        0.0107421875,       32.6843261719,      -18.0664062500,       22.8118896484
1494295236.8318529129,       -0.8037109375,       -0.1835937500,        0.0405273438,       27.6031494141,      -17.3492431641,       21.1639404297
1494295236.8345589638,       -0.8237304688,       -0.1625976562,        0.0405273438,       27.6031494141,      -17.3492431641,       21.1639404297
1494295236.8372530937,       -0.8237304688,       -0.1625976562,        0.0405273438,       21.9879150391,      -17.1813964844,       20.0958251953
1494295236.8399438858,       -0.8237304688,       -0.1625976562,        0.0405273438,       21.9879150391,      -17.1813964844,       20.0958251953
1494295236.8426570892,       -0.8237304688,       -0.0913085938,        0.0385742188,       14.2059326172,      -17.2882080078,       20.8129882812
1494295236.8453500271,       -0.7890625000,       -0.0913085938,        0.0385742188,       14.2059326172,      -17.2882080078,       20.8129882812
1494295236.8482959270,       -0.7890625000,       -0.0913085938,        0.0385742188,       10.1013183594,      -18.2189941406,       21.7895507812
1494295236.8513879776,       -0.7890625000,       -0.0913085938,        0.0385742188,       10.1013183594,      -18.2189941406,       21.7895507812
1494295236.8540918827,       -0.7207031250,       -0.1079101562,        0.1416015625,       10.4980468750,      -17.9290771484,       22.1405029297
1494295236.8568000793,       -0.7207031250,       -0.1079101562,        0.1416015625,       10.4980468750,      -17.9290771484,       22.1405029297
1494295236.8595030308,       -0.7207031250,       -0.1079101562,        0.1416015625,       18.0664062500,      -15.9606933594,       22.1252441406
1494295236.8621480465,       -0.7207031250,       -0.1079101562,        0.2485351562,       18.0664062500,      -15.9606933594,       22.1252441406
1494295236.8647069931,       -0.6674804688,       -0.0419921875,        0.2485351562,       29.1137695312,      -14.9078369141,       22.7355957031
1494295236.8672709465,       -0.6674804688,       -0.0419921875,        0.2485351562,       29.1137695312,      -14.9078369141,       22.7355957031
