time_stamp before, Acceleration x, Acceleration y, Acceleration z, Gyro x, Gyro y, Gyro z
1494295275.4785459042,       -0.7407226562,        0.1005859375,        0.1469726562,       29.3273925781,      -14.8010253906,       37.4908447266
1494295275.4848899841,       -0.7407226562,        0.1005859375,        0.1469726562,       30.5786132812,      -12.5732421875,       37.4908447266
1494295275.4878180027,       -0.7407226562,        0.2158203125,        0.0805664062,       34.7595214844,      -13.3819580078,       40.9393310547
1494295275.4905209541,       -0.7978515625,        0.2158203125,        0.0805664062,       34.7595214844,      -13.3819580078,       40.9393310547
1494295275.4932200909,       -0.7978515625,        0.2158203125,        0.0805664062,       39.5355224609,      -14.5263671875,       43.5485839844
1494295275.4959089756,       -0.7978515625,        0.2158203125,        0.0805664062,       39.5355224609,      -14.5263671875,       43.5485839844
1494295275.4986009598,       -0.8681640625,        0.1552734375,        0.0361328125,       43.4417724609,      -13.5803222656,       45.6085205078
1494295275.5013349056,       -0.8681640625,        0.1552734375,        0.0361328125,       44.6014404297,      -13.5803222656,       45.6085205078
1494295275.5040280819,       -0.8681640625,        0.1552734375,        0.0361328125,       44.6014404297,      -10.8184814453,       48.0499267578
1494295275.5067288876,       -0.8681640625,        0.1552734375,        0.0361328125,       46.8292236328,      -10.8184814453,       48.0499267578
1494295275.5094189644,       -0.9135742188,        0.1152343750,       -0.0073242188,       46.8292236328,       -6.1492919922,       50.9033203125
1494295275.5121541023,       -0.9135742188,        0.1152343750,       -0.0073242188,       45.7611083984,       -6.1492919922,       50.9033203125
1494295275.5148429871,       -0.9135742188,        0.1152343750,       -0.0073242188,       41.8548583984,       -1.4495849609,       53.9855957031
1494295275.5175321102,       -0.9135742188,        0.1152343750,        0.0122070312,       42.4194335938,       -1.4495849609,       53.9855957031
1494295275.5202250481,       -0.8994140625,        0.0854492188,        0.0122070312,       42.4194335938,        1.8768310547,       56.6406250000
1494295275.5228390694,       -0.8994140625,        0.0854492188,        0.0122070312,       41.9158935547,        1.8768310547,       56.6406250000
1494295275.5253880024,       -0.8994140625,        0.0854492188,        0.0122070312,       41.9158935547,        5.7830810547,       59.7686767578
1494295275.5279390812,       -0.8994140625,        0.0854492188,        0.0292968750,       40.9698486328,        4.0740966797,       59.7686767578
1494295275.5304811001,       -0.8837890625,        0.0351562500,        0.0292968750,       40.9698486328,        4.0740966797,       64.8651123047
1494295275.5332100391,       -0.8837890625,        0.0351562500,        0.0292968750,       41.3208007812,        5.7983398438,       64.8651123047
1494295275.5357670784,       -0.8837890625,        0.0351562500,        0.0292968750,       41.3208007812,        5.7983398438,       68.7713623047
1494295275.5383269787,       -0.8837890625,       -0.0214843750,        0.0307617188,       38.0096435547,        6.9122314453,       69.6105957031
1494295275.5410559177,       -0.8623046875,       -0.0214843750,        0.0307617188,       38.0096435547,        6.9122314453,       69.6105957031
1494295275.5437469482,       -0.8623046875,       -0.0214843750,        0.0307617188,       31.5093994141,        7.1411132812,       75.1037597656
1494295275.5464489460,       -0.8623046875,       -0.0214843750,        0.0307617188,       31.5093994141,        7.1411132812,       75.1037597656
1494295275.5491499901,       -0.8920898438,       -0.0839843750,        0.0673828125,       27.4353027344,        7.0495605469,       81.5124511719
1494295275.5518560410,       -0.8920898438,       -0.0839843750,        0.0673828125,       27.4353027344,        7.0495605469,       81.5124511719
1494295275.5545570850,       -0.8920898438,       -0.0839843750,        0.0673828125,       23.3764648438,        6.7443847656,       87.9516601562
1494295275.5574109554,       -0.8920898438,       -0.0839843750,        0.0673828125,       23.3764648438,        6.7443847656,       87.9516601562
1494295275.5601089001,       -1.0532226562,       -0.0341796875,        0.0332031250,       18.7683105469,        6.8969726562,       93.4600830078
1494295275.5628209114,       -1.0532226562,       -0.0341796875,        0.0332031250,       18.7683105469,        6.8969726562,       93.4600830078
1494295275.5655150414,       -1.0532226562,       -0.0341796875,        0.0332031250,       15.0756835938,        7.3394775391,       99.3041992188
1494295275.5682160854,       -1.0532226562,        0.0908203125,        0.0380859375,       15.0756835938,        7.3394775391,       99.3041992188
1494295275.5709540844,       -1.1787109375,        0.0463867188,        0.0380859375,       14.9993896484,        7.5988769531,      104.3090820312
1494295275.5735108852,       -1.1787109375,        0.0463867188,        0.0380859375,       14.9993896484,        7.5988769531,      104.3090820312
1494295275.5760679245,       -1.1787109375,        0.0463867188,        0.0380859375,       18.7683105469,        7.7819824219,      109.5275878906
1494295275.5786259174,       -1.1787109375,        0.0317382812,        0.0200195312,       18.7683105469,        7.7819824219,      109.5275878906
1494295275.5812220573,       -1.2597656250,        0.0317382812,        0.0200195312,       24.6124267578,        8.0718994141,      114.3798828125
1494295275.5839250088,       -1.2597656250,        0.0317382812,        0.0200195312,       24.6124267578,        8.0718994141,      114.3798828125
1494295275.5866179466,       -1.2597656250,        0.0317382812,        0.0200195312,       28.5034179688,        7.7514648438,      118.9727783203
1494295275.5893089771,       -1.2836914062,       -0.0424804688,        0.0161132812,       28.5034179688,        7.7514648438,      118.9727783203
1494295275.5920209885,       -1.2836914062,       -0.0424804688,        0.0161132812,       29.9987792969,        6.4697265625,      124.4049072266
1494295275.5947151184,       -1.2836914062,       -0.0424804688,        0.0161132812,       29.9987792969,        6.4697265625,      124.4049072266
1494295275.5975220203,       -1.2836914062,       -0.0424804688,        0.0161132812,       32.3486328125,        5.0964355469,      129.9743652344
1494295275.6002199650,       -1.3242187500,       -0.1801757812,       -0.0244140625,       32.3486328125,        5.0964355469,      129.9743652344
1494295275.6029760838,       -1.3242187500,       -0.1801757812,       -0.0244140625,       32.8369140625,        5.3405761719,      136.2609863281
1494295275.6056768894,       -1.3242187500,       -0.1801757812,       -0.0244140625,       32.8369140625,        5.3405761719,      136.2609863281
1494295275.6083741188,       -1.3242187500,       -0.1801757812,       -0.0283203125,       32.5012207031,        5.5389404297,      143.1121826172
1494295275.6110720634,       -1.3559570312,       -0.2807617188,       -0.0283203125,       32.5012207031,        5.5389404297,      143.1121826172
1494295275.6137681007,       -1.3559570312,       -0.2807617188,       -0.0283203125,       30.6396484375,        5.8593750000,      150.0701904297
1494295275.6165471077,       -1.3559570312,       -0.2807617188,       -0.0283203125,       30.6396484375,        5.8593750000,      150.0701904297
1494295275.6199309826,       -1.3437500000,       -0.3461914062,       -0.0087890625,       29.0679931641,        5.7067871094,      156.9061279297
1494295275.6225490570,       -1.3437500000,       -0.3461914062,       -0.0087890625,       29.0679931641,        5.7067871094,      156.9061279297
1494295275.6251111031,       -1.3437500000,       -0.3461914062,       -0.0087890625,       28.8391113281,        5.3558349609,      162.4450683594
1494295275.6276659966,       -1.3437500000,       -0.3461914062,       -0.0087890625,       28.8391113281,        5.3558349609,      162.4450683594
1494295275.6303360462,       -1.3476562500,       -0.3310546875,        0.0424804688,       29.9987792969,        5.2947998047,      167.9992675781
1494295275.6329040527,       -1.3476562500,       -0.3310546875,        0.0424804688,       29.9987792969,        5.2947998047,      167.9992675781
1494295275.6354610920,       -1.3476562500,       -0.3310546875,        0.0424804688,       35.3088378906,        4.0283203125,      173.0346679688
1494295275.6380169392,       -1.3476562500,       -0.3310546875,        0.0424804688,       35.3088378906,        4.0283203125,      173.0346679688
1494295275.6405780315,       -1.3554687500,       -0.4067382812,        0.1196289062,       43.5333251953,        3.0212402344,      177.6123046875
1494295275.6432778835,       -1.3554687500,       -0.4067382812,        0.1196289062,       43.5333251953,        3.0212402344,      177.6123046875
1494295275.6459798813,       -1.3554687500,       -0.4067382812,        0.1196289062,       56.0302734375,        1.8768310547,      181.3201904297
1494295275.6486709118,       -1.3554687500,       -0.4067382812,        0.2055664062,       56.0302734375,        1.8768310547,      181.3201904297
1494295275.6513509750,       -1.3837890625,       -0.5727539062,        0.2055664062,       66.0705566406,        0.1831054688,      184.2041015625
1494295275.6539130211,       -1.3837890625,       -0.5727539062,        0.2055664062,       66.0705566406,        0.1831054688,      184.2041015625
1494295275.6564691067,       -1.3837890625,       -0.5727539062,        0.2055664062,       77.7893066406,       -0.6256103516,      187.1337890625
1494295275.6590290070,       -1.3837890625,       -0.8227539062,        0.3051757812,       74.7375488281,       -0.6256103516,      187.1337890625
1494295275.6617391109,       -1.4184570312,       -0.7866210938,        0.3051757812,       74.7375488281,       -2.2735595703,      188.8885498047
1494295275.6642920971,       -1.4184570312,       -0.7866210938,        0.3051757812,       86.8988037109,       -2.2735595703,      188.8885498047
1494295275.6668550968,       -1.4184570312,       -0.7866210938,        0.3051757812,       86.8988037109,       -2.2735595703,      188.8427734375
1494295275.6694090366,       -1.4184570312,       -0.7832031250,        0.3974609375,      102.3254394531,       -4.9133300781,      188.8427734375
1494295275.6720581055,       -1.5249023438,       -0.7832031250,        0.3974609375,      102.3254394531,       -4.9133300781,      187.6678466797
1494295275.6746160984,       -1.5249023438,       -0.7832031250,        0.3974609375,      120.9411621094,       -6.7901611328,      187.6678466797
1494295275.6771750450,       -1.5249023438,       -0.7832031250,        0.3974609375,      120.9411621094,       -6.7901611328,      187.6678466797
1494295275.6797270775,       -1.7749023438,       -0.6333007812,        0.3676757812,      145.0805664062,       -7.1716308594,      187.8662109375
1494295275.6824231148,       -1.8378906250,       -0.6333007812,        0.3676757812,      145.0805664062,       -7.1716308594,      187.8662109375
1494295275.6851251125,       -1.8378906250,       -0.6333007812,        0.3676757812,      168.8232421875,       -3.4179687500,      192.0928955078
1494295275.6878221035,       -1.8378906250,       -0.6333007812,        0.3676757812,      168.8232421875,       -3.4179687500,      192.0928955078
1494295275.6905150414,       -2.0551757812,       -0.3671875000,        0.2949218750,      179.6264648438,        0.5340576172,      206.6345214844
1494295275.6932148933,       -2.0551757812,       -0.3671875000,        0.2949218750,      179.6264648438,        0.5340576172,      206.6345214844
1494295275.6959071159,       -2.0551757812,       -0.3671875000,        0.2949218750,      167.9687500000,        2.9296875000,      231.2316894531
1494295275.6985960007,       -2.0551757812,       -0.3671875000,        0.2949218750,      167.9687500000,        2.9296875000,      231.2316894531
1494295275.7012629509,       -1.9521484375,       -0.5371093750,        0.4062500000,      125.5798339844,        1.1901855469,      253.4637451172
1494295275.7039361000,       -1.9521484375,       -0.5371093750,        0.4062500000,      125.5798339844,        1.1901855469,      253.4637451172
1494295275.7064900398,       -1.9521484375,       -0.5371093750,        0.4062500000,       68.1610107422,        0.2593994141,      261.9323730469
1494295275.7090559006,       -1.9521484375,       -0.5371093750,        0.4062500000,       68.1610107422,        0.2593994141,      261.9323730469
1494295275.7117578983,       -1.8491210938,       -0.7519531250,        0.3828125000,       26.7333984375,        2.1057128906,      254.6234130859
1494295275.7143180370,       -1.8491210938,       -0.7519531250,        0.3828125000,       26.7333984375,        2.1057128906,      254.6234130859
1494295275.7168779373,       -1.8491210938,       -0.7519531250,        0.3828125000,       11.9018554688,        5.2642822266,      238.6932373047
1494295275.7194299698,       -1.8491210938,       -0.7519531250,        0.3325195312,       11.9018554688,        5.2642822266,      238.6932373047
1494295275.7221219540,       -1.6298828125,       -0.4121093750,        0.3325195312,       12.8326416016,       12.3748779297,      222.5646972656
1494295275.7246899605,       -1.6298828125,       -0.4121093750,        0.3325195312,       12.8326416016,       12.3748779297,      222.5646972656
1494295275.7273330688,       -1.6298828125,       -0.4121093750,        0.3325195312,       21.5759277344,       23.7274169922,      210.4949951172
1494295275.7298970222,       -1.6298828125,       -0.4770507812,        0.0468750000,       21.5759277344,       23.7274169922,      210.4949951172
1494295275.7325980663,       -1.4047851562,       -0.4770507812,        0.0468750000,       17.6696777344,       32.6538085938,      204.6966552734
1494295275.7352979183,       -1.4047851562,       -0.4770507812,        0.0468750000,       16.2963867188,       32.6538085938,      204.6966552734
1494295275.7379989624,       -1.4047851562,       -0.4770507812,        0.0468750000,      -14.9536132812,       31.7840576172,      202.3773193359
1494295275.7407119274,       -1.0083007812,       -0.3798828125,        0.1723632812,      -14.0686035156,       31.7840576172,      202.3773193359
1494295275.7434089184,       -1.0083007812,       -0.3798828125,        0.1723632812,      -57.0373535156,       16.5100097656,      196.3958740234
1494295275.7461140156,       -1.0083007812,       -0.3798828125,        0.1723632812,      -54.8095703125,       16.5100097656,      196.3958740234
1494295275.7488191128,       -1.0083007812,       -0.3798828125,        0.1723632812,      -89.9658203125,       -6.1035156250,      181.7474365234
1494295275.7515640259,       -0.7260742188,       -0.2856445312,        0.3222656250,      -92.4377441406,       -6.1035156250,      181.7474365234
1494295275.7542569637,       -0.7260742188,       -0.2856445312,        0.3222656250,     -127.5939941406,      -29.1748046875,      154.8004150391
1494295275.7569520473,       -0.7260742188,       -0.2856445312,        0.3222656250,     -126.0833740234,      -29.1748046875,      154.8004150391
1494295275.7596540451,       -0.7260742188,       -0.2856445312,        0.0747070312,     -126.0833740234,      -38.2232666016,      116.4093017578
1494295275.7622890472,       -0.5244140625,       -0.1083984375,        0.0747070312,     -120.6512451172,      -38.2232666016,      116.4093017578
1494295275.7648539543,       -0.5244140625,       -0.1083984375,        0.0747070312,     -120.6512451172,      -38.2232666016,       78.3386230469
1494295275.7674200535,       -0.5244140625,       -0.1083984375,        0.0747070312,      -82.1990966797,      -31.1431884766,       78.3386230469
1494295275.7699849606,       -0.5244140625,        0.3916015625,        0.2246093750,      -82.1990966797,      -31.1431884766,       53.9093017578
1494295275.7726590633,       -0.6064453125,        0.4619140625,        0.2246093750,      -62.7899169922,      -35.9802246094,       53.9093017578
1494295275.7752230167,       -0.6064453125,        0.4619140625,        0.2246093750,      -62.7899169922,      -35.9802246094,       53.9093017578
1494295275.7778921127,       -0.6064453125,        0.4619140625,        0.2246093750,      -59.0057373047,      -50.6896972656,       41.1071777344
1494295275.7804551125,       -0.6064453125,       -0.0947265625,        0.0996093750,      -59.0057373047,      -50.6896972656,       21.5759277344
1494295275.7832860947,       -0.5253906250,       -0.0947265625,        0.0996093750,      -41.8243408203,      -44.4030761719,       21.4385986328
1494295275.7859869003,       -0.5253906250,       -0.0947265625,        0.0996093750,      -41.8243408203,      -44.4030761719,       21.4385986328
1494295275.7886869907,       -0.5253906250,       -0.0947265625,        0.0996093750,       -8.9569091797,      -19.0734863281,      -11.1541748047
1494295275.7913959026,       -0.4233398438,       -0.7783203125,       -0.1474609375,       -8.9569091797,      -19.0734863281,      -11.1541748047
1494295275.7940890789,       -0.4233398438,       -0.7783203125,       -0.1474609375,       17.2882080078,       -0.2593994141,      -46.8597412109
1494295275.7967860699,       -0.4233398438,       -0.7783203125,       -0.1474609375,       17.2882080078,       -0.2593994141,      -46.8597412109
1494295275.7994780540,       -0.4233398438,       -0.7783203125,       -0.1474609375,       25.1770019531,        4.2266845703,      -75.3326416016
1494295275.8021810055,       -0.2221679688,       -0.8422851562,       -0.0795898438,       25.1770019531,        4.2266845703,      -75.3326416016
1494295275.8048779964,       -0.2221679688,       -0.8422851562,       -0.0795898438,       19.7906494141,        5.5541992188,      -97.0916748047
1494295275.8075768948,       -0.2221679688,       -0.8422851562,       -0.0795898438,       19.7906494141,        5.5541992188,      -97.0916748047
1494295275.8102738857,       -0.2221679688,       -0.8422851562,       -0.1337890625,        4.5318603516,        8.4228515625,     -118.3471679688
1494295275.8128590584,       -0.1855468750,       -0.7631835938,       -0.1337890625,        4.5318603516,        8.4228515625,     -118.3471679688
1494295275.8154089451,       -0.1855468750,       -0.7631835938,       -0.1337890625,      -21.2860107422,        8.5144042969,     -139.6026611328
1494295275.8179590702,       -0.1855468750,       -0.7631835938,       -0.1337890625,      -21.2860107422,        8.5144042969,     -139.6026611328
1494295275.8205130100,       -0.1855468750,       -0.5131835938,       -0.0371093750,      -50.8270263672,        4.5623779297,     -159.3475341797
1494295275.8231990337,       -0.1801757812,       -0.5253906250,       -0.0371093750,      -50.8270263672,        4.5623779297,     -159.3475341797
1494295275.8257560730,       -0.1801757812,       -0.5253906250,       -0.0371093750,      -72.2808837891,        0.3509521484,     -176.1932373047
1494295275.8283190727,       -0.1801757812,       -0.5253906250,       -0.0371093750,      -72.2808837891,        0.3509521484,     -176.1932373047
1494295275.8310790062,       -0.1801757812,       -0.3632812500,        0.1074218750,      -81.8939208984,       -2.5939941406,     -192.8863525391
1494295275.8337419033,       -0.2363281250,       -0.3632812500,        0.1074218750,      -81.8939208984,       -2.5939941406,     -192.8863525391
1494295275.8364489079,       -0.2363281250,       -0.3632812500,        0.1074218750,      -82.8247070312,       -3.3721923828,     -209.8388671875
1494295275.8391070366,       -0.2363281250,       -0.3632812500,        0.1074218750,      -82.8247070312,       -3.3721923828,     -209.8388671875
1494295275.8419790268,       -0.3515625000,       -0.2109375000,        0.0747070312,      -80.1086425781,       -1.2969970703,     -225.3265380859
1494295275.8446800709,       -0.3515625000,       -0.2109375000,        0.0747070312,      -80.1086425781,       -1.2969970703,     -225.3265380859
1494295275.8473689556,       -0.3515625000,       -0.2109375000,        0.0747070312,      -75.1495361328,        2.4719238281,     -238.6016845703
1494295275.8501780033,       -0.3515625000,       -0.2109375000,        0.0747070312,      -75.1495361328,        2.4719238281,     -238.6016845703
1494295275.8528881073,       -0.4414062500,       -0.0620117188,        0.0190429688,      -65.7653808594,        5.4931640625,     -251.8615722656
1494295275.8555860519,       -0.4414062500,       -0.0620117188,        0.0190429688,      -65.7653808594,        5.4931640625,     -251.8615722656
1494295275.8582870960,       -0.4414062500,       -0.0620117188,        0.0190429688,      -53.9398193359,        7.4157714844,     -264.2059326172
1494295275.8609859943,       -0.4414062500,        0.0092773438,       -0.0415039062,      -53.9398193359,        7.4157714844,     -264.2059326172
1494295275.8635458946,       -0.5058593750,        0.0092773438,       -0.0415039062,      -42.6940917969,        9.8876953125,     -277.0538330078
1494295275.8661050797,       -0.5058593750,        0.0092773438,       -0.0415039062,      -42.6940917969,        9.8876953125,     -277.0538330078
1494295275.8686621189,       -0.5058593750,        0.0092773438,       -0.0415039062,      -34.8815917969,       12.7410888672,     -289.5965576172
1494295275.8712370396,       -0.5058593750,       -0.0102539062,       -0.1118164062,      -32.8063964844,       12.7410888672,     -289.5965576172
1494295275.8737978935,       -0.5781250000,       -0.0102539062,       -0.1118164062,      -32.8063964844,       16.6473388672,     -301.0559082031
1494295275.8763558865,       -0.5781250000,       -0.0102539062,       -0.1118164062,      -22.8576660156,       17.1813964844,     -301.0559082031
1494295275.8789229393,       -0.5781250000,       -0.0102539062,       -0.1118164062,      -22.8576660156,       17.1813964844,     -310.7299804688
1494295275.8815488815,       -0.6298828125,       -0.0634765625,       -0.1381835938,      -13.3819580078,       21.8048095703,     -310.7299804688
1494295275.8841080666,       -0.6298828125,       -0.0634765625,       -0.1381835938,      -13.3819580078,       21.8048095703,     -310.7299804688
1494295275.8866748810,       -0.6298828125,       -0.0634765625,       -0.1381835938,       -5.2337646484,       26.1993408203,     -319.7479248047
1494295275.8892309666,       -0.6298828125,       -0.0634765625,       -0.1381835938,       -5.2337646484,       26.1993408203,     -319.7479248047
1494295275.8919200897,       -0.7163085938,       -0.0468750000,       -0.1630859375,        1.2969970703,       30.3802490234,     -327.9266357422
1494295275.8944799900,       -0.7163085938,       -0.0468750000,       -0.1630859375,        1.2969970703,       30.3802490234,     -327.9266357422
1494295275.8970389366,       -0.7163085938,       -0.0468750000,       -0.1630859375,        8.7585449219,       33.6456298828,     -335.3424072266
1494295275.8996000290,       -0.7163085938,       -0.0468750000,       -0.1630859375,        8.7585449219,       33.6456298828,     -335.3424072266
1494295275.9023590088,       -0.7973632812,        0.0273437500,       -0.1855468750,       15.2435302734,       36.0870361328,     -342.1478271484
1494295275.9050579071,       -0.7973632812,        0.0273437500,       -0.1855468750,       15.2435302734,       36.0870361328,     -342.1478271484
1494295275.9077589512,       -0.7973632812,        0.0273437500,       -0.1855468750,       17.8222656250,       37.1093750000,     -349.4873046875
1494295275.9104540348,       -0.7973632812,        0.0273437500,       -0.1855468750,       17.8222656250,       37.1093750000,     -349.4873046875
1494295275.9130439758,       -0.8334960938,        0.0400390625,       -0.1840820312,       14.9993896484,       36.1480712891,     -356.6436767578
1494295275.9156010151,       -0.8334960938,        0.0400390625,       -0.1840820312,       14.9993896484,       36.1480712891,     -356.6436767578
1494295275.9181609154,       -0.8334960938,        0.0400390625,       -0.1840820312,       10.2233886719,       34.6984863281,     -363.8916015625
1494295275.9207050800,       -0.8334960938,        0.0400390625,       -0.1840820312,       10.2233886719,       34.6984863281,     -363.8916015625
1494295275.9235179424,       -0.9218750000,        0.0048828125,       -0.1635742188,        4.0283203125,       33.2641601562,     -370.7275390625
1494295275.9262120724,       -0.9218750000,        0.0048828125,       -0.1635742188,        4.0283203125,       33.2641601562,     -370.7275390625
1494295275.9289159775,       -0.9218750000,        0.0048828125,       -0.1635742188,       -3.2958984375,       32.6080322266,     -377.2430419922
1494295275.9315888882,       -0.9218750000,       -0.0102539062,       -0.1357421875,       -3.2958984375,       32.6080322266,     -377.2430419922
1494295275.9341530800,       -1.1025390625,       -0.0102539062,       -0.1357421875,      -12.7258300781,       32.7301025391,     -383.3007812500
1494295275.9367120266,       -1.1025390625,       -0.0102539062,       -0.1357421875,      -12.7258300781,       32.7301025391,     -383.3007812500
1494295275.9392719269,       -1.1025390625,       -0.0102539062,       -0.1357421875,      -12.7258300781,       33.8134765625,     -388.2446289062
1494295275.9419679642,       -1.3525390625,       -0.0024414062,       -0.0864257812,      -24.8565673828,       33.8134765625,     -388.2446289062
1494295275.9446649551,       -1.2929687500,       -0.0024414062,       -0.0864257812,      -24.8565673828,       33.2031250000,     -392.9290771484
1494295275.9473619461,       -1.2929687500,       -0.0024414062,       -0.0864257812,      -37.7502441406,       33.2031250000,     -392.9290771484
1494295275.9500560760,       -1.2929687500,       -0.0024414062,       -0.0864257812,      -37.7502441406,       29.2968750000,     -397.8424072266
1494295275.9526650906,       -1.4775390625,        0.0512695312,       -0.0458984375,      -49.9877929688,       31.2194824219,     -397.8424072266
1494295275.9552290440,       -1.4775390625,        0.0512695312,       -0.0458984375,      -49.9877929688,       31.2194824219,     -402.5268554688
1494295275.9580280781,       -1.4775390625,        0.0512695312,       -0.0458984375,      -63.0493164062,       27.7404785156,     -402.5268554688
1494295275.9605898857,       -1.4775390625,        0.0512695312,       -0.0458984375,      -63.0493164062,       25.1770019531,     -405.8380126953
1494295275.9636180401,       -1.6196289062,        0.0991210938,       -0.0336914062,      -76.4007568359,       25.1770019531,     -405.8380126953
1494295275.9663178921,       -1.6196289062,        0.0991210938,       -0.0336914062,      -76.4007568359,       25.1770019531,     -406.3720703125
1494295275.9690248966,       -1.6196289062,        0.0991210938,       -0.0336914062,      -88.9282226562,       23.5748291016,     -406.3720703125
1494295275.9717690945,       -1.6196289062,        0.2241210938,        0.0180664062,      -88.9282226562,       19.6685791016,     -404.0832519531
1494295275.9744720459,       -1.7353515625,        0.1962890625,        0.0180664062,     -101.2268066406,       23.0712890625,     -404.0832519531
1494295275.9771780968,       -1.7353515625,        0.1962890625,        0.0180664062,     -101.2268066406,       26.9775390625,     -398.7579345703
1494295275.9798760414,       -1.7353515625,        0.1962890625,        0.0180664062,     -112.4420166016,       23.7579345703,     -398.7579345703
1494295275.9825849533,       -1.8681640625,        0.4511718750,        0.1328125000,     -112.4420166016,       23.7579345703,     -390.8538818359
1494295275.9852859974,       -1.8681640625,        0.4511718750,        0.1328125000,     -119.8272705078,       26.7486572266,     -390.8538818359
1494295275.9879879951,       -1.8681640625,        0.4511718750,        0.1328125000,     -119.8272705078,       34.5611572266,     -380.4779052734
1494295275.9907019138,       -1.8681640625,        0.4511718750,        0.1328125000,     -121.7346191406,       32.6995849609,     -380.4779052734
1494295275.9932649136,       -1.8808593750,        0.7431640625,        0.2500000000,     -121.7346191406,       32.6995849609,     -367.9199218750
1494295275.9958240986,       -1.8808593750,        0.7431640625,        0.2500000000,     -116.9433593750,       40.6646728516,     -367.9199218750
1494295275.9985051155,       -1.8808593750,        0.7431640625,        0.2500000000,     -116.9433593750,       40.6646728516,     -352.2949218750
1494295276.0010659695,       -1.8808593750,        0.7431640625,        0.2500000000,     -107.9254150391,       48.1109619141,     -353.3935546875
1494295276.0036261082,       -1.8383789062,        0.8393554688,        0.2895507812,     -107.9254150391,       48.1109619141,     -353.3935546875
1494295276.0061879158,       -1.8383789062,        0.8393554688,        0.2895507812,     -101.0284423828,       52.7191162109,     -338.5162353516
1494295276.0087409019,       -1.8383789062,        0.8393554688,        0.2895507812,     -101.0284423828,       52.7191162109,     -338.5162353516
1494295276.0114660263,       -1.8383789062,        0.8393554688,        0.2895507812,      -96.1608886719,       55.0994873047,     -323.5168457031
1494295276.0140230656,       -1.8032226562,        0.7895507812,        0.3032226562,      -96.1608886719,       55.0994873047,     -323.5168457031
1494295276.0165839195,       -1.8032226562,        0.7895507812,        0.3032226562,      -93.7042236328,       55.9082031250,     -309.4024658203
1494295276.0191469193,       -1.8032226562,        0.7895507812,        0.3032226562,      -93.7042236328,       55.9082031250,     -309.4024658203
1494295276.0218920708,       -1.8032226562,        0.7895507812,        0.3427734375,      -95.1385498047,       54.3975830078,     -294.9371337891
1494295276.0245950222,       -1.6870117188,        0.7954101562,        0.3427734375,      -95.1385498047,       54.3975830078,     -294.9371337891
1494295276.0273010731,       -1.6870117188,        0.7954101562,        0.3427734375,     -102.1423339844,       48.6297607422,     -279.9530029297
1494295276.0299980640,       -1.6870117188,        0.7954101562,        0.3427734375,     -102.1423339844,       48.6297607422,     -279.9530029297
1494295276.0327010155,       -1.4370117188,        1.1254882812,        0.5288085938,     -113.5101318359,       38.7878417969,     -264.4653320312
1494295276.0353970528,       -1.4433593750,        1.1254882812,        0.5288085938,     -113.5101318359,       38.7878417969,     -264.4653320312
1494295276.0380868912,       -1.4433593750,        1.1254882812,        0.5288085938,     -123.2147216797,       26.2603759766,     -248.8098144531
1494295276.0407960415,       -1.4433593750,        1.1254882812,        0.5288085938,     -123.2147216797,       26.2603759766,     -248.8098144531
1494295276.0434920788,       -1.2617187500,        1.6269531250,        0.6831054688,     -125.0610351562,       15.2893066406,     -231.2774658203
1494295276.0461831093,       -1.2617187500,        1.6269531250,        0.6831054688,     -125.0610351562,       15.2893066406,     -231.2774658203
1494295276.0488870144,       -1.2617187500,        1.6269531250,        0.6831054688,     -115.5700683594,        8.3618164062,     -210.0372314453
1494295276.0515511036,       -1.2617187500,        1.6269531250,        0.6831054688,     -115.5700683594,        8.3618164062,     -210.0372314453
1494295276.0541050434,       -1.1079101562,        1.9965820312,        0.7280273438,      -93.2159423828,        3.9062500000,     -183.0749511719
1494295276.0566570759,       -1.1079101562,        1.9965820312,        0.7280273438,      -93.2159423828,        3.9062500000,     -183.0749511719
1494295276.0592100620,       -1.1079101562,        1.9965820312,        0.7280273438,      -61.9659423828,       -0.6866455078,     -150.7415771484
1494295276.0618319511,       -1.1079101562,        1.9965820312,        0.7280273438,      -59.1430664062,       -0.6866455078,     -150.7415771484
1494295276.0645110607,       -0.9355468750,        2.0903320312,        0.6191406250,      -16.1743164062,       -5.4931640625,     -114.3951416016
1494295276.0671849251,       -0.9355468750,        2.0903320312,        0.6191406250,      -19.4702148438,       -5.4931640625,     -114.3951416016
1494295276.0699899197,       -0.9355468750,        2.0903320312,        0.6191406250,       11.7797851562,       -8.7890625000,      -73.7915039062
1494295276.0726840496,       -0.9355468750,        2.0170898438,        0.5249023438,       15.1062011719,       -8.7890625000,      -73.7915039062
1494295276.0753641129,       -0.8896484375,        2.0170898438,        0.5249023438,       38.5437011719,       -9.9792480469,      -32.7301025391
1494295276.0783379078,       -0.8896484375,        2.0170898438,        0.5249023438,       38.0859375000,       -9.9792480469,      -32.7301025391
1494295276.0814208984,       -0.8896484375,        2.0170898438,        0.5249023438,       47.8057861328,      -10.5438232422,        5.5847167969
1494295276.0841050148,       -0.8618164062,        1.8969726562,        0.5278320312,       47.8057861328,      -10.5438232422,        5.5847167969
1494295276.0867860317,       -0.8618164062,        1.8969726562,        0.5278320312,       47.6074218750,      -13.3819580078,       40.9698486328
1494295276.0894699097,       -0.8618164062,        1.8969726562,        0.5278320312,       47.6074218750,      -13.3819580078,       40.9698486328
1494295276.0921599865,       -0.8618164062,        1.8969726562,        0.5278320312,       39.3676757812,      -17.5018310547,       73.7152099609
1494295276.0948429108,       -0.8232421875,        1.6606445312,        0.5380859375,       39.3676757812,      -17.5018310547,       73.7152099609
1494295276.0975279808,       -0.8232421875,        1.6606445312,        0.5380859375,       25.8178710938,      -23.4985351562,      105.0567626953
1494295276.1002089977,       -0.8232421875,        1.6606445312,        0.5380859375,       25.8178710938,      -23.4985351562,      105.0567626953
1494295276.1029009819,       -0.8232421875,        1.4106445312,        0.4975585938,        8.7585449219,      -31.0363769531,      134.4757080078
1494295276.1054561138,       -0.8408203125,        1.4296875000,        0.4975585938,        8.7585449219,      -31.0363769531,      134.4757080078
1494295276.1080079079,       -0.8408203125,        1.4296875000,        0.4975585938,        8.7585449219,      -39.4439697266,      159.4696044922
1494295276.1105680466,       -0.8408203125,        1.4296875000,        0.4975585938,       -6.5155029297,      -39.4439697266,      159.4696044922
1494295276.1131310463,       -0.8408203125,        1.3725585938,        0.4262695312,       -6.5155029297,      -39.4439697266,      180.4199218750
1494295276.1156799793,       -0.8881835938,        1.3725585938,        0.4262695312,      -18.4478759766,      -46.9818115234,      180.4199218750
1494295276.1182420254,       -0.8881835938,        1.3725585938,        0.4262695312,      -18.4478759766,      -46.9818115234,      196.0449218750
1494295276.1207940578,       -0.8881835938,        1.3725585938,        0.4262695312,      -24.9481201172,      -52.2460937500,      198.3032226562
1494295276.1233539581,       -0.8881835938,        1.3374023438,        0.3691406250,      -24.9481201172,      -52.2460937500,      198.3032226562
1494295276.1259140968,       -0.9389648438,        1.3374023438,        0.3691406250,      -26.9165039062,      -56.0607910156,      212.6312255859
1494295276.1284720898,       -0.9389648438,        1.3374023438,        0.3691406250,      -26.9165039062,      -56.0607910156,      212.6312255859
1494295276.1311399937,       -0.9389648438,        1.3374023438,        0.3691406250,      -27.3895263672,      -57.5103759766,      222.4578857422
1494295276.1337170601,       -1.0634765625,        0.4106445312,        0.1816406250,      -27.3895263672,      -57.5103759766,      222.4578857422
1494295276.1362779140,       -1.0634765625,        0.4106445312,        0.1816406250,      -36.9873046875,      -54.2755126953,      219.0551757812
1494295276.1388339996,       -1.0634765625,        0.4106445312,        0.1816406250,      -36.9873046875,      -54.2755126953,      219.0551757812
1494295276.1415159702,       -1.0634765625,        0.4106445312,        0.1816406250,      -50.3845214844,      -32.1350097656,      190.8874511719
1494295276.1443269253,       -1.2749023438,       -2.0849609375,       -0.5678710938,      -50.3845214844,      -32.1350097656,      190.8874511719
1494295276.1470370293,       -1.2749023438,       -2.0849609375,       -0.5678710938,      -67.9473876953,       13.1530761719,      146.4385986328
1494295276.1497418880,       -1.2749023438,       -2.0849609375,       -0.5678710938,      -67.9473876953,       13.1530761719,      146.4385986328
1494295276.1523709297,       -1.2749023438,       -2.0849609375,       -0.5678710938,     -113.1591796875,       42.2363281250,       96.4965820312
1494295276.1549289227,       -1.4980468750,       -4.5576171875,       -0.0444335938,     -113.1591796875,       42.2363281250,       96.4965820312
1494295276.1574859619,       -1.4980468750,       -4.5576171875,       -0.0444335938,      -73.0133056641,       21.4691162109,       56.3812255859
1494295276.1600511074,       -1.4980468750,       -4.5576171875,       -0.0444335938,      -73.0133056641,       21.4691162109,       56.3812255859
1494295276.1627719402,       -1.4980468750,       -4.5576171875,       -1.4194335938,      -19.3176269531,      -16.5557861328,       77.9724121094
1494295276.1654660702,       -2.5312500000,       -0.1943359375,       -1.4394531250,      -19.3176269531,      -16.5557861328,       77.9724121094
1494295276.1681671143,       -2.5312500000,       -0.1943359375,       -1.4394531250,     -145.9503173828,      -23.8189697266,      170.7916259766
1494295276.1709098816,       -2.5312500000,       -0.1943359375,       -1.4394531250,     -145.9503173828,      -23.8189697266,      170.7916259766
1494295276.1734769344,       -2.5312500000,        3.9306640625,        0.7402343750,     -310.0128173828,      -70.9991455078,      253.4942626953
1494295276.1760311127,       -1.7753906250,        3.9609375000,        0.7402343750,     -312.1643066406,      -70.9991455078,      253.4942626953
1494295276.1785891056,       -1.7753906250,        3.9609375000,        0.7402343750,     -312.1643066406,     -110.0616455078,      268.1121826172
1494295276.1812160015,       -1.7753906250,        3.9609375000,        0.7402343750,     -354.6600341797,     -110.7482910156,      268.1121826172
1494295276.1839210987,       -0.7753906250,        2.7851562500,        0.7626953125,     -354.6600341797,     -114.6545410156,      245.7275390625
1494295276.1866199970,       -0.8720703125,        2.7851562500,        0.7626953125,     -218.0786132812,     -114.2883300781,      245.7275390625
1494295276.1893210411,       -0.8720703125,        2.7851562500,        0.7626953125,     -218.0786132812,     -114.2883300781,      214.2486572266
1494295276.1919639111,       -0.8720703125,        2.7851562500,        0.7626953125,      -18.2037353516,      -93.2006835938,      214.2486572266
1494295276.1945281029,       -0.8134765625,        0.3081054688,       -0.5161132812,      -18.2037353516,      -93.2006835938,      171.2799072266
1494295276.1971380711,       -0.8134765625,        0.3081054688,       -0.5161132812,      118.1488037109,      -56.0302734375,      171.0510253906
1494295276.1997210979,       -0.8134765625,        0.3081054688,       -0.5161132812,      118.1488037109,      -56.0302734375,      136.9171142578
1494295276.2026419640,       -0.8134765625,        0.3081054688,       -0.5161132812,      137.8326416016,      -30.7922363281,      136.9171142578
1494295276.2053511143,       -0.4980468750,        0.5087890625,       -0.0688476562,      137.8326416016,      -30.7922363281,      126.3580322266
1494295276.2080600262,       -0.4980468750,        0.5087890625,       -0.0688476562,       88.7298583984,      -25.9552001953,      126.3580322266
1494295276.2107720375,       -0.4980468750,        0.5087890625,       -0.0688476562,       88.7298583984,      -25.9552001953,      126.3580322266
1494295276.2134730816,       -0.4980468750,        0.5087890625,        0.4345703125,       38.0554199219,      -37.4450683594,      126.5411376953
1494295276.2161750793,       -0.4980468750,        0.3920898438,        0.4345703125,       38.0554199219,      -37.4450683594,      122.6348876953
1494295276.2189838886,       -0.4980468750,        0.3920898438,        0.4345703125,        5.4626464844,      -51.4526367188,      122.9400634766
1494295276.2216930389,       -0.4980468750,        0.3920898438,        0.4345703125,        5.4626464844,      -51.4526367188,      115.1580810547
1494295276.2243869305,       -0.7480468750,        0.2866210938,        0.5253906250,       -8.8348388672,      -61.3555908203,      115.1580810547
1494295276.2270860672,       -0.7192382812,        0.2866210938,        0.5253906250,       -8.8348388672,      -61.3555908203,      111.2518310547
1494295276.2297890186,       -0.7192382812,        0.2866210938,        0.5253906250,      -10.4522705078,      -64.0411376953,      110.1074218750
1494295276.2323980331,       -0.7192382812,        0.2866210938,        0.5253906250,      -10.4522705078,      -64.0411376953,      110.1074218750
1494295276.2349541187,       -0.8520507812,        0.3891601562,        0.3457031250,       -6.7443847656,      -60.2111816406,      108.4442138672
1494295276.2375130653,       -0.8520507812,        0.3891601562,        0.3457031250,       -6.7443847656,      -60.2111816406,      108.4442138672
1494295276.2400689125,       -0.8520507812,        0.3891601562,        0.3457031250,        2.0141601562,      -54.5501708984,      106.8267822266
1494295276.2426810265,       -0.8520507812,        0.3891601562,        0.3457031250,        2.0141601562,      -54.5501708984,      106.8267822266
1494295276.2452399731,       -0.8559570312,        0.5585937500,        0.3750000000,       16.6931152344,      -54.4738769531,      106.0028076172
1494295276.2477970123,       -0.8559570312,        0.5585937500,        0.3750000000,       16.6931152344,      -54.4738769531,      106.0028076172
1494295276.2503631115,       -0.8559570312,        0.5585937500,        0.3750000000,       34.2407226562,      -58.8073730469,      107.6202392578
1494295276.2530529499,       -0.8559570312,        0.5585937500,        0.3750000000,       34.2407226562,      -58.8073730469,      107.6202392578
1494295276.2556130886,       -1.0971679688,        0.6791992188,        0.1826171875,       54.4433593750,      -57.1594238281,      106.5368652344
1494295276.2581820488,       -1.0971679688,        0.6791992188,        0.1826171875,       54.4433593750,      -57.1594238281,      106.5368652344
1494295276.2608149052,       -1.0971679688,        0.6791992188,        0.1826171875,       72.2198486328,      -44.2962646484,       99.1516113281
1494295276.2635309696,       -1.0971679688,        0.6791992188,        0.1826171875,       72.2198486328,      -44.2962646484,       99.1516113281
1494295276.2662289143,       -1.0375976562,        0.4218750000,        0.0908203125,       82.9772949219,      -28.1829833984,       85.9832763672
1494295276.2689299583,       -1.0375976562,        0.4218750000,        0.0908203125,       82.9772949219,      -28.1829833984,       85.9832763672
1494295276.2716460228,       -1.0375976562,        0.4218750000,        0.0908203125,       89.4165039062,      -18.6309814453,       73.2574462891
1494295276.2743461132,       -1.0375976562,        0.1718750000,        0.1655273438,       89.4165039062,      -18.6309814453,       73.2574462891
1494295276.2770481110,       -0.7568359375,        0.2109375000,        0.1655273438,       87.7685546875,      -16.2353515625,       65.4754638672
1494295276.2797520161,       -0.7568359375,        0.2109375000,        0.1655273438,       87.7685546875,      -16.2353515625,       65.4754638672
1494295276.2824609280,       -0.7568359375,        0.2109375000,        0.1655273438,       73.6541748047,      -16.4794921875,       58.2733154297
1494295276.2851641178,       -0.7211914062,        0.1718750000,        0.0595703125,       73.6541748047,      -16.4794921875,       58.2733154297
1494295276.2878670692,       -0.7211914062,        0.1718750000,        0.0595703125,       56.2286376953,      -17.0135498047,       50.3540039062
1494295276.2906870842,       -0.7211914062,        0.1718750000,        0.0595703125,       56.2286376953,      -17.0135498047,       50.3540039062
1494295276.2932550907,       -0.7211914062,        0.1718750000,        0.0595703125,       44.5098876953,      -18.1884765625,       43.8385009766
1494295276.2958159447,       -0.7065429688,        0.1279296875,        0.0209960938,       44.3878173828,      -18.1884765625,       43.8385009766
1494295276.2983760834,       -0.7065429688,        0.1279296875,        0.0209960938,       44.3878173828,      -22.0947265625,       40.5578613281
1494295276.3010149002,       -0.7065429688,        0.1279296875,        0.0209960938,       42.4499511719,      -19.7448730469,       40.5578613281
1494295276.3037021160,       -0.7065429688,        0.1279296875,        0.0209960938,       42.4499511719,      -15.8386230469,       38.4063720703
1494295276.3063979149,       -0.7700195312,        0.1860351562,        0.0068359375,       45.9289550781,      -19.5312500000,       38.4063720703
1494295276.3090910912,       -0.7700195312,        0.1860351562,        0.0068359375,       45.9289550781,      -19.5312500000,       35.2478027344
1494295276.3117930889,       -0.7700195312,        0.1860351562,        0.0068359375,       48.1719970703,      -17.9138183594,       35.2478027344
1494295276.3144838810,       -0.7700195312,        0.1860351562,        0.0087890625,       48.1719970703,      -17.9138183594,       32.3944091797
1494295276.3173470497,       -0.7797851562,        0.2128906250,        0.0087890625,       48.6907958984,      -16.6473388672,       32.3944091797
1494295276.3200330734,       -0.7797851562,        0.2128906250,        0.0087890625,       48.6907958984,      -17.8070068359,       30.2276611328
1494295276.3231749535,       -0.7797851562,        0.2128906250,        0.0087890625,       49.8046875000,      -17.8070068359,       30.2276611328
1494295276.3258759975,       -0.7807617188,        0.0932617188,        0.0205078125,       49.8046875000,      -20.2941894531,       28.7933349609
1494295276.3285830021,       -0.7807617188,        0.0932617188,        0.0205078125,       50.5828857422,      -20.2941894531,       28.7933349609
1494295276.3312890530,       -0.7807617188,        0.0932617188,        0.0205078125,       54.4891357422,      -21.4691162109,       27.7252197266
1494295276.3339900970,       -0.7807617188,        0.0932617188,        0.0205078125,       51.2542724609,      -21.4691162109,       27.7252197266
1494295276.3366971016,       -0.8271484375,       -0.0649414062,        0.0244140625,       51.2542724609,      -18.0816650391,       26.1230468750
1494295276.3394010067,       -0.8271484375,       -0.0649414062,        0.0244140625,       52.6733398438,      -18.0816650391,       26.1230468750
1494295276.3421509266,       -0.8271484375,       -0.0649414062,        0.0244140625,       52.6733398438,      -13.6566162109,       25.1770019531
1494295276.3448519707,       -0.8271484375,       -0.0649414062,        0.1196289062,       53.3599853516,      -13.6566162109,       25.1770019531
1494295276.3475470543,       -0.7822265625,       -0.0756835938,        0.1196289062,       49.4537353516,      -10.3149414062,       25.5126953125
1494295276.3502550125,       -0.7822265625,       -0.0756835938,        0.1196289062,       50.7354736328,      -10.3149414062,       25.5126953125
1494295276.3528521061,       -0.7822265625,       -0.0756835938,        0.1196289062,       50.7354736328,      -10.3149414062,       26.3977050781
1494295276.3554120064,       -0.6572265625,       -0.0654296875,        0.2163085938,       46.2799072266,       -9.9487304688,       26.3977050781
1494295276.3579781055,       -0.7241210938,       -0.0654296875,        0.2163085938,       46.2799072266,       -9.9487304688,       26.3214111328
1494295276.3605339527,       -0.7241210938,       -0.0654296875,        0.2163085938,       43.9147949219,       -9.8419189453,       26.3214111328
1494295276.3631100655,       -0.7241210938,       -0.0654296875,        0.2163085938,       43.9147949219,       -9.8419189453,       26.3214111328
1494295276.3657720089,       -0.6835937500,       -0.0546875000,        0.2460937500,       46.0510253906,       -8.9874267578,       25.8026123047
1494295276.3683300018,       -0.6835937500,       -0.0546875000,        0.2460937500,       46.0510253906,       -8.9874267578,       25.8026123047
1494295276.3710699081,       -0.6835937500,       -0.0546875000,        0.2460937500,       49.4842529297,       -7.4462890625,       26.3061523438
1494295276.3736269474,       -0.6835937500,       -0.0546875000,        0.2460937500,       49.4842529297,       -7.4462890625,       26.3061523438
1494295276.3761808872,       -0.6762695312,       -0.0371093750,        0.2143554688,       50.7659912109,       -7.1105957031,       27.6184082031
1494295276.3787429333,       -0.6762695312,       -0.0371093750,        0.2143554688,       50.7659912109,       -7.1105957031,       27.6184082031
1494295276.3814659119,       -0.6762695312,       -0.0371093750,        0.2143554688,       48.3245849609,       -8.5144042969,       30.4107666016
1494295276.3841700554,       -0.6762695312,       -0.0371093750,        0.2143554688,       48.3245849609,       -8.5144042969,       30.4107666016
1494295276.3868699074,       -0.6914062500,       -0.0971679688,        0.1708984375,       43.5333251953,      -11.1541748047,       32.8063964844
1494295276.3895680904,       -0.6914062500,       -0.0971679688,        0.1708984375,       43.5333251953,      -11.1541748047,       32.8063964844
1494295276.3922080994,       -0.6914062500,       -0.0971679688,        0.1708984375,       37.6434326172,      -12.6037597656,       35.1104736328
1494295276.3947670460,       -0.6914062500,       -0.0971679688,        0.0458984375,       37.6434326172,      -12.6037597656,       35.1104736328
1494295276.3973250389,       -0.7055664062,       -0.0869140625,        0.1215820312,       32.0129394531,      -12.0849609375,       37.6434326172
1494295276.3998920918,       -0.7055664062,       -0.0869140625,        0.1215820312,       32.0129394531,      -12.0849609375,       37.6434326172
1494295276.4025900364,       -0.7055664062,       -0.0869140625,        0.1215820312,       27.3590087891,      -11.5966796875,       40.5426025391
1494295276.4052920341,       -0.7055664062,        0.0380859375,        0.0839843750,       27.3590087891,      -11.5966796875,       40.5426025391
1494295276.4079930782,       -0.7392578125,        0.0786132812,        0.0839843750,       25.7263183594,      -12.5274658203,       42.8771972656
1494295276.4106988907,       -0.7392578125,        0.0786132812,        0.0839843750,       25.7263183594,      -12.5274658203,       42.8771972656
1494295276.4134008884,       -0.7392578125,        0.0786132812,        0.0839843750,       28.4423828125,      -13.8397216797,       44.9676513672
1494295276.4160990715,       -0.7832031250,        0.1684570312,        0.0952148438,       28.4423828125,      -13.8397216797,       44.9676513672
1494295276.4187960625,       -0.7832031250,        0.1684570312,        0.0952148438,       34.5153808594,      -15.3350830078,       47.0428466797
1494295276.4215450287,       -0.7832031250,        0.1684570312,        0.0952148438,       34.5153808594,      -15.3350830078,       47.0428466797
1494295276.4242401123,       -0.7832031250,        0.1684570312,        0.0952148438,       41.4886474609,      -15.8233642578,       49.6978759766
1494295276.4269440174,       -0.8354492188,        0.1337890625,        0.0571289062,       41.4886474609,      -15.8233642578,       49.6978759766
1494295276.4296379089,       -0.8354492188,        0.1337890625,        0.0571289062,       47.4853515625,      -15.7623291016,       52.1697998047
1494295276.4323658943,       -0.8354492188,        0.1337890625,        0.0571289062,       47.4853515625,      -15.7623291016,       52.1697998047
1494295276.4350700378,       -0.8354492188,        0.1337890625,        0.0571289062,       52.0324707031,      -16.1285400391,       54.7637939453
1494295276.4378650188,       -0.8339843750,        0.0917968750,        0.0439453125,       52.0324707031,      -16.1285400391,       54.7637939453
1494295276.4410591125,       -0.8339843750,        0.0917968750,        0.0439453125,       54.7332763672,      -16.6931152344,       57.6477050781
1494295276.4436249733,       -0.8339843750,        0.0917968750,        0.0439453125,       54.7332763672,      -16.6931152344,       57.6477050781
1494295276.4461870193,       -0.8339843750,        0.0288085938,        0.0166015625,       56.5032958984,      -16.7236328125,       60.5316162109
1494295276.4487440586,       -0.8276367188,        0.0288085938,        0.0166015625,       56.5032958984,      -16.7236328125,       60.5316162109
1494295276.4513781071,       -0.8276367188,        0.0288085938,        0.0166015625,       55.8471679688,      -16.7083740234,       64.1479492188
1494295276.4540770054,       -0.8276367188,        0.0288085938,        0.0166015625,       55.8471679688,      -16.7083740234,       64.1479492188
1494295276.4567790031,       -0.8632812500,       -0.0346679688,       -0.0722656250,       52.2003173828,      -15.0604248047,       69.0917968750
1494295276.4594779015,       -0.8632812500,       -0.0346679688,       -0.0722656250,       52.2003173828,      -15.0604248047,       69.0917968750
1494295276.4621961117,       -0.8632812500,       -0.0346679688,       -0.0722656250,       44.2047119141,      -12.6342773438,       73.6083984375
1494295276.4648959637,       -0.8632812500,       -0.0346679688,       -0.0722656250,       44.2047119141,      -12.6342773438,       73.6083984375
1494295276.4675960541,       -0.9252929688,       -0.0864257812,       -0.1166992188,       35.2325439453,      -10.1013183594,       77.2857666016
1494295276.4703030586,       -0.9252929688,       -0.0864257812,       -0.1166992188,       35.2325439453,      -10.1013183594,       77.2857666016
1494295276.4728980064,       -0.9252929688,       -0.0864257812,       -0.1166992188,       23.5137939453,       -7.8735351562,       81.3751220703
1494295276.4754550457,       -0.9252929688,       -0.0864257812,       -0.1166992188,       26.2756347656,       -7.8735351562,       81.3751220703
1494295276.4780230522,       -0.9658203125,       -0.0649414062,       -0.1196289062,       26.2756347656,       -3.9672851562,       86.6699218750
1494295276.4805810452,       -0.9658203125,       -0.0649414062,       -0.1196289062,       18.5699462891,       -6.0729980469,       86.6699218750
1494295276.4831480980,       -0.9658203125,       -0.0649414062,       -0.1196289062,       18.5699462891,       -6.0729980469,       91.7053222656
1494295276.4857010841,       -0.9658203125,       -0.0649414062,       -0.0449218750,       14.2822265625,       -6.2103271484,       91.7053222656
1494295276.4882550240,       -0.9555664062,       -0.0639648438,       -0.0449218750,       14.2822265625,       -6.2103271484,       91.7053222656
1494295276.4909529686,       -0.9555664062,       -0.0639648438,       -0.0449218750,       13.0157470703,       -6.1492919922,       97.2442626953
1494295276.4935250282,       -0.9555664062,       -0.0639648438,       -0.0449218750,       13.0157470703,       -6.1492919922,       97.2442626953
1494295276.4960870743,       -0.9555664062,       -0.0639648438,       -0.0200195312,       13.4735107422,       -4.6691894531,      103.1951904297
1494295276.4986500740,       -0.9921875000,       -0.0537109375,       -0.0200195312,       13.4735107422,       -4.6691894531,      103.1951904297
1494295276.5013260841,       -0.9921875000,       -0.0537109375,       -0.0200195312,       15.1977539062,       -3.9215087891,      109.4055175781
1494295276.5040340424,       -0.9921875000,       -0.0537109375,       -0.0200195312,       15.1977539062,       -3.9215087891,      109.4055175781
1494295276.5067260265,       -1.1171875000,       -0.1132812500,        0.0234375000,       17.9443359375,       -3.7231445312,      116.1804199219
1494295276.5094211102,       -1.0625000000,       -0.1132812500,        0.0234375000,       17.9443359375,       -3.7231445312,      116.1804199219
1494295276.5122900009,       -1.0625000000,       -0.1132812500,        0.0234375000,       19.7906494141,       -2.3651123047,      122.7111816406
1494295276.5149919987,       -1.0625000000,       -0.1132812500,        0.0234375000,       19.7906494141,       -2.3651123047,      122.7111816406
1494295276.5176858902,       -1.1538085938,       -0.1684570312,        0.0551757812,       19.5159912109,       -0.7781982422,      129.9896240234
1494295276.5203878880,       -1.1538085938,       -0.1684570312,        0.0551757812,       19.5159912109,       -0.7781982422,      129.9896240234
1494295276.5230879784,       -1.1538085938,       -0.1684570312,        0.0551757812,       16.8457031250,       -0.5035400391,      137.1002197266
1494295276.5257880688,       -1.1538085938,       -0.1684570312,        0.0551757812,       16.8457031250,       -0.5035400391,      137.1002197266
1494295276.5284891129,       -1.2377929688,       -0.2119140625,        0.0263671875,       14.1296386719,       -0.0610351562,      143.4936523438
1494295276.5311789513,       -1.2377929688,       -0.2119140625,        0.0263671875,       14.1296386719,       -0.0610351562,      143.4936523438
1494295276.5337378979,       -1.2377929688,       -0.2119140625,        0.0263671875,       14.7247314453,        1.2817382812,      150.4058837891
1494295276.5362949371,       -1.2377929688,       -0.2119140625,        0.0283203125,       14.7247314453,        1.2817382812,      150.4058837891
1494295276.5388529301,       -1.2607421875,       -0.2578125000,        0.0283203125,       15.5029296875,        2.1667480469,      156.7077636719
1494295276.5415349007,       -1.2607421875,       -0.2578125000,        0.0283203125,       15.5029296875,        2.1667480469,      156.7077636719
1494295276.5440919399,       -1.2607421875,       -0.2578125000,        0.0283203125,       14.1448974609,        2.1972656250,      163.4826660156
1494295276.5466520786,       -1.2607421875,       -0.2539062500,       -0.0312500000,       14.1448974609,        2.1972656250,      163.4826660156
1494295276.5492069721,       -1.2377929688,       -0.2539062500,       -0.0312500000,       12.9089355469,        2.3651123047,      170.2270507812
1494295276.5519080162,       -1.2377929688,       -0.2539062500,       -0.0312500000,       12.9089355469,        2.3651123047,      170.2270507812
1494295276.5545699596,       -1.2377929688,       -0.2539062500,       -0.0312500000,       12.9089355469,        2.3193359375,      177.6275634766
1494295276.5574829578,       -1.2646484375,       -0.3505859375,        0.0141601562,       12.7563476562,        2.3193359375,      177.6275634766
1494295276.5605518818,       -1.2646484375,       -0.3505859375,        0.0141601562,       18.1732177734,        2.8228759766,      184.0972900391
1494295276.5632650852,       -1.2646484375,       -0.3505859375,        0.0141601562,       18.1732177734,        2.8228759766,      184.0972900391
1494295276.5659649372,       -1.2646484375,       -0.3505859375,        0.0141601562,       24.1241455078,        2.6550292969,      191.3604736328
1494295276.5686700344,       -1.3266601562,       -0.3452148438,        0.1391601562,       24.1241455078,        2.6550292969,      191.3604736328
1494295276.5713729858,       -1.3266601562,       -0.3452148438,        0.1391601562,       27.8167724609,        0.9460449219,      199.0661621094
1494295276.5740709305,       -1.3266601562,       -0.3452148438,        0.1391601562,       27.8167724609,        0.9460449219,      199.0661621094
1494295276.5767729282,       -1.3266601562,       -0.4702148438,        0.2158203125,       39.7491455078,       -1.0223388672,      205.6427001953
1494295276.5794689655,       -1.4013671875,       -0.3881835938,        0.2158203125,       39.7491455078,       -1.0223388672,      205.6427001953
1494295276.5821790695,       -1.4013671875,       -0.3881835938,        0.2158203125,       58.0749511719,       -3.0670166016,      210.4644775391
1494295276.5848679543,       -1.4013671875,       -0.3881835938,        0.2158203125,       58.0749511719,       -3.0670166016,      210.4644775391
1494295276.5876739025,       -1.4409179688,       -0.4282226562,        0.3129882812,       80.3527832031,       -5.9967041016,      213.7756347656
1494295276.5903820992,       -1.4409179688,       -0.4282226562,        0.3129882812,       80.3527832031,       -5.9967041016,      213.7756347656
1494295276.5929539204,       -1.4409179688,       -0.4282226562,        0.3129882812,      109.0393066406,       -9.9182128906,      215.6829833984
1494295276.5955059528,       -1.4409179688,       -0.4282226562,        0.3129882812,      109.0393066406,       -9.9182128906,      215.6829833984
1494295276.5980720520,       -1.6186523438,       -0.4628906250,        0.3286132812,      144.1955566406,      -13.9160156250,      215.9423828125
1494295276.6007950306,       -1.6186523438,       -0.4628906250,        0.3286132812,      141.6320800781,      -13.9160156250,      215.9423828125
1494295276.6033589840,       -1.6186523438,       -0.4628906250,        0.3286132812,      141.6320800781,      -14.9536132812,      214.5385742188
1494295276.6059150696,       -1.6186523438,       -0.4628906250,        0.3286132812,      178.5278320312,      -14.9536132812,      214.5385742188
1494295276.6084721088,       -2.1303710938,       -0.8251953125,        0.2182617188,      178.5278320312,      -14.9536132812,      211.0748291016
1494295276.6112248898,       -2.1303710938,       -0.8251953125,        0.2182617188,      223.4039306641,       -9.2620849609,      211.0748291016
1494295276.6139230728,       -2.1303710938,       -0.8251953125,        0.2182617188,      223.4039306641,        2.4566650391,      205.8563232422
1494295276.6166069508,       -2.1303710938,       -0.8251953125,        0.0932617188,      264.0380859375,        2.4261474609,      205.8563232422
1494295276.6192970276,       -2.3334960938,       -1.2646484375,        0.0820312500,      264.0380859375,        2.4261474609,      204.9713134766
1494295276.6219899654,       -2.3334960938,       -1.2646484375,        0.0820312500,      282.6995849609,       15.8386230469,      204.9713134766
1494295276.6253149509,       -2.3334960938,       -1.2646484375,        0.0820312500,      274.8870849609,       30.4565429688,      216.5527343750
1494295276.6278719902,       -2.0351562500,       -0.9106445312,       -0.0200195312,      274.6276855469,       30.4565429688,      216.5527343750
1494295276.6304249763,       -2.0351562500,       -0.9106445312,       -0.0200195312,      274.6276855469,       42.2973632812,      241.1499023438
1494295276.6330649853,       -2.0351562500,       -0.9106445312,       -0.0200195312,      214.2639160156,       42.2973632812,      241.1499023438
1494295276.6356201172,       -2.0351562500,       -0.9106445312,       -0.0200195312,      214.2639160156,       42.2973632812,      266.2811279297
1494295276.6381781101,       -1.9199218750,       -0.7075195312,        0.3779296875,      109.6038818359,       47.9278564453,      266.2811279297
1494295276.6407039165,       -1.9199218750,       -0.7075195312,        0.3779296875,      109.6038818359,       47.9278564453,      274.0936279297
1494295276.6432650089,       -1.9199218750,       -0.7075195312,        0.3779296875,       17.6544189453,       42.7398681641,      276.0162353516
1494295276.6458189487,       -1.9199218750,       -0.7075195312,        0.3779296875,       17.6544189453,       42.7398681641,      276.0162353516
1494295276.6483740807,       -1.8413085938,       -0.8286132812,        0.4921875000,      -29.0527343750,       34.8510742188,      265.6250000000
1494295276.6509950161,       -1.8413085938,       -0.8286132812,        0.4921875000,      -29.0527343750,       34.8510742188,      265.6250000000
1494295276.6535489559,       -1.8413085938,       -0.8286132812,        0.4921875000,      -38.8641357422,       33.7829589844,      246.5820312500
1494295276.6561040878,       -1.8413085938,       -0.8286132812,        0.4921875000,      -38.8641357422,       33.7829589844,      246.5820312500
1494295276.6586620808,       -1.5610351562,       -0.8081054688,        0.3500976562,      -43.0297851562,       36.2854003906,      229.7058105469
1494295276.6614320278,       -1.5610351562,       -0.8081054688,        0.3500976562,      -43.0297851562,       36.2854003906,      229.7058105469
1494295276.6640911102,       -1.5610351562,       -0.8081054688,        0.3500976562,      -66.1773681641,       37.5671386719,      220.2148437500
1494295276.6668310165,       -1.5610351562,       -0.8081054688,        0.3500976562,      -66.1773681641,       37.5671386719,      220.2148437500
1494295276.6695261002,       -1.0161132812,       -0.5527343750,        0.3442382812,      -98.4497070312,       33.5693359375,      215.2709960938
1494295276.6726388931,       -1.0161132812,       -0.5527343750,        0.3442382812,      -98.4497070312,       33.5693359375,      215.2709960938
1494295276.6753389835,       -1.0161132812,       -0.5527343750,        0.3442382812,     -126.0223388672,       20.6451416016,      206.4819335938
1494295276.6780331135,       -0.6411132812,       -0.0888671875,        0.2001953125,     -126.0223388672,       20.6451416016,      206.4819335938
1494295276.6807410717,       -0.6420898438,       -0.0888671875,        0.2001953125,     -139.8925781250,        1.8310546875,      190.5364990234
1494295276.6832990646,       -0.6420898438,       -0.0888671875,        0.2001953125,     -139.8925781250,        1.8310546875,      190.5364990234
1494295276.6858570576,       -0.6420898438,       -0.0888671875,        0.2001953125,     -149.1241455078,      -16.6168212891,      165.3594970703
1494295276.6884179115,       -0.5390625000,        0.2548828125,        0.2153320312,     -149.1241455078,      -16.6168212891,      165.3594970703
1494295276.6910009384,       -0.5390625000,        0.2548828125,        0.2153320312,     -151.1535644531,      -31.6772460938,      131.3781738281
1494295276.6937010288,       -0.5390625000,        0.2548828125,        0.2153320312,     -151.1535644531,      -31.6772460938,      131.3781738281
1494295276.6964039803,       -0.5390625000,        0.2548828125,        0.2153320312,     -129.4860839844,      -32.9742431641,       93.4295654297
1494295276.6991040707,       -0.6181640625,        0.6743164062,        0.0971679688,     -129.4860839844,      -32.9742431641,       93.4295654297
1494295276.7017691135,       -0.6181640625,        0.6743164062,        0.0971679688,      -96.9696044922,      -28.0151367188,       60.3332519531
1494295276.7043290138,       -0.6181640625,        0.6743164062,        0.0971679688,      -96.9696044922,      -28.0151367188,       60.3332519531
1494295276.7068889141,       -0.6181640625,        0.6743164062,        0.0971679688,      -81.3446044922,      -34.0881347656,       35.8581542969
1494295276.7094509602,       -0.5097656250,        0.4487304688,        0.5268554688,      -81.5734863281,      -34.0881347656,       35.8581542969
1494295276.7120130062,       -0.5097656250,        0.4487304688,        0.5268554688,      -81.5734863281,      -45.8068847656,       13.5650634766
1494295276.7145760059,       -0.5097656250,        0.4487304688,        0.5268554688,      -75.5615234375,      -45.3643798828,       13.5650634766
1494295276.7171280384,       -0.5097656250,        0.4487304688,        0.5268554688,      -75.5615234375,      -45.3643798828,      -13.9770507812
1494295276.7196900845,       -0.3242187500,       -0.2700195312,        0.2343750000,      -55.8776855469,      -43.4722900391,      -13.9770507812
1494295276.7224090099,       -0.3242187500,       -0.2700195312,        0.2343750000,      -55.8776855469,      -43.4722900391,      -45.2270507812
1494295276.7249650955,       -0.3242187500,       -0.2700195312,        0.2343750000,      -20.5535888672,      -25.9552001953,      -43.9453125000
1494295276.7275218964,       -0.3242187500,       -0.2700195312,        0.2343750000,      -20.5535888672,      -25.9552001953,      -43.9453125000
1494295276.7300860882,       -0.2304687500,       -0.9130859375,        0.0854492188,       18.9208984375,       -5.1879882812,      -74.2950439453
1494295276.7328920364,       -0.2304687500,       -0.9130859375,        0.0854492188,       18.9208984375,       -5.1879882812,      -74.2950439453
1494295276.7354528904,       -0.2304687500,       -0.9130859375,        0.0854492188,       49.5605468750,       11.5203857422,     -104.2633056641
1494295276.7380120754,       -0.2304687500,       -0.9130859375,        0.0375976562,       49.5605468750,       11.5203857422,     -104.2633056641
1494295276.7405769825,       -0.0786132812,       -0.9887695312,        0.0375976562,       64.3005371094,       18.3105468750,     -128.7841796875
1494295276.7432830334,       -0.0786132812,       -0.9887695312,        0.0375976562,       64.3005371094,       18.3105468750,     -128.7841796875
1494295276.7459828854,       -0.0786132812,       -0.9887695312,        0.0375976562,       59.2041015625,       16.5863037109,     -148.2696533203
1494295276.7486810684,       -0.0786132812,       -0.6787109375,       -0.1235351562,       59.2041015625,       16.5863037109,     -148.2696533203
1494295276.7513940334,       -0.0576171875,       -0.6787109375,       -0.1235351562,       35.7360839844,       14.6942138672,     -166.4886474609
1494295276.7540891171,       -0.0576171875,       -0.6787109375,       -0.1235351562,       35.7360839844,       14.6942138672,     -166.4886474609
1494295276.7567830086,       -0.0576171875,       -0.6787109375,       -0.1235351562,        0.7019042969,       11.5356445312,     -183.9294433594
1494295276.7594790459,       -0.1152343750,       -0.3916015625,       -0.0488281250,        0.7019042969,       11.5356445312,     -183.9294433594
1494295276.7621910572,       -0.1152343750,       -0.3916015625,       -0.0488281250,      -30.2886962891,        5.4931640625,     -201.2176513672
1494295276.7648890018,       -0.1152343750,       -0.3916015625,       -0.0488281250,      -30.2886962891,        5.4931640625,     -201.2176513672
1494295276.7675900459,       -0.1152343750,       -0.3916015625,       -0.0488281250,      -46.9207763672,        1.7089843750,     -216.5374755859
1494295276.7702889442,       -0.1503906250,       -0.2304687500,        0.0747070312,      -46.9207763672,        1.7089843750,     -216.5374755859
1494295276.7730019093,       -0.1503906250,       -0.2304687500,        0.0747070312,      -49.8809814453,       -0.5645751953,     -230.7891845703
1494295276.7757000923,       -0.1503906250,       -0.2304687500,        0.0747070312,      -49.8809814453,       -0.5645751953,     -230.7891845703
1494295276.7783989906,       -0.1503906250,       -0.2304687500,        0.1220703125,      -45.2423095703,       -1.2207031250,     -245.6359863281
1494295276.7811369896,       -0.2939453125,       -0.1591796875,        0.1220703125,      -45.2423095703,       -1.2207031250,     -245.6359863281
1494295276.7836890221,       -0.2939453125,       -0.1591796875,        0.1220703125,      -42.2058105469,        0.7324218750,     -259.1094970703
1494295276.7862429619,       -0.2939453125,       -0.1591796875,        0.1220703125,      -42.2058105469,        0.7324218750,     -259.1094970703
1494295276.7889859676,       -0.4189453125,       -0.0766601562,        0.0942382812,      -41.3970947266,        4.5928955078,     -271.0876464844
1494295276.7918310165,       -0.3857421875,       -0.0766601562,        0.0942382812,      -41.3970947266,        4.5928955078,     -271.0876464844
1494295276.7945280075,       -0.3857421875,       -0.0766601562,        0.0942382812,      -37.3687744141,        6.8664550781,     -282.1197509766
1494295276.7972209454,       -0.3857421875,       -0.0766601562,        0.0942382812,      -37.3687744141,        6.8664550781,     -282.1197509766
1494295276.7999169827,       -0.3623046875,       -0.0600585938,        0.0849609375,      -29.9224853516,        7.3394775391,     -292.2515869141
1494295276.8026230335,       -0.3623046875,       -0.0600585938,        0.0849609375,      -29.9224853516,        7.3394775391,     -292.2515869141
1494295276.8053209782,       -0.3623046875,       -0.0600585938,        0.0849609375,      -22.3388671875,        7.0495605469,     -302.4139404297
1494295276.8081290722,       -0.3623046875,       -0.0600585938,        0.0849609375,      -22.3388671875,        7.0495605469,     -302.4139404297
1494295276.8108251095,       -0.4565429688,       -0.1127929688,        0.0029296875,      -16.4794921875,        7.8582763672,     -312.5915527344
1494295276.8135221004,       -0.4565429688,       -0.1127929688,        0.0029296875,      -16.4794921875,        7.8582763672,     -312.5915527344
1494295276.8162140846,       -0.4565429688,       -0.1127929688,        0.0029296875,      -11.2609863281,        7.4768066406,     -323.0895996094
1494295276.8189051151,       -0.4565429688,       -0.2377929688,       -0.0126953125,      -11.2609863281,        7.4768066406,     -323.0895996094
1494295276.8215689659,       -0.5493164062,       -0.1323242188,       -0.0126953125,       -6.8359375000,        7.8887939453,     -332.2906494141
1494295276.8241169453,       -0.5493164062,       -0.1323242188,       -0.0126953125,       -6.8359375000,        7.8887939453,     -332.2906494141
1494295276.8266639709,       -0.5493164062,       -0.1323242188,       -0.0126953125,        0.9765625000,        9.3536376953,     -339.3859863281
1494295276.8292191029,       -0.5493164062,       -0.1264648438,       -0.0195312500,        0.2593994141,        9.3536376953,     -339.3859863281
1494295276.8317739964,       -0.6767578125,       -0.1264648438,       -0.0195312500,        0.2593994141,        9.3536376953,     -346.3897705078
1494295276.8343288898,       -0.6767578125,       -0.1264648438,       -0.0195312500,        9.1552734375,       10.1013183594,     -346.3897705078
1494295276.8368849754,       -0.6767578125,       -0.1264648438,       -0.0195312500,        9.1552734375,       10.1013183594,     -353.4545898438
1494295276.8394401073,       -0.8017578125,       -0.0888671875,       -0.0161132812,       13.9923095703,       10.2691650391,     -353.4545898438
1494295276.8420829773,       -0.8164062500,       -0.0888671875,       -0.0161132812,       13.9923095703,       10.2691650391,     -353.4545898438
1494295276.8446431160,       -0.8164062500,       -0.0888671875,       -0.0161132812,       13.6260986328,        9.9639892578,     -360.9924316406
1494295276.8471999168,       -0.8164062500,       -0.0888671875,       -0.0161132812,       13.6260986328,        9.9639892578,     -360.9924316406
1494295276.8497490883,       -0.8754882812,       -0.0571289062,        0.0200195312,        9.8571777344,        7.3242187500,     -368.5302734375
1494295276.8525021076,       -0.8754882812,       -0.0571289062,        0.0200195312,        9.8571777344,        7.3242187500,     -368.5302734375
1494295276.8552019596,       -0.8754882812,       -0.0571289062,        0.0200195312,        4.3487548828,        4.4097900391,     -375.6256103516
1494295276.8578960896,       -0.8754882812,       -0.0571289062,        0.0200195312,        4.3487548828,        4.4097900391,     -375.6256103516
1494295276.8605949879,       -1.0151367188,       -0.0527343750,        0.0043945312,       -3.1585693359,        1.6784667969,     -381.2103271484
1494295276.8632950783,       -1.0151367188,       -0.0527343750,        0.0043945312,       -3.1585693359,        1.6784667969,     -381.2103271484
1494295276.8659870625,       -1.0151367188,       -0.0527343750,        0.0043945312,      -15.6250000000,       -1.4953613281,     -385.6811523438
1494295276.8686881065,       -1.0151367188,       -0.0527343750,        0.0043945312,      -15.6250000000,       -1.4953613281,     -385.6811523438
1494295276.8713960648,       -1.1938476562,        0.0166015625,       -0.0292968750,      -32.9437255859,       -5.0048828125,     -388.9770507812
1494295276.8740890026,       -1.1938476562,        0.0166015625,       -0.0292968750,      -32.9437255859,       -5.0048828125,     -388.9770507812
1494295276.8767809868,       -1.1938476562,        0.0166015625,       -0.0292968750,      -48.0346679688,       -9.1400146484,     -391.7236328125
1494295276.8794710636,       -1.1938476562,        0.1416015625,        0.0024414062,      -48.0346679688,       -9.1400146484,     -391.7236328125
1494295276.8822140694,       -1.4003906250,        0.1401367188,        0.0024414062,      -56.8084716797,      -12.6495361328,     -394.0582275391
1494295276.8847770691,       -1.4003906250,        0.1401367188,        0.0024414062,      -56.8084716797,      -12.6495361328,     -394.0582275391
1494295276.8873410225,       -1.4003906250,        0.1401367188,        0.0024414062,      -62.4237060547,      -13.9312744141,     -396.0418701172
1494295276.8899021149,       -1.5253906250,        0.3110351562,        0.0502929688,      -62.4237060547,      -13.9312744141,     -396.0418701172
1494295276.8926260471,       -1.6235351562,        0.3110351562,        0.0502929688,      -67.5506591797,      -12.6037597656,     -397.1099853516
1494295276.8953289986,       -1.6235351562,        0.3110351562,        0.0502929688,      -67.5506591797,      -12.6037597656,     -397.1099853516
1494295276.8980259895,       -1.6235351562,        0.3110351562,        0.0502929688,      -72.7996826172,       -8.6669921875,     -396.9268798828
1494295276.9007329941,       -1.7719726562,        0.4121093750,        0.1157226562,      -72.7996826172,       -8.6669921875,     -396.9268798828
1494295276.9034330845,       -1.7719726562,        0.4121093750,        0.1157226562,      -76.7517089844,       -2.5787353516,     -395.7519531250
1494295276.9061338902,       -1.7719726562,        0.4121093750,        0.1157226562,      -76.7517089844,       -2.5787353516,     -395.7519531250
1494295276.9089279175,       -1.7719726562,        0.4121093750,        0.1157226562,      -78.0792236328,        3.4942626953,     -393.7530517578
1494295276.9119598866,       -1.7812500000,        0.5190429688,        0.1718750000,      -78.0792236328,        3.4942626953,     -393.7530517578
1494295276.9146630764,       -1.7812500000,        0.5190429688,        0.1718750000,      -77.8503417969,        9.5062255859,     -390.1519775391
1494295276.9173569679,       -1.7812500000,        0.5190429688,        0.1718750000,      -77.8503417969,        9.5062255859,     -390.1519775391
1494295276.9200499058,       -1.7812500000,        0.7290039062,        0.1757812500,      -76.2023925781,       14.6484375000,     -382.7362060547
1494295276.9227609634,       -1.7456054688,        0.7290039062,        0.1757812500,      -76.2023925781,       14.6484375000,     -382.7362060547
1494295276.9254610538,       -1.7456054688,        0.7290039062,        0.1757812500,      -72.1893310547,       18.7072753906,     -371.7803955078
1494295276.9281580448,       -1.7456054688,        0.7290039062,        0.1757812500,      -72.1893310547,       18.7072753906,     -371.7803955078
1494295276.9309198856,       -1.7915039062,        0.7851562500,        0.1508789062,      -66.3757324219,       21.8505859375,     -358.0780029297
1494295276.9334781170,       -1.7915039062,        0.7851562500,        0.1508789062,      -66.3757324219,       21.8505859375,     -358.0780029297
1494295276.9360380173,       -1.7915039062,        0.7851562500,        0.1508789062,      -62.5305175781,       23.5900878906,     -341.2933349609
1494295276.9385979176,       -1.7915039062,        0.7851562500,        0.1508789062,      -62.5305175781,       23.5900878906,     -341.2933349609
1494295276.9411840439,       -1.8618164062,        0.7622070312,        0.2226562500,      -60.9741210938,       24.7039794922,     -323.8067626953
1494295276.9437448978,       -1.8618164062,        0.7622070312,        0.2226562500,      -60.9741210938,       24.7039794922,     -323.8067626953
1494295276.9463019371,       -1.8618164062,        0.7622070312,        0.2226562500,      -60.9741210938,       25.3601074219,     -306.4575195312
1494295276.9488620758,       -1.8618164062,        0.7622070312,        0.2226562500,      -63.4307861328,       25.3601074219,     -306.4575195312
1494295276.9514350891,       -1.8286132812,        0.8398437500,        0.3193359375,      -63.4307861328,       25.3601074219,     -289.2608642578
1494295276.9540960789,       -1.8286132812,        0.8398437500,        0.3193359375,      -75.3631591797,       24.1394042969,     -289.2608642578
1494295276.9566578865,       -1.8286132812,        0.8398437500,        0.3193359375,      -75.3631591797,       24.1394042969,     -270.9350585938
1494295276.9592161179,       -1.8286132812,        0.8398437500,        0.3193359375,      -98.4497070312,       19.1955566406,     -270.9350585938
1494295276.9619030952,       -1.5673828125,        1.1625976562,        0.4384765625,      -98.4497070312,       19.1955566406,     -251.4038085938
1494295276.9644598961,       -1.5673828125,        1.1625976562,        0.4384765625,     -127.1820068359,       10.8489990234,     -250.6103515625
1494295276.9670219421,       -1.5673828125,        1.1625976562,        0.4384765625,     -127.1820068359,       10.8489990234,     -250.6103515625
1494295276.9695880413,       -1.5673828125,        1.1625976562,        0.4384765625,     -154.0832519531,        0.6408691406,     -229.6905517578
1494295276.9723150730,       -1.2646484375,        1.7456054688,        0.5908203125,     -154.0832519531,        0.6408691406,     -229.6905517578
1494295276.9750161171,       -1.2646484375,        1.7456054688,        0.5908203125,     -168.4112548828,      -10.5133056641,     -206.7260742188
1494295276.9777209759,       -1.2646484375,        1.7456054688,        0.5908203125,     -168.4112548828,      -10.5133056641,     -206.7260742188
1494295276.9804248810,       -1.2646484375,        2.3881835938,        0.5610351562,     -156.9671630859,      -15.9149169922,     -179.1381835938
1494295276.9830389023,       -1.0991210938,        2.3881835938,        0.5610351562,     -156.9671630859,      -15.9149169922,     -179.1381835938
1494295276.9855949879,       -1.0991210938,        2.3881835938,        0.5610351562,     -122.1160888672,      -17.5781250000,     -144.5770263672
1494295276.9881489277,       -1.0991210938,        2.3881835938,        0.5610351562,     -122.1160888672,      -17.5781250000,     -144.5770263672
1494295276.9907040596,       -1.0991210938,        2.6909179688,        0.4096679688,      -78.9031982422,      -20.7824707031,     -101.7150878906
1494295276.9934060574,       -0.9643554688,        2.6909179688,        0.4096679688,      -78.9031982422,      -20.7824707031,     -101.7150878906
1494295276.9961059093,       -0.9643554688,        2.6909179688,        0.4096679688,      -42.7246093750,      -23.0255126953,      -54.1229248047
1494295276.9988050461,       -0.9643554688,        2.6909179688,        0.4096679688,      -42.7246093750,      -23.0255126953,      -54.1229248047
1494295277.0015149117,       -0.9277343750,        2.4741210938,        0.3515625000,      -22.7203369141,      -21.8811035156,       -5.8746337891
1494295277.0040709972,       -0.9277343750,        2.4741210938,        0.3515625000,      -22.7203369141,      -21.8811035156,       -5.8746337891
1494295277.0066289902,       -0.9277343750,        2.4741210938,        0.3515625000,      -15.7775878906,      -20.5078125000,       39.1845703125
1494295277.0091888905,       -0.9277343750,        2.4741210938,        0.3515625000,      -15.7775878906,      -20.5078125000,       39.1845703125
1494295277.0119209290,       -0.9042968750,        2.0458984375,        0.4077148438,      -19.6533203125,      -21.7742919922,       78.7506103516
1494295277.0144801140,       -0.9042968750,        2.0458984375,        0.4077148438,      -19.6533203125,      -21.7742919922,       78.7506103516
1494295277.0170359612,       -0.9042968750,        2.0458984375,        0.4077148438,      -19.6533203125,      -26.0009765625,      113.0218505859
1494295277.0196020603,       -0.9042968750,        2.0458984375,        0.4077148438,      -30.0140380859,      -26.0009765625,      113.0218505859
1494295277.0222880840,       -0.8359375000,        1.7143554688,        0.4345703125,      -30.0140380859,      -33.8134765625,      145.0042724609
1494295277.0248470306,       -0.8359375000,        1.7143554688,        0.4345703125,      -43.0908203125,      -32.2418212891,      145.0042724609
1494295277.0278050900,       -0.8359375000,        1.7143554688,        0.4345703125,      -43.0908203125,      -40.0543212891,      174.8199462891
1494295277.0303740501,       -0.8359375000,        1.4643554688,        0.3554687500,      -59.6771240234,      -39.6118164062,      174.8199462891
1494295277.0334060192,       -0.8481445312,        1.4550781250,        0.3554687500,      -75.3021240234,      -46.8292236328,      200.7293701172
1494295277.0361089706,       -0.8481445312,        1.4550781250,        0.3554687500,      -77.6519775391,      -46.8292236328,      200.7293701172
1494295277.0388119221,       -0.8481445312,        1.4550781250,        0.3554687500,      -93.2769775391,      -53.3447265625,      214.9658203125
1494295277.0415580273,       -1.1445312500,        0.5971679688,        0.1918945312,      -92.4835205078,      -53.3447265625,      214.9658203125
1494295277.0442550182,       -1.1445312500,        0.5971679688,        0.1918945312,      -96.3897705078,      -52.6428222656,      214.5690917969
1494295277.0469579697,       -1.1445312500,        0.5971679688,        0.1918945312,      -95.6268310547,      -52.6428222656,      214.5690917969
1494295277.0496571064,       -1.1445312500,        0.5971679688,        0.1918945312,      -95.6268310547,      -30.4870605469,      205.2917480469
1494295277.0523660183,       -1.7041015625,       -2.1591796875,       -0.0917968750,     -115.9210205078,      -30.4870605469,      205.2917480469
1494295277.0550620556,       -1.7041015625,       -2.1591796875,       -0.0917968750,     -115.9210205078,       10.2996826172,      172.0733642578
1494295277.0577590466,       -1.7041015625,       -2.1591796875,       -0.0917968750,     -156.3110351562,       10.2996826172,      172.0733642578
1494295277.0604560375,       -1.7041015625,       -2.1591796875,       -0.5917968750,     -156.3110351562,       22.0184326172,      102.2644042969
1494295277.0630390644,       -2.3208007812,       -4.6616210938,       -0.6098632812,      -61.6455078125,       20.1873779297,      102.2644042969
1494295277.0655939579,       -2.3208007812,       -4.6616210938,       -0.6098632812,      -61.6455078125,       20.1873779297,       67.0166015625
1494295277.0681450367,       -2.3208007812,       -4.6616210938,       -0.6098632812,       26.9165039062,       -8.8653564453,       67.0166015625
1494295277.0707030296,       -2.3208007812,       -4.6616210938,       -1.0292968750,       26.9165039062,       -8.8653564453,       67.0166015625
1494295277.0732579231,       -2.1723632812,        1.4252929688,       -1.0292968750,     -106.4453125000,      -24.7802734375,      129.3334960938
1494295277.0758140087,       -2.1723632812,        1.4252929688,       -1.0292968750,     -106.4453125000,      -24.7802734375,      129.3334960938
1494295277.0783710480,       -2.1723632812,        1.4252929688,       -1.0292968750,     -277.3284912109,      -51.9714355469,      229.0344238281
1494295277.0810799599,       -2.1723632812,        4.5502929688,        1.1958007812,     -277.3284912109,      -51.9714355469,      229.0344238281
1494295277.0836338997,       -1.0429687500,        4.6191406250,        1.1958007812,     -350.6622314453,     -100.2655029297,      283.5998535156
1494295277.0861918926,       -1.0429687500,        4.6191406250,        1.1958007812,     -350.6622314453,     -100.2655029297,      283.5998535156
1494295277.0887489319,       -1.0429687500,        4.6191406250,        1.1958007812,     -236.9537353516,     -110.8093261719,      279.9835205078
1494295277.0914759636,       -1.0429687500,        1.4887695312,       -0.2529296875,     -236.9537353516,     -110.8093261719,      279.9835205078
1494295277.0941700935,       -0.9101562500,        1.4887695312,       -0.2529296875,      -18.6157226562,      -83.8165283203,      242.5537109375
1494295277.0968561172,       -0.9101562500,        1.4887695312,       -0.2529296875,      -18.6157226562,      -83.8165283203,      242.5537109375
1494295277.0995450020,       -0.9101562500,        1.4887695312,       -0.2529296875,      127.9602050781,      -41.2902832031,      186.4776611328
1494295277.1023368835,       -0.6831054688,       -0.1113281250,       -0.2768554688,      127.9602050781,      -41.2902832031,      186.4776611328
1494295277.1050000191,       -0.6831054688,       -0.1113281250,       -0.2768554688,      128.6468505859,      -24.9938964844,      143.4478759766
1494295277.1076591015,       -0.6831054688,       -0.1113281250,       -0.2768554688,      128.6468505859,      -24.9938964844,      143.4478759766
1494295277.1103179455,       -0.6831054688,       -0.1113281250,       -0.2768554688,       69.0765380859,      -23.8037109375,      128.2348632812
1494295277.1130270958,       -0.2656250000,        0.6938476562,        0.2021484375,       69.0765380859,      -23.8037109375,      128.2348632812
1494295277.1157250404,       -0.2656250000,        0.6938476562,        0.2021484375,       35.8581542969,      -34.0270996094,      125.3967285156
1494295277.1184248924,       -0.2656250000,        0.6938476562,        0.2021484375,       35.8581542969,      -34.0270996094,      125.3967285156
1494295277.1211938858,       -0.2656250000,        0.6938476562,        0.3696289062,       25.2227783203,      -45.9899902344,      122.4365234375
1494295277.1237499714,       -0.6440429688,        0.7148437500,        0.3696289062,       25.2227783203,      -45.9899902344,      122.4365234375
1494295277.1263039112,       -0.6440429688,        0.7148437500,        0.3696289062,       20.9655761719,      -53.7261962891,      119.2474365234
1494295277.1288619041,       -0.6440429688,        0.7148437500,        0.3696289062,       20.9655761719,      -53.7261962891,      119.2474365234
1494295277.1314640045,       -0.6440429688,        0.4648437500,        0.3759765625,       17.0593261719,      -55.8319091797,      115.7226562500
1494295277.1340260506,       -0.9619140625,        0.4243164062,        0.3759765625,       18.4783935547,      -55.8319091797,      115.7226562500
1494295277.1365909576,       -0.9619140625,        0.4243164062,        0.3759765625,       18.4783935547,      -51.9256591797,      109.9090576172
1494295277.1391510963,       -0.9619140625,        0.4243164062,        0.3759765625,       19.4396972656,      -51.1474609375,      109.9090576172
1494295277.1418299675,       -0.9619140625,        0.2817382812,        0.2358398438,       19.4396972656,      -51.1474609375,      101.8829345703
1494295277.1445260048,       -0.9736328125,        0.2817382812,        0.2358398438,       22.2167968750,      -42.9077148438,      101.8829345703
1494295277.1474618912,       -0.9736328125,        0.2817382812,        0.2358398438,       22.2167968750,      -39.0014648438,       95.5200195312
1494295277.1501491070,       -0.9736328125,        0.2817382812,        0.2358398438,       24.5056152344,      -38.3453369141,       95.5200195312
1494295277.1531128883,       -0.7919921875,        0.3183593750,        0.2968750000,       20.5993652344,      -39.5050048828,       91.8121337891
1494295277.1558110714,       -0.7919921875,        0.3183593750,        0.2968750000,       23.3612060547,      -39.5050048828,       91.8121337891
1494295277.1585109234,       -0.7919921875,        0.3183593750,        0.2968750000,       23.3612060547,      -43.7774658203,       89.0960693359
1494295277.1612250805,       -0.7919921875,        0.3183593750,        0.2968750000,       20.9808349609,      -43.7774658203,       89.0960693359
1494295277.1639220715,       -0.8583984375,        0.4462890625,        0.3120117188,       20.9808349609,      -45.1812744141,       86.8682861328
1494295277.1666181087,       -0.8583984375,        0.4462890625,        0.3120117188,       20.0653076172,      -45.1812744141,       86.8682861328
1494295277.1693129539,       -0.8583984375,        0.4462890625,        0.3120117188,       20.0653076172,      -42.1295166016,       82.9620361328
1494295277.1719579697,       -0.8583984375,        0.4462890625,        0.1972656250,       25.4821777344,      -42.1295166016,       82.9620361328
1494295277.1746280193,       -0.9814453125,        0.3862304688,        0.1972656250,       25.4821777344,      -34.3170166016,       77.8198242188
1494295277.1771900654,       -0.9814453125,        0.3862304688,        0.1972656250,       38.6962890625,      -34.5001220703,       77.8198242188
1494295277.1797440052,       -0.9814453125,        0.3862304688,        0.1972656250,       38.6962890625,      -34.5001220703,       70.2362060547
1494295277.1823370457,       -0.9814453125,        0.2778320312,        0.1455078125,       50.8422851562,      -24.4903564453,       70.2362060547
1494295277.1848950386,       -0.9160156250,        0.2778320312,        0.1455078125,       50.8422851562,      -24.4903564453,       70.2362060547
1494295277.1874608994,       -0.9160156250,        0.2778320312,        0.1455078125,       56.8695068359,      -15.5487060547,       60.3637695312
1494295277.1900169849,       -0.9160156250,        0.2778320312,        0.1455078125,       56.8695068359,      -15.5487060547,       60.3637695312
1494295277.1925849915,       -0.6660156250,        0.2700195312,        0.1347656250,       57.9223632812,      -10.4370117188,       51.3305664062
1494295277.1951448917,       -0.7250976562,        0.2700195312,        0.1347656250,       57.9223632812,      -10.4370117188,       51.3305664062
1494295277.1977028847,       -0.7250976562,        0.2700195312,        0.1347656250,       54.8706054688,      -12.1154785156,       44.9676513672
1494295277.2002670765,       -0.7250976562,        0.2700195312,        0.1347656250,       54.8706054688,      -12.1154785156,       44.9676513672
1494295277.2029860020,       -0.6943359375,        0.2480468750,        0.0610351562,       49.9267578125,      -15.3961181641,       40.4510498047
1494295277.2055459023,       -0.6943359375,        0.2480468750,        0.0610351562,       49.9267578125,      -15.3961181641,       40.4510498047
1494295277.2081060410,       -0.6943359375,        0.2480468750,        0.0610351562,       45.9899902344,      -16.9372558594,       36.2396240234
1494295277.2108180523,       -0.6943359375,        0.2480468750,        0.0610351562,       45.9899902344,      -16.9372558594,       36.2396240234
1494295277.2135250568,       -0.7041015625,        0.1196289062,        0.0034179688,       45.9747314453,      -18.1274414062,       31.5551757812
1494295277.2162270546,       -0.7041015625,        0.1196289062,        0.0034179688,       45.9747314453,      -18.1274414062,       31.5551757812
1494295277.2189249992,       -0.7041015625,        0.1196289062,        0.0034179688,       49.9877929688,      -20.6756591797,       27.0080566406
1494295277.2216000557,       -0.7041015625,        0.1196289062,        0.0034179688,       49.9877929688,      -20.6756591797,       27.0080566406
1494295277.2241580486,       -0.7177734375,        0.0703125000,        0.0229492188,       54.0313720703,      -23.3612060547,       24.0936279297
1494295277.2267189026,       -0.7177734375,        0.0703125000,        0.0229492188,       54.0313720703,      -23.3612060547,       24.0936279297
1494295277.2292790413,       -0.7177734375,        0.0703125000,        0.0229492188,       54.0313720703,      -24.0631103516,       22.1862792969
1494295277.2319490910,       -0.7177734375,        0.0703125000,        0.0229492188,       56.3354492188,      -24.0631103516,       22.1862792969
1494295277.2346460819,       -0.7885742188,        0.0756835938,        0.0048828125,       56.3354492188,      -23.1475830078,       20.0195312500
1494295277.2373430729,       -0.7885742188,        0.0756835938,        0.0048828125,       59.6466064453,      -23.1475830078,       20.0195312500
1494295277.2400419712,       -0.7885742188,        0.0756835938,        0.0048828125,       59.6466064453,      -21.9421386719,       18.7835693359
1494295277.2427830696,       -0.7885742188,        0.0332031250,       -0.0014648438,       61.5386962891,      -21.9421386719,       18.7835693359
1494295277.2454819679,       -0.8178710938,        0.0332031250,       -0.0014648438,       61.5386962891,      -21.8505859375,       17.6239013672
1494295277.2482879162,       -0.8178710938,        0.0332031250,       -0.0014648438,       60.5926513672,      -21.8505859375,       17.6239013672
1494295277.2509961128,       -0.8178710938,        0.0332031250,       -0.0014648438,       60.5926513672,      -21.8048095703,       17.1051025391
1494295277.2536969185,       -0.8066406250,       -0.0747070312,        0.0141601562,       58.3801269531,      -21.8048095703,       17.1051025391
1494295277.2563970089,       -0.8066406250,       -0.0747070312,        0.0141601562,       58.3801269531,      -20.1110839844,       16.2658691406
1494295277.2590959072,       -0.8066406250,       -0.0747070312,        0.0141601562,       54.8248291016,      -20.1110839844,       16.2658691406
1494295277.2618000507,       -0.8066406250,       -0.0747070312,        0.0141601562,       54.8248291016,      -16.2048339844,       16.7694091797
1494295277.2644979954,       -0.7490234375,       -0.1157226562,        0.0971679688,       49.4842529297,      -18.1427001953,       16.7694091797
1494295277.2674291134,       -0.7490234375,       -0.1157226562,        0.0971679688,       45.5780029297,      -16.4337158203,       18.5699462891
1494295277.2701261044,       -0.7490234375,       -0.1157226562,        0.0971679688,       44.8608398438,      -16.4337158203,       18.5699462891
1494295277.2729909420,       -0.7490234375,       -0.1367187500,        0.2060546875,       40.9545898438,      -14.8010253906,       20.1721191406
1494295277.2755498886,       -0.7138671875,       -0.1367187500,        0.2060546875,       42.6940917969,      -14.8010253906,       20.1721191406
1494295277.2781050205,       -0.7138671875,       -0.1367187500,        0.2060546875,       42.6940917969,      -14.8010253906,       20.8892822266
1494295277.2806971073,       -0.7138671875,       -0.1367187500,        0.2060546875,       41.1834716797,      -13.7634277344,       20.8892822266
1494295277.2834041119,       -0.6547851562,       -0.0712890625,        0.2529296875,       41.1834716797,      -13.7634277344,       21.6674804688
1494295277.2861061096,       -0.6547851562,       -0.0712890625,        0.2529296875,       41.7785644531,      -13.5650634766,       21.6674804688
1494295277.2888019085,       -0.6547851562,       -0.0712890625,        0.2529296875,       41.7785644531,      -13.5650634766,       23.4680175781
1494295277.2915489674,       -0.6547851562,       -0.0712890625,        0.2529296875,       44.8608398438,      -13.5650634766,       23.4680175781
1494295277.2942390442,       -0.6611328125,       -0.0209960938,        0.2158203125,       44.8608398438,      -13.5650634766,       26.0009765625
1494295277.2969369888,       -0.6611328125,       -0.0209960938,        0.2158203125,       49.5605468750,      -14.5568847656,       26.0009765625
1494295277.2996270657,       -0.6611328125,       -0.0209960938,        0.2158203125,       49.5605468750,      -14.5568847656,       28.7322998047
1494295277.3022890091,       -0.6611328125,       -0.0209960938,        0.2158203125,       52.9937744141,      -14.0686035156,       28.7322998047
1494295277.3048520088,       -0.6884765625,       -0.0463867188,        0.1948242188,       52.9937744141,      -14.0686035156,       32.6385498047
1494295277.3074131012,       -0.6884765625,       -0.0463867188,        0.1948242188,       55.0079345703,      -14.4805908203,       32.2418212891
1494295277.3099710941,       -0.6884765625,       -0.0463867188,        0.1948242188,       55.0079345703,      -14.4805908203,       32.2418212891
1494295277.3125410080,       -0.6884765625,       -0.0463867188,        0.1948242188,       56.4880371094,      -14.2364501953,       36.5447998047
1494295277.3151021004,       -0.6821289062,       -0.1118164062,        0.2060546875,       56.4880371094,      -14.2364501953,       36.5447998047
1494295277.3176579475,       -0.6821289062,       -0.1118164062,        0.2060546875,       56.4422607422,      -14.5874023438,       41.3208007812
1494295277.3202219009,       -0.6821289062,       -0.1118164062,        0.2060546875,       56.4422607422,      -14.5874023438,       41.3208007812
1494295277.3229439259,       -0.6821289062,       -0.1118164062,        0.2011718750,       55.7556152344,      -15.8386230469,       45.7305908203
1494295277.3255100250,       -0.6865234375,       -0.0463867188,        0.2011718750,       55.7556152344,      -15.8386230469,       45.7305908203
1494295277.3280720711,       -0.6865234375,       -0.0463867188,        0.2011718750,       55.7098388672,      -17.7459716797,       50.5523681641
1494295277.3307790756,       -0.6865234375,       -0.0463867188,        0.2011718750,       55.7098388672,      -17.7459716797,       50.5523681641
1494295277.3334798813,       -0.6865234375,        0.0156250000,        0.1269531250,       57.2662353516,      -18.7530517578,       55.3894042969
1494295277.3361859322,       -0.7275390625,        0.0156250000,        0.1269531250,       57.2662353516,      -18.7530517578,       55.3894042969
1494295277.3388860226,       -0.7275390625,        0.0156250000,        0.1269531250,       59.0667724609,      -19.7143554688,       61.1724853516
1494295277.3415989876,       -0.7275390625,        0.0156250000,        0.1269531250,       59.0667724609,      -19.7143554688,       61.1724853516
1494295277.3442990780,       -0.7641601562,       -0.0239257812,        0.0610351562,       60.8978271484,      -21.2860107422,       67.7337646484
1494295277.3469951153,       -0.7641601562,       -0.0239257812,        0.0610351562,       60.8978271484,      -21.2860107422,       67.7337646484
1494295277.3496890068,       -0.7641601562,       -0.0239257812,        0.0610351562,       60.1043701172,      -21.2249755859,       73.5473632812
1494295277.3523960114,       -0.7641601562,       -0.0239257812,        0.0610351562,       60.1043701172,      -21.2249755859,       73.5473632812
1494295277.3550980091,       -0.8857421875,       -0.0458984375,        0.0009765625,       55.8166503906,      -18.7072753906,       78.5369873047
1494295277.3578009605,       -0.8857421875,       -0.0458984375,        0.0009765625,       55.8166503906,      -18.7072753906,       78.5369873047
1494295277.3605060577,       -0.8857421875,       -0.0458984375,        0.0009765625,       49.1333007812,      -17.0288085938,       82.8704833984
1494295277.3630859852,       -0.8857421875,       -0.0458984375,       -0.1240234375,       49.1333007812,      -17.0288085938,       82.8704833984
1494295277.3656480312,       -1.0009765625,        0.0190429688,       -0.0761718750,       41.6259765625,      -15.6402587891,       86.2121582031
1494295277.3682079315,       -1.0009765625,        0.0190429688,       -0.0761718750,       41.6259765625,      -15.6402587891,       86.2121582031
1494295277.3707730770,       -1.0009765625,        0.0190429688,       -0.0761718750,       41.6259765625,      -14.1906738281,       88.5162353516
1494295277.3734710217,       -1.0009765625,        0.0190429688,       -0.0639648438,       37.0025634766,      -14.1906738281,       88.5162353516
1494295277.3761720657,       -0.9750976562,        0.0673828125,       -0.0639648438,       37.0025634766,      -11.3677978516,       89.8742675781
1494295277.3788690567,       -0.9750976562,        0.0673828125,       -0.0639648438,       36.5753173828,      -11.3677978516,       89.8742675781
1494295277.3815789223,       -0.9750976562,        0.0673828125,       -0.0639648438,       36.5753173828,       -9.2163085938,       93.2006835938
1494295277.3842809200,       -0.9145507812,        0.0073242188,       -0.0190429688,       39.9017333984,       -9.2163085938,       93.2006835938
1494295277.3871710300,       -0.9145507812,        0.0073242188,       -0.0190429688,       39.9017333984,       -7.8735351562,       97.4121093750
1494295277.3898758888,       -0.9145507812,        0.0073242188,       -0.0190429688,       41.0919189453,       -7.8735351562,       97.4121093750
1494295277.3927459717,       -0.9145507812,        0.0073242188,       -0.0190429688,       41.0919189453,       -5.9814453125,      101.3031005859
1494295277.3955459595,       -0.9370117188,       -0.0747070312,        0.0126953125,       39.2303466797,       -5.9814453125,      101.3031005859
1494295277.3982470036,       -0.9370117188,       -0.0747070312,        0.0126953125,       35.6140136719,       -3.7841796875,      106.0638427734
1494295277.4009470940,       -0.9370117188,       -0.0747070312,        0.0126953125,       35.6140136719,       -3.7841796875,      106.0638427734
1494295277.4035050869,       -0.9370117188,       -0.0747070312,        0.0532226562,       35.6140136719,       -0.2899169922,      111.3739013672
1494295277.4060559273,       -1.0424804688,       -0.1113281250,        0.0532226562,       32.8674316406,       -0.2899169922,      111.3739013672
1494295277.4086179733,       -1.0424804688,       -0.1113281250,        0.0532226562,       32.8674316406,       -0.2899169922,      116.7449951172
1494295277.4112119675,       -1.0424804688,       -0.1113281250,        0.0532226562,       29.7698974609,        2.7008056641,      116.7449951172
1494295277.4139060974,       -1.0424804688,       -0.1113281250,        0.1142578125,       29.7698974609,        2.7008056641,      122.3907470703
1494295277.4166040421,       -1.1269531250,       -0.1059570312,        0.1142578125,       26.4587402344,        3.7994384766,      122.3907470703
1494295277.4192988873,       -1.1269531250,       -0.1059570312,        0.1142578125,       26.4587402344,        3.7994384766,      128.3111572266
1494295277.4219470024,       -1.1269531250,       -0.1059570312,        0.1142578125,       25.2838134766,        4.8980712891,      128.3111572266
1494295277.4245018959,       -1.2519531250,       -0.1254882812,        0.0673828125,       25.2838134766,        4.8980712891,      128.3111572266
1494295277.4270548820,       -1.2514648438,       -0.1254882812,        0.0673828125,       26.4739990234,        6.0577392578,      133.3465576172
1494295277.4296019077,       -1.2514648438,       -0.1254882812,        0.0673828125,       26.4739990234,        6.0577392578,      133.3465576172
1494295277.4321720600,       -1.2514648438,       -0.1254882812,        0.0673828125,       26.2756347656,        6.0424804688,      138.5040283203
1494295277.4347229004,       -1.3012695312,       -0.0864257812,       -0.0058593750,       26.2756347656,        6.0424804688,      138.5040283203
1494295277.4372789860,       -1.3012695312,       -0.0864257812,       -0.0058593750,       25.9399414062,        5.1574707031,      143.3105468750
1494295277.4398341179,       -1.3012695312,       -0.0864257812,       -0.0058593750,       25.9399414062,        5.1574707031,      143.3105468750
1494295277.4424331188,       -1.3012695312,       -0.0864257812,       -0.0058593750,       27.0233154297,        5.0354003906,      148.5443115234
1494295277.4449899197,       -1.2919921875,       -0.1596679688,       -0.0517578125,       27.0233154297,        5.0354003906,      148.5443115234
1494295277.4475500584,       -1.2919921875,       -0.1596679688,       -0.0517578125,       29.2510986328,        6.8054199219,      153.9764404297
1494295277.4501020908,       -1.2919921875,       -0.1596679688,       -0.0517578125,       29.2510986328,        6.8054199219,      153.9764404297
1494295277.4527950287,       -1.2919921875,       -0.1596679688,       -0.0517578125,       30.8532714844,        8.1481933594,      159.7442626953
1494295277.4553499222,       -1.2841796875,       -0.2709960938,       -0.0058593750,       30.8532714844,        8.1481933594,      159.7442626953
1494295277.4579029083,       -1.2841796875,       -0.2709960938,       -0.0058593750,       30.8532714844,        8.8348388672,      165.2679443359
1494295277.4604570866,       -1.2841796875,       -0.2709960938,       -0.0058593750,       30.4870605469,        8.8348388672,      165.2679443359
1494295277.4631841183,       -1.2841796875,       -0.2709960938,       -0.0058593750,       30.4870605469,        8.8348388672,      171.0205078125
1494295277.4658770561,       -1.3251953125,       -0.3403320312,        0.0976562500,       29.9072265625,        8.9263916016,      171.0205078125
1494295277.4686849117,       -1.3251953125,       -0.3403320312,        0.0976562500,       29.9072265625,        9.2620849609,      177.4444580078
1494295277.4713919163,       -1.3251953125,       -0.3403320312,        0.0976562500,       30.5633544922,        9.2620849609,      177.4444580078
1494295277.4740839005,       -1.3251953125,       -0.3403320312,        0.1879882812,       30.5633544922,        9.2620849609,      183.5479736328
1494295277.4767749310,       -1.3657226562,       -0.3959960938,        0.1879882812,       33.0810546875,        8.1634521484,      183.5479736328
1494295277.4794669151,       -1.3657226562,       -0.3959960938,        0.1879882812,       33.0810546875,        4.2572021484,      188.0493164062
1494295277.4821689129,       -1.3657226562,       -0.3959960938,        0.1879882812,       42.0074462891,        6.3629150391,      188.0493164062
1494295277.4848608971,       -1.3657226562,       -0.4091796875,        0.2470703125,       42.0074462891,        6.3629150391,      191.5740966797
1494295277.4875578880,       -1.3671875000,       -0.4091796875,        0.2470703125,       55.1300048828,        4.3945312500,      191.5740966797
1494295277.4902570248,       -1.3671875000,       -0.4091796875,        0.2470703125,       55.1300048828,        0.4882812500,      197.2503662109
1494295277.4929609299,       -1.3671875000,       -0.4091796875,        0.2470703125,       65.4144287109,        1.4648437500,      197.2503662109
1494295277.4956600666,       -1.4194335938,       -0.5625000000,        0.2773437500,       65.4144287109,       -2.4414062500,      201.1260986328
1494295277.4983561039,       -1.4194335938,       -0.5625000000,        0.2773437500,       82.2601318359,       -1.9683837891,      201.1260986328
1494295277.5010530949,       -1.4194335938,       -0.5625000000,        0.2773437500,       82.2601318359,       -1.9683837891,      202.9418945312
1494295277.5036060810,       -1.4194335938,       -0.5625000000,        0.2773437500,      100.1739501953,       -3.5705566406,      202.9418945312
1494295277.5061650276,       -1.5800781250,       -0.7875976562,        0.3330078125,      100.1739501953,       -3.5705566406,      206.8481445312
1494295277.5088090897,       -1.5800781250,       -0.7875976562,        0.3330078125,      117.4926757812,       -4.2266845703,      203.7963867188
1494295277.5116291046,       -1.5800781250,       -0.7875976562,        0.3330078125,      117.4926757812,       -4.2266845703,      199.8901367188
1494295277.5143249035,       -1.5800781250,       -0.7875976562,        0.3330078125,      136.7187500000,       -6.0729980469,      202.5756835938
1494295277.5170218945,       -1.8046875000,       -0.9716796875,        0.3671875000,      136.7187500000,       -6.0729980469,      202.5756835938
1494295277.5197150707,       -1.8046875000,       -0.9716796875,        0.3671875000,      160.5682373047,       -6.7138671875,      200.4394531250
1494295277.5224230289,       -1.8046875000,       -0.9716796875,        0.3671875000,      160.5682373047,       -6.7138671875,      200.4394531250
1494295277.5251240730,       -1.8046875000,       -1.0004882812,        0.2622070312,      188.3850097656,       -2.7618408203,      199.4171142578
1494295277.5278229713,       -2.1499023438,       -1.0004882812,        0.2622070312,      188.3850097656,       -2.7618408203,      199.4171142578
1494295277.5305159092,       -2.1499023438,       -1.0004882812,        0.2622070312,      209.0911865234,        4.3640136719,      202.2705078125
1494295277.5332210064,       -2.1499023438,       -1.0004882812,        0.2622070312,      209.0911865234,        4.3640136719,      202.2705078125
1494295277.5359160900,       -2.1391601562,       -0.6962890625,        0.1757812500,      207.5805664062,       12.7563476562,      217.0867919922
1494295277.5386199951,       -2.1391601562,       -0.6962890625,        0.1757812500,      207.5805664062,       12.7563476562,      217.0867919922
1494295277.5413379669,       -2.1391601562,       -0.6962890625,        0.1757812500,      178.5430908203,       18.7225341797,      243.8659667969
1494295277.5440099239,       -2.1391601562,       -0.6962890625,        0.1757812500,      178.5430908203,       18.7225341797,      243.8659667969
1494295277.5465669632,       -1.9614257812,       -0.7431640625,        0.4345703125,      111.0229492188,       15.2740478516,      268.6309814453
1494295277.5491299629,       -1.9614257812,       -0.7431640625,        0.4345703125,      111.0229492188,       15.2740478516,      268.6309814453
1494295277.5517320633,       -1.9614257812,       -0.7431640625,        0.4345703125,       37.5061035156,       10.4217529297,      275.6500244141
1494295277.5542960167,       -1.9614257812,       -0.7431640625,        0.4345703125,       37.5061035156,       10.4217529297,      275.6500244141
1494295277.5568580627,       -1.9018554688,       -0.9272460938,        0.4189453125,       -4.3640136719,        8.6517333984,      263.4887695312
1494295277.5594029427,       -1.9018554688,       -0.9272460938,        0.4189453125,       -4.3640136719,        8.6517333984,      263.4887695312
1494295277.5620698929,       -1.9018554688,       -0.9272460938,        0.4189453125,      -18.5699462891,        8.9721679688,      243.5455322266
1494295277.5646250248,       -1.9018554688,       -0.9272460938,        0.4189453125,      -18.5699462891,        8.9721679688,      243.5455322266
1494295277.5671761036,       -1.5600585938,       -0.7470703125,        0.2426757812,      -17.7764892578,       13.8397216797,      223.1445312500
1494295277.5697340965,       -1.5600585938,       -0.7470703125,        0.2426757812,      -17.7764892578,       13.8397216797,      223.1445312500
1494295277.5725059509,       -1.5600585938,       -0.7470703125,        0.2426757812,      -16.0369873047,       24.3988037109,      206.4056396484
1494295277.5752089024,       -1.5600585938,       -0.8720703125,       -0.0156250000,      -16.0369873047,       24.3988037109,      206.4056396484
1494295277.5779080391,       -1.1455078125,       -0.7563476562,       -0.0156250000,      -20.5230712891,       34.0423583984,      196.0906982422
1494295277.5806069374,       -1.1455078125,       -0.7563476562,       -0.0156250000,      -20.5230712891,       34.0423583984,      196.0906982422
1494295277.5833079815,       -1.1455078125,       -0.7563476562,       -0.0156250000,      -41.3513183594,       32.3944091797,      187.6220703125
1494295277.5860109329,       -0.7324218750,       -0.2553710938,        0.0356445312,      -41.3513183594,       32.3944091797,      187.6220703125
1494295277.5887119770,       -0.7324218750,       -0.2553710938,        0.0356445312,      -80.4138183594,       13.3056640625,      174.2248535156
1494295277.5914189816,       -0.7324218750,       -0.2553710938,        0.0356445312,      -79.2083740234,       13.3056640625,      174.2248535156
1494295277.5941200256,       -0.7324218750,       -0.2553710938,        0.0356445312,     -122.1771240234,      -14.5416259766,      152.9541015625
1494295277.5968189240,       -0.4545898438,       -0.1049804688,        0.4545898438,     -121.3378906250,      -14.5416259766,      152.9541015625
1494295277.5995190144,       -0.4545898438,       -0.1049804688,        0.4545898438,     -133.0566406250,      -38.0401611328,      118.4082031250
1494295277.6021590233,       -0.4545898438,       -0.1049804688,        0.4545898438,     -135.4980468750,      -38.0401611328,      118.4082031250
1494295277.6047189236,       -0.4545898438,       -0.1049804688,        0.4545898438,     -135.4980468750,      -41.9464111328,       74.9969482422
1494295277.6072759628,       -0.4682617188,        0.2441406250,       -0.0288085938,     -100.7537841797,      -40.9393310547,       74.9969482422
1494295277.6098361015,       -0.4682617188,        0.2441406250,       -0.0288085938,     -100.7537841797,      -40.9393310547,       41.2292480469
1494295277.6125020981,       -0.4682617188,        0.2441406250,       -0.0288085938,      -78.3081054688,      -43.2586669922,       41.2292480469
1494295277.6153070927,       -0.4682617188,        0.2441406250,        0.5092773438,      -78.3081054688,      -43.2586669922,       23.7274169922
1494295277.6180090904,       -0.5087890625,        0.0708007812,        0.5092773438,      -78.2318115234,      -60.5163574219,       23.7274169922
1494295277.6207220554,       -0.5087890625,        0.0708007812,        0.5092773438,      -78.2318115234,      -60.5163574219,        2.3803710938
1494295277.6234219074,       -0.5087890625,        0.0708007812,        0.5092773438,      -57.9681396484,      -59.2041015625,        2.3803710938
1494295277.6261188984,       -0.5087890625,       -0.9272460938,       -0.1254882812,      -57.9681396484,      -59.2041015625,      -32.3791503906
1494295277.6289219856,       -0.5278320312,       -0.9272460938,       -0.1254882812,      -20.3704833984,      -25.9094238281,      -32.3791503906
1494295277.6316909790,       -0.5278320312,       -0.9272460938,       -0.1254882812,      -20.3704833984,      -25.9094238281,      -75.9124755859
1494295277.6344060898,       -0.5278320312,       -0.9272460938,       -0.1254882812,        6.3171386719,        5.7373046875,      -75.9124755859
