time_stamp before, time_stamp after, Acceleration x, Acceleration y, Acceleration z, Gyro x, Gyro y, Gyro z
1489456420.0207738876,1489456420.0329890251,       -0.7241210938,        0.1049804688,        0.0258789062,        1.1138916016,       -0.1220703125,        0.6103515625
1489456420.0332970619,1489456420.0367510319,       -0.7241210938,        0.1049804688,        0.0258789062,        1.1138916016,       -0.5187988281,        0.7476806641
1489456420.0370600224,1489456420.0400168896,       -0.7294921875,        0.0966796875,        0.0322265625,        1.5869140625,       -0.5187988281,        0.7476806641
1489456420.0403120518,1489456420.0426011086,       -0.7294921875,        0.0966796875,        0.0322265625,        1.4801025391,       -0.1983642578,        0.7476806641
1489456420.0428740978,1489456420.0452609062,       -0.7294921875,        0.0966796875,        0.0322265625,        1.4801025391,       -0.1983642578,        0.7476806641
1489456420.0455329418,1489456420.0478239059,       -0.7294921875,        0.0966796875,        0.0322265625,        1.3580322266,       -0.3051757812,        0.8850097656
1489456420.0480949879,1489456420.0505020618,       -0.7265625000,        0.1088867188,        0.0395507812,        1.3580322266,       -0.3051757812,        0.8850097656
1489456420.0507850647,1489456420.0531980991,       -0.7265625000,        0.1088867188,        0.0395507812,        1.2207031250,       -0.3356933594,        0.7629394531
1489456420.0534799099,1489456420.0558910370,       -0.7265625000,        0.1088867188,        0.0395507812,        1.2207031250,       -0.3356933594,        0.7629394531
1489456420.0561709404,1489456420.0585839748,       -0.7265625000,        0.1088867188,        0.0395507812,        1.4648437500,       -0.1373291016,        1.2207031250
1489456420.0588729382,1489456420.0613770485,       -0.7270507812,        0.0996093750,        0.0395507812,        1.4648437500,       -0.1373291016,        1.2207031250
1489456420.0616550446,1489456420.0640330315,       -0.7270507812,        0.0996093750,        0.0395507812,        1.7700195312,       -0.0610351562,        1.4495849609
1489456420.0643239021,1489456420.0669620037,       -0.7270507812,        0.0996093750,        0.0395507812,        1.7700195312,       -0.0610351562,        1.4495849609
1489456420.0672430992,1489456420.0699689388,       -0.7236328125,        0.0986328125,        0.0351562500,        1.6174316406,       -0.1831054688,        1.2969970703
1489456420.0702419281,1489456420.0725328922,       -0.7236328125,        0.0986328125,        0.0351562500,        1.6174316406,       -0.1831054688,        1.2969970703
1489456420.0728049278,1489456420.0750930309,       -0.7236328125,        0.0986328125,        0.0351562500,        1.2359619141,       -0.2288818359,        1.2969970703
1489456420.0753619671,1489456420.0776469707,       -0.7236328125,        0.0986328125,        0.0351562500,        1.2359619141,       -0.2288818359,        1.2969970703
1489456420.0779180527,1489456420.0803608894,       -0.7197265625,        0.1088867188,        0.0415039062,        1.2969970703,       -0.1220703125,        1.2969970703
1489456420.0806419849,1489456420.0830171108,       -0.7197265625,        0.1088867188,        0.0415039062,        1.2969970703,       -0.1220703125,        1.2969970703
1489456420.0832939148,1489456420.0862770081,       -0.7197265625,        0.1088867188,        0.0415039062,        1.5869140625,        0.0457763672,        1.2969970703
1489456420.0865509510,1489456420.0889160633,       -0.7197265625,        0.1088867188,        0.0317382812,        1.5869140625,        0.0457763672,        1.2969970703
1489456420.0891909599,1489456420.0914859772,       -0.7241210938,        0.1035156250,        0.0317382812,        1.9378662109,        0.3814697266,        1.2207031250
1489456420.0917611122,1489456420.0940449238,       -0.7241210938,        0.1035156250,        0.0317382812,        1.9378662109,        0.3814697266,        1.2207031250
1489456420.0943200588,1489456420.0966041088,       -0.7241210938,        0.1035156250,        0.0317382812,        2.3498535156,        0.5950927734,        1.4495849609
1489456420.0970399380,1489456420.0993359089,       -0.7241210938,        0.0937500000,        0.0424804688,        2.3498535156,        0.5950927734,        1.4495849609
1489456420.0996100903,1489456420.1018979549,       -0.7294921875,        0.0937500000,        0.0424804688,        2.5634765625,        0.2746582031,        1.6937255859
1489456420.1021718979,1489456420.1044559479,       -0.7294921875,        0.0937500000,        0.0424804688,        2.5634765625,        0.2746582031,        1.6937255859
1489456420.1047279835,1489456420.1070210934,       -0.7294921875,        0.0937500000,        0.0424804688,        2.3803710938,        0.1678466797,        1.6174316406
1489456420.1072950363,1489456420.1096339226,       -0.7294921875,        0.0922851562,        0.0361328125,        2.3803710938,        0.1678466797,        1.6174316406
1489456420.1099081039,1489456420.1121969223,       -0.7382812500,        0.0922851562,        0.0361328125,        2.3803710938,        0.4272460938,        1.6784667969
1489456420.1124711037,1489456420.1147620678,       -0.7382812500,        0.0922851562,        0.0361328125,        2.1514892578,        0.4272460938,        1.6784667969
1489456420.1150360107,1489456420.1173250675,       -0.7382812500,        0.0922851562,        0.0361328125,        2.1514892578,        0.4272460938,        1.6479492188
1489456420.1175999641,1489456420.1198980808,       -0.7348632812,        0.0971679688,        0.0332031250,        1.4801025391,        0.7629394531,        1.6479492188
1489456420.1201729774,1489456420.1224629879,       -0.7348632812,        0.0971679688,        0.0332031250,        1.4801025391,        0.7629394531,        1.5563964844
1489456420.1227369308,1489456420.1250209808,       -0.7348632812,        0.0971679688,        0.0332031250,        1.3885498047,        0.5798339844,        1.5563964844
1489456420.1252949238,1489456420.1275899410,       -0.7348632812,        0.0971679688,        0.0332031250,        1.3885498047,        0.5798339844,        1.5563964844
1489456420.1278619766,1489456420.1303169727,       -0.7382812500,        0.1083984375,        0.0400390625,        1.0070800781,        0.7171630859,        1.4495849609
1489456420.1305921078,1489456420.1328909397,       -0.7382812500,        0.1083984375,        0.0400390625,        1.0070800781,        0.7171630859,        1.4495849609
1489456420.1331639290,1489456420.1354560852,       -0.7382812500,        0.1083984375,        0.0400390625,        0.7171630859,        0.7019042969,        1.2664794922
1489456420.1357309818,1489456420.1380279064,       -0.7382812500,        0.1083984375,        0.0400390625,        0.7171630859,        0.7019042969,        1.2664794922
1489456420.1383039951,1489456420.1407680511,       -0.7333984375,        0.1025390625,        0.0366210938,        0.2593994141,        0.7934570312,        0.9307861328
1489456420.1410489082,1489456420.1434309483,       -0.7333984375,        0.1025390625,        0.0366210938,        0.2593994141,        0.7934570312,        0.9307861328
1489456420.1437129974,1489456420.1462070942,       -0.7333984375,        0.1025390625,        0.0366210938,        0.0457763672,        0.6103515625,        0.7476806641
1489456420.1464900970,1489456420.1489229202,       -0.7333984375,        0.1025390625,        0.0366210938,        0.0457763672,        0.6103515625,        0.7476806641
1489456420.1491980553,1489456420.1514859200,       -0.7290039062,        0.1171875000,        0.0156250000,        0.1068115234,        0.1678466797,        0.3814697266
1489456420.1517601013,1489456420.1540551186,       -0.7290039062,        0.1171875000,        0.0156250000,        0.1068115234,        0.1678466797,        0.3814697266
1489456420.1543300152,1489456420.1566200256,       -0.7290039062,        0.1171875000,        0.0156250000,        0.1373291016,        0.0762939453,       -0.1525878906
1489456420.1568930149,1489456420.1592490673,       -0.7290039062,        0.1171875000,        0.0156250000,        0.1373291016,        0.0762939453,       -0.1525878906
1489456420.1596369743,1489456420.1619229317,       -0.7314453125,        0.1108398438,        0.0214843750,        0.3662109375,        0.0915527344,       -0.1373291016
1489456420.1621999741,1489456420.1644868851,       -0.7314453125,        0.1108398438,        0.0214843750,        0.3662109375,        0.0915527344,       -0.1373291016
1489456420.1647620201,1489456420.1670529842,       -0.7314453125,        0.1108398438,        0.0214843750,        0.3356933594,        0.3967285156,       -0.0152587891
1489456420.1673259735,1489456420.1696650982,       -0.7314453125,        0.1108398438,        0.0302734375,        0.3356933594,        0.3967285156,       -0.0152587891
1489456420.1699390411,1489456420.1722259521,       -0.7285156250,        0.0991210938,        0.0302734375,        0.1678466797,        0.5187988281,       -0.1678466797
1489456420.1725010872,1489456420.1747961044,       -0.7285156250,        0.0991210938,        0.0302734375,        0.1678466797,        0.5187988281,       -0.1678466797
1489456420.1750690937,1489456420.1773579121,       -0.7285156250,        0.0991210938,        0.0302734375,        0.1678466797,        0.3204345703,       -0.2899169922
1489456420.1776320934,1489456420.1799759865,       -0.7285156250,        0.0991210938,        0.0322265625,        0.1220703125,        0.3204345703,       -0.2899169922
1489456420.1802499294,1489456420.1825420856,       -0.7319335938,        0.1000976562,        0.0322265625,        0.1220703125,        0.3204345703,       -0.3204345703
1489456420.1828160286,1489456420.1851010323,       -0.7319335938,        0.1000976562,        0.0322265625,        0.0762939453,        0.2899169922,       -0.3204345703
1489456420.1853759289,1489456420.1876690388,       -0.7319335938,        0.1000976562,        0.0322265625,        0.0762939453,        0.2899169922,       -0.3204345703
1489456420.1879448891,1489456420.1902599335,       -0.7319335938,        0.1049804688,        0.0200195312,        0.2136230469,        0.1983642578,       -0.5798339844
1489456420.1905379295,1489456420.1928191185,       -0.7260742188,        0.1049804688,        0.0200195312,        0.2136230469,        0.1983642578,       -0.5798339844
1489456420.1930971146,1489456420.1955559254,       -0.7260742188,        0.1049804688,        0.0200195312,        0.0152587891,        0.3356933594,       -0.6561279297
1489456420.1958329678,1489456420.1981210709,       -0.7260742188,        0.1049804688,        0.0200195312,        0.0152587891,        0.3356933594,       -0.6561279297
1489456420.1983969212,1489456420.2012460232,       -0.7260742188,        0.1015625000,        0.0244140625,        0.2288818359,        0.4425048828,       -0.2899169922
1489456420.2015299797,1489456420.2039499283,       -0.7358398438,        0.1015625000,        0.0244140625,        0.2288818359,        0.4425048828,       -0.2899169922
1489456420.2042338848,1489456420.2066481113,       -0.7358398438,        0.1015625000,        0.0244140625,        0.1525878906,        0.4882812500,       -0.2593994141
1489456420.2069299221,1489456420.2093570232,       -0.7358398438,        0.1015625000,        0.0244140625,        0.1525878906,        0.4882812500,       -0.2593994141
1489456420.2096400261,1489456420.2120590210,       -0.7309570312,        0.1010742188,        0.0322265625,        0.0152587891,        0.6713867188,       -0.2746582031
1489456420.2123410702,1489456420.2147569656,       -0.7309570312,        0.1010742188,        0.0322265625,        0.0152587891,        0.6713867188,       -0.2746582031
1489456420.2150380611,1489456420.2174599171,       -0.7309570312,        0.1010742188,        0.0322265625,        0.7476806641,        0.1678466797,       -0.2441406250
1489456420.2177441120,1489456420.2200911045,       -0.7309570312,        0.1010742188,        0.0390625000,        0.7476806641,        0.1678466797,       -0.2441406250
1489456420.2203691006,1489456420.2226679325,       -0.7387695312,        0.0917968750,        0.0390625000,        0.7629394531,        0.1373291016,       -0.1068115234
1489456420.2230548859,1489456420.2253510952,       -0.7387695312,        0.0917968750,        0.0390625000,        0.7629394531,        0.1373291016,       -0.1068115234
1489456420.2256269455,1489456420.2279179096,       -0.7387695312,        0.0917968750,        0.0390625000,        0.2899169922,        0.7171630859,       -0.1678466797
1489456420.2281920910,1489456420.2304980755,       -0.7387695312,        0.0917968750,        0.0258789062,        0.2899169922,        0.7171630859,       -0.1678466797
1489456420.2307729721,1489456420.2330670357,       -0.7431640625,        0.0913085938,        0.0258789062,       -0.2136230469,        0.7019042969,        0.1068115234
1489456420.2333428860,1489456420.2356369495,       -0.7431640625,        0.0913085938,        0.0258789062,       -0.2136230469,        0.7019042969,        0.1068115234
1489456420.2359108925,1489456420.2382071018,       -0.7431640625,        0.0913085938,        0.0258789062,       -0.4882812500,        0.8697509766,        0.2441406250
1489456420.2384819984,1489456420.2407820225,       -0.7431640625,        0.1040039062,        0.0263671875,       -0.4882812500,        0.8697509766,        0.2441406250
1489456420.2410569191,1489456420.2433490753,       -0.7275390625,        0.1040039062,        0.0263671875,       -0.9460449219,        0.8239746094,        0.3051757812
1489456420.2436249256,1489456420.2460150719,       -0.7275390625,        0.1040039062,        0.0263671875,       -0.9460449219,        0.8239746094,        0.3051757812
1489456420.2462909222,1489456420.2485840321,       -0.7275390625,        0.1040039062,        0.0263671875,       -1.0528564453,        1.1291503906,       -0.0762939453
1489456420.2489650249,1489456420.2512640953,       -0.7275390625,        0.1103515625,        0.0468750000,       -1.0528564453,        1.1291503906,       -0.0762939453
1489456420.2515380383,1489456420.2538290024,       -0.7275390625,        0.1103515625,        0.0468750000,       -1.0528564453,        1.1291503906,       -0.0152587891
1489456420.2541029453,1489456420.2563939095,       -0.7275390625,        0.1103515625,        0.0468750000,       -0.7324218750,        1.1291503906,       -0.0152587891
1489456420.2566699982,1489456420.2589941025,       -0.7275390625,        0.1103515625,        0.0468750000,       -0.7324218750,        0.4425048828,        0.0915527344
1489456420.2592799664,1489456420.2616899014,       -0.7304687500,        0.1069335938,        0.0278320312,       -0.2899169922,        0.4425048828,        0.0915527344
1489456420.2619719505,1489456420.2643859386,       -0.7304687500,        0.1069335938,        0.0278320312,       -0.2899169922,        0.4425048828,        0.1525878906
1489456420.2646679878,1489456420.2670879364,       -0.7304687500,        0.1069335938,        0.0278320312,       -0.1678466797,        0.6713867188,        0.1525878906
1489456420.2673699856,1489456420.2697739601,       -0.7304687500,        0.1069335938,        0.0278320312,       -0.1678466797,        0.6713867188,        0.0152587891
1489456420.2700479031,1489456420.2723469734,       -0.7338867188,        0.1010742188,        0.0390625000,        0.0915527344,        0.6713867188,        0.0152587891
1489456420.2726209164,1489456420.2749109268,       -0.7338867188,        0.1010742188,        0.0390625000,        0.0915527344,        0.6713867188,       -0.2288818359
1489456420.2751870155,1489456420.2774751186,       -0.7338867188,        0.1010742188,        0.0390625000,        0.2593994141,        0.6561279297,       -0.2288818359
1489456420.2777509689,1489456420.2801289558,       -0.7338867188,        0.1010742188,        0.0390625000,        0.2593994141,        0.6561279297,       -0.2288818359
1489456420.2804100513,1489456420.2828249931,       -0.7304687500,        0.0952148438,        0.0400390625,        0.3509521484,        0.5798339844,       -0.4119873047
1489456420.2831079960,1489456420.2855260372,       -0.7304687500,        0.0952148438,        0.0400390625,        0.3509521484,        0.5798339844,       -0.4119873047
1489456420.2859148979,1489456420.2883369923,       -0.7304687500,        0.0952148438,        0.0400390625,       -0.0305175781,        0.9765625000,       -0.3814697266
1489456420.2886180878,1489456420.2910439968,       -0.7304687500,        0.0952148438,        0.0336914062,       -0.0305175781,        0.9765625000,       -0.3814697266
1489456420.2913210392,1489456420.2936160564,       -0.7363281250,        0.0961914062,        0.0336914062,        0.0610351562,        1.3427734375,       -0.3509521484
1489456420.2938899994,1489456420.2961809635,       -0.7363281250,        0.0961914062,        0.0336914062,        0.0610351562,        1.3427734375,       -0.3509521484
1489456420.2964549065,1489456420.2987420559,       -0.7363281250,        0.0961914062,        0.0336914062,        0.3204345703,        0.9307861328,        0.1831054688
1489456420.2992300987,1489456420.3015179634,       -0.7363281250,        0.0903320312,        0.0205078125,        0.3204345703,        0.9307861328,        0.1831054688
1489456420.3017919064,1489456420.3040840626,       -0.7407226562,        0.0903320312,        0.0205078125,        0.3509521484,        0.7324218750,       -0.1525878906
1489456420.3048970699,1489456420.3071870804,       -0.7407226562,        0.0903320312,        0.0205078125,        0.3509521484,        0.7324218750,       -0.1525878906
1489456420.3074629307,1489456420.3098249435,       -0.7407226562,        0.0903320312,        0.0205078125,        0.4119873047,        0.7781982422,        0.1525878906
1489456420.3101000786,1489456420.3123888969,       -0.7250976562,        0.0942382812,        0.0170898438,        0.4119873047,        0.7781982422,        0.1525878906
1489456420.3126649857,1489456420.3149440289,       -0.7250976562,        0.0942382812,        0.0170898438,       -0.5340576172,        0.7781982422,        0.4577636719
1489456420.3152210712,1489456420.3175048828,       -0.7250976562,        0.0942382812,        0.0170898438,       -0.5340576172,        0.7781982422,        0.4577636719
1489456420.3177800179,1489456420.3200700283,       -0.7250976562,        0.0942382812,        0.0170898438,       -0.6713867188,        0.9307861328,        0.7171630859
1489456420.3203449249,1489456420.3226339817,       -0.7309570312,        0.1015625000,        0.0175781250,       -0.6713867188,        0.9307861328,        0.7171630859
1489456420.3229100704,1489456420.3251950741,       -0.7309570312,        0.1015625000,        0.0175781250,       -0.7171630859,        0.6408691406,        0.9155273438
1489456420.3254690170,1489456420.3277559280,       -0.7309570312,        0.1015625000,        0.0175781250,       -0.7171630859,        0.6408691406,        0.9155273438
1489456420.3280310631,1489456420.3303730488,       -0.7309570312,        0.1015625000,        0.0175781250,       -0.6408691406,        0.7324218750,        0.9765625000
1489456420.3306479454,1489456420.3329370022,       -0.7329101562,        0.1054687500,        0.0205078125,       -0.6408691406,        0.7324218750,        0.9765625000
1489456420.3332109451,1489456420.3355000019,       -0.7329101562,        0.1054687500,        0.0205078125,        0.1678466797,        0.0915527344,        0.9613037109
1489456420.3357760906,1489456420.3380661011,       -0.7329101562,        0.1054687500,        0.0205078125,        0.1678466797,        0.0915527344,        0.9613037109
1489456420.3383400440,1489456420.3406350613,       -0.7329101562,        0.1054687500,        0.0205078125,        0.1678466797,       -0.1831054688,        0.9002685547
1489456420.3409109116,1489456420.3432059288,       -0.7343750000,        0.1059570312,        0.0283203125,        0.5187988281,       -0.1831054688,        0.9002685547
1489456420.3434820175,1489456420.3457961082,       -0.7343750000,        0.1059570312,        0.0283203125,        0.5187988281,       -0.1831054688,        1.0223388672
1489456420.3460719585,1489456420.3483600616,       -0.7343750000,        0.1059570312,        0.0283203125,        0.4119873047,       -0.1373291016,        1.0223388672
1489456420.3487420082,1489456420.3510959148,       -0.7343750000,        0.1059570312,        0.0283203125,        0.4119873047,       -0.1373291016,        0.6408691406
1489456420.3513729572,1489456420.3536679745,       -0.7309570312,        0.1005859375,        0.0229492188,       -0.0762939453,       -0.0610351562,        0.6408691406
1489456420.3539431095,1489456420.3562409878,       -0.7309570312,        0.1005859375,        0.0229492188,       -0.0762939453,       -0.0610351562,        0.6408691406
1489456420.3565149307,1489456420.3589429855,       -0.7309570312,        0.1005859375,        0.0229492188,        0.2441406250,        0.2441406250,        1.0070800781
1489456420.3592269421,1489456420.3616390228,       -0.7309570312,        0.1005859375,        0.0253906250,        0.2441406250,        0.2441406250,        1.0070800781
1489456420.3619210720,1489456420.3643400669,       -0.7338867188,        0.1020507812,        0.0253906250,        0.1678466797,        0.3509521484,        1.0070800781
1489456420.3646240234,1489456420.3670411110,       -0.7338867188,        0.1020507812,        0.0253906250,        0.1678466797,        0.3509521484,        1.0070800781
1489456420.3673241138,1489456420.3697080612,       -0.7338867188,        0.1020507812,        0.0253906250,        0.0305175781,        0.4730224609,        0.7324218750
1489456420.3699829578,1489456420.3722720146,       -0.7338867188,        0.1040039062,        0.0278320312,        0.0305175781,        0.4730224609,        0.7324218750
1489456420.3725459576,1489456420.3748369217,       -0.7270507812,        0.1040039062,        0.0278320312,       -0.0610351562,        0.5035400391,        0.4272460938
1489456420.3751111031,1489456420.3774030209,       -0.7270507812,        0.1040039062,        0.0278320312,       -0.0610351562,        0.5035400391,        0.4272460938
1489456420.3776779175,1489456420.3800768852,       -0.7270507812,        0.1040039062,        0.0278320312,        0.7629394531,        0.2593994141,        0.8544921875
1489456420.3803610802,1489456420.3827750683,       -0.7246093750,        0.1142578125,        0.0214843750,        0.7629394531,        0.2593994141,        0.8544921875
1489456420.3830590248,1489456420.3854799271,       -0.7246093750,        0.1142578125,        0.0214843750,        1.6174316406,        0.1220703125,        1.1901855469
1489456420.3857619762,1489456420.3881800175,       -0.7246093750,        0.1142578125,        0.0214843750,        1.6174316406,        0.1220703125,        1.1901855469
1489456420.3884630203,1489456420.3908910751,       -0.7246093750,        0.1142578125,        0.0214843750,        1.1749267578,        0.1220703125,        0.8087158203
1489456420.3911719322,1489456420.3937070370,       -0.7255859375,        0.1059570312,        0.0253906250,        1.1749267578,        0.1220703125,        0.8087158203
1489456420.3939840794,1489456420.3962759972,       -0.7255859375,        0.1059570312,        0.0253906250,        0.9765625000,        0.3051757812,        0.8239746094
1489456420.3965520859,1489456420.3990089893,       -0.7255859375,        0.1059570312,        0.0253906250,        0.9765625000,        0.3051757812,        0.8239746094
1489456420.3992900848,1489456420.4016690254,       -0.7255859375,        0.1059570312,        0.0253906250,        0.4577636719,        0.3814697266,        0.9460449219
1489456420.4019489288,1489456420.4043300152,       -0.7265625000,        0.1005859375,        0.0249023438,        0.4577636719,        0.3814697266,        0.9460449219
1489456420.4051160812,1489456420.4074099064,       -0.7265625000,        0.1005859375,        0.0249023438,        0.6103515625,        0.4119873047,        0.8697509766
1489456420.4076859951,1489456420.4100449085,       -0.7265625000,        0.1005859375,        0.0249023438,        0.6103515625,        0.4119873047,        0.8697509766
1489456420.4103229046,1489456420.4126150608,       -0.7265625000,        0.1064453125,        0.0283203125,        0.3814697266,        0.3967285156,        0.8544921875
1489456420.4129910469,1489456420.4152810574,       -0.7290039062,        0.1064453125,        0.0283203125,        0.3814697266,        0.3967285156,        0.8544921875
1489456420.4155550003,1489456420.4178419113,       -0.7290039062,        0.1064453125,        0.0283203125,       -0.2746582031,        0.6103515625,        0.6866455078
1489456420.4181160927,1489456420.4204258919,       -0.7290039062,        0.1064453125,        0.0283203125,       -0.2746582031,        0.6103515625,        0.6866455078
1489456420.4206988811,1489456420.4229850769,       -0.7309570312,        0.1103515625,        0.0239257812,        0.3356933594,        0.1678466797,        0.9307861328
1489456420.4232609272,1489456420.4255559444,       -0.7309570312,        0.1103515625,        0.0239257812,        0.3356933594,        0.1678466797,        0.9307861328
1489456420.4258310795,1489456420.4281160831,       -0.7309570312,        0.1103515625,        0.0239257812,        0.6561279297,       -0.2899169922,        0.8087158203
1489456420.4283909798,1489456420.4307439327,       -0.7309570312,        0.1103515625,        0.0239257812,        0.6561279297,       -0.2899169922,        0.8087158203
1489456420.4310190678,1489456420.4333090782,       -0.7324218750,        0.1010742188,        0.0185546875,        0.6561279297,       -0.1678466797,        0.9155273438
1489456420.4335849285,1489456420.4358730316,       -0.7324218750,        0.1010742188,        0.0185546875,        0.9460449219,       -0.1678466797,        0.9155273438
1489456420.4361488819,1489456420.4384319782,       -0.7324218750,        0.1010742188,        0.0185546875,        0.9460449219,       -0.1678466797,        1.1138916016
1489456420.4387080669,1489456420.4410018921,       -0.7324218750,        0.1010742188,        0.0185546875,        1.3427734375,       -0.3204345703,        1.1138916016
1489456420.4412760735,1489456420.4435620308,       -0.7338867188,        0.0947265625,        0.0292968750,        1.3427734375,       -0.3204345703,        1.0223388672
1489456420.4438359737,1489456420.4461328983,       -0.7338867188,        0.0947265625,        0.0292968750,        1.2207031250,       -0.1831054688,        1.0223388672
1489456420.4464058876,1489456420.4486899376,       -0.7338867188,        0.0947265625,        0.0292968750,        1.2207031250,       -0.1831054688,        1.0223388672
1489456420.4489850998,1489456420.4512789249,       -0.7338867188,        0.0947265625,        0.0292968750,        1.0986328125,       -0.2288818359,        1.3122558594
1489456420.4515519142,1489456420.4538500309,       -0.7387695312,        0.0947265625,        0.0253906250,        1.0986328125,       -0.2288818359,        1.3122558594
1489456420.4541220665,1489456420.4564170837,       -0.7387695312,        0.0947265625,        0.0253906250,        0.7629394531,       -0.0457763672,        1.6174316406
1489456420.4566900730,1489456420.4591350555,       -0.7387695312,        0.0947265625,        0.0253906250,        0.7629394531,       -0.0457763672,        1.6174316406
1489456420.4594099522,1489456420.4617021084,       -0.7387695312,        0.0947265625,        0.0253906250,        0.5187988281,       -0.0457763672,        1.7700195312
1489456420.4619779587,1489456420.4642629623,       -0.7392578125,        0.0952148438,        0.0312500000,        0.5187988281,       -0.0457763672,        1.7700195312
1489456420.4645380974,1489456420.4668369293,       -0.7392578125,        0.0952148438,        0.0312500000,        0.3204345703,       -0.1068115234,        1.7852783203
1489456420.4671130180,1489456420.4694809914,       -0.7392578125,        0.0952148438,        0.0312500000,        0.3204345703,       -0.1068115234,        1.7852783203
1489456420.4697630405,1489456420.4721798897,       -0.7392578125,        0.0952148438,        0.0312500000,       -0.1678466797,        0.5187988281,        1.9073486328
1489456420.4724600315,1489456420.4748809338,       -0.7324218750,        0.1088867188,        0.0239257812,       -0.1678466797,        0.5187988281,        1.9073486328
1489456420.4751639366,1489456420.4775819778,       -0.7324218750,        0.1088867188,        0.0239257812,       -0.1525878906,        0.4425048828,        2.0904541016
1489456420.4779820442,1489456420.4804439545,       -0.7324218750,        0.1088867188,        0.0239257812,       -0.1525878906,        0.4425048828,        2.0904541016
1489456420.4807269573,1489456420.4831469059,       -0.7324218750,        0.1088867188,        0.0219726562,        0.0610351562,        0.2441406250,        1.5258789062
1489456420.4834270477,1489456420.4858460426,       -0.7294921875,        0.1210937500,        0.0219726562,        0.0610351562,        0.2441406250,        1.5258789062
1489456420.4861268997,1489456420.4885509014,       -0.7294921875,        0.1210937500,        0.0219726562,        0.9307861328,       -0.5035400391,        1.3885498047
1489456420.4888420105,1489456420.4912619591,       -0.7294921875,        0.1210937500,        0.0219726562,        0.9307861328,       -0.5035400391,        1.3885498047
1489456420.4915449619,1489456420.4939599037,       -0.7255859375,        0.1098632812,        0.0312500000,        0.7019042969,       -0.9460449219,        1.0681152344
1489456420.4942429066,1489456420.4966590405,       -0.7255859375,        0.1098632812,        0.0312500000,        0.7019042969,       -0.9460449219,        1.0681152344
1489456420.4969398975,1489456420.4996190071,       -0.7255859375,        0.1098632812,        0.0312500000,        0.6713867188,       -0.7476806641,        0.8392333984
1489456420.4999010563,1489456420.5022819042,       -0.7255859375,        0.1098632812,        0.0312500000,        0.6713867188,       -0.7476806641,        0.8392333984
1489456420.5025629997,1489456420.5055708885,       -0.7250976562,        0.1127929688,        0.0161132812,        0.2746582031,       -0.6561279297,        0.6256103516
1489456420.5058500767,1489456420.5081419945,       -0.7250976562,        0.1127929688,        0.0161132812,        0.2746582031,       -0.6561279297,        0.6256103516
1489456420.5084168911,1489456420.5107789040,       -0.7250976562,        0.1127929688,        0.0161132812,        0.1373291016,       -0.3662109375,        0.6256103516
1489456420.5110530853,1489456420.5133440495,       -0.7250976562,        0.1093750000,        0.0214843750,        0.1373291016,       -0.3662109375,        0.6256103516
1489456420.5136210918,1489456420.5159070492,       -0.7250976562,        0.1093750000,        0.0214843750,        0.4882812500,       -0.2899169922,        0.5645751953
1489456420.5161819458,1489456420.5184669495,       -0.7250976562,        0.1093750000,        0.0214843750,        0.4882812500,       -0.2899169922,        0.5645751953
1489456420.5187420845,1489456420.5210399628,       -0.7250976562,        0.1093750000,        0.0214843750,        0.7629394531,       -0.5798339844,        0.6103515625
1489456420.5213139057,1489456420.5236020088,       -0.7250976562,        0.1103515625,        0.0336914062,        0.7629394531,       -0.5798339844,        0.6103515625
1489456420.5238769054,1489456420.5261659622,       -0.7211914062,        0.1103515625,        0.0336914062,        0.5950927734,       -0.3967285156,        0.6866455078
1489456420.5264420509,1489456420.5287311077,       -0.7211914062,        0.1103515625,        0.0336914062,        0.5950927734,       -0.3967285156,        0.6866455078
1489456420.5290610790,1489456420.5313498974,       -0.7211914062,        0.1103515625,        0.0336914062,        0.5950927734,       -0.6408691406,        0.7171630859
1489456420.5316259861,1489456420.5339159966,       -0.7211914062,        0.1030273438,        0.0273437500,        0.7171630859,       -0.6408691406,        0.7171630859
1489456420.5341920853,1489456420.5364820957,       -0.7221679688,        0.1030273438,        0.0273437500,        0.7171630859,       -0.6408691406,        0.2593994141
1489456420.5367560387,1489456420.5390698910,       -0.7221679688,        0.1030273438,        0.0273437500,        0.4577636719,       -0.5187988281,        0.2593994141
1489456420.5393440723,1489456420.5416359901,       -0.7221679688,        0.1030273438,        0.0273437500,        0.4577636719,       -0.5187988281,        0.5950927734
1489456420.5420169830,1489456420.5443100929,       -0.7309570312,        0.1166992188,        0.0249023438,        0.3814697266,       -0.2288818359,        0.5950927734
1489456420.5445849895,1489456420.5468730927,       -0.7309570312,        0.1166992188,        0.0249023438,        0.3814697266,       -0.2288818359,        0.5950927734
1489456420.5471470356,1489456420.5495619774,       -0.7309570312,        0.1166992188,        0.0249023438,        0.5950927734,       -0.6256103516,        0.8239746094
1489456420.5498399734,1489456420.5521318913,       -0.7309570312,        0.1166992188,        0.0249023438,        0.5950927734,       -0.6256103516,        0.8239746094
1489456420.5524089336,1489456420.5546989441,       -0.7280273438,        0.1098632812,        0.0170898438,        0.2441406250,       -0.6103515625,        0.6713867188
1489456420.5549740791,1489456420.5572700500,       -0.7280273438,        0.1098632812,        0.0170898438,        0.2441406250,       -0.6103515625,        0.6713867188
1489456420.5575449467,1489456420.5599229336,       -0.7280273438,        0.1098632812,        0.0170898438,        0.3509521484,       -0.3204345703,        0.9460449219
1489456420.5601980686,1489456420.5624830723,       -0.7280273438,        0.1098632812,        0.0170898438,        0.3509521484,       -0.3204345703,        0.9460449219
1489456420.5627589226,1489456420.5650510788,       -0.7402343750,        0.1123046875,        0.0263671875,        0.5493164062,       -0.8239746094,        0.9613037109
1489456420.5653278828,1489456420.5676128864,       -0.7402343750,        0.1123046875,        0.0263671875,        0.5493164062,       -0.8239746094,        0.9613037109
1489456420.5678880215,1489456420.5702428818,       -0.7402343750,        0.1123046875,        0.0263671875,        0.8087158203,       -0.9307861328,        1.0375976562
1489456420.5705170631,1489456420.5728080273,       -0.7402343750,        0.1123046875,        0.0263671875,        0.8087158203,       -0.9307861328,        1.0375976562
1489456420.5730810165,1489456420.5753669739,       -0.7299804688,        0.1079101562,        0.0244140625,        1.1444091797,       -0.7019042969,        1.3122558594
1489456420.5756399632,1489456420.5779318810,       -0.7299804688,        0.1079101562,        0.0244140625,        1.1444091797,       -0.7019042969,        1.3122558594
1489456420.5782060623,1489456420.5805490017,       -0.7299804688,        0.1079101562,        0.0244140625,        1.5869140625,       -0.8392333984,        1.2664794922
1489456420.5808250904,1489456420.5831120014,       -0.7299804688,        0.1079101562,        0.0244140625,        1.5869140625,       -0.8392333984,        1.2664794922
1489456420.5833868980,1489456420.5856769085,       -0.7343750000,        0.1054687500,        0.0219726562,        1.5869140625,       -1.1749267578,        1.2359619141
1489456420.5859510899,1489456420.5882420540,       -0.7343750000,        0.1054687500,        0.0219726562,        1.4495849609,       -1.1749267578,        1.2359619141
1489456420.5885150433,1489456420.5908150673,       -0.7343750000,        0.1054687500,        0.0219726562,        1.4495849609,       -1.1749267578,        1.5869140625
1489456420.5910880566,1489456420.5933799744,       -0.7343750000,        0.1054687500,        0.0219726562,        1.6479492188,       -0.9460449219,        1.5869140625
1489456420.5936539173,1489456420.5959389210,       -0.7304687500,        0.1025390625,        0.0209960938,        1.6479492188,       -0.9460449219,        1.9836425781
1489456420.5962140560,1489456420.5985069275,       -0.7304687500,        0.1025390625,        0.0209960938,        1.3122558594,       -1.1138916016,        1.9836425781
1489456420.5987799168,1489456420.6011180878,       -0.7304687500,        0.1025390625,        0.0209960938,        1.3122558594,       -1.1138916016,        1.9836425781
1489456420.6013929844,1489456420.6036798954,       -0.7304687500,        0.1025390625,        0.0209960938,        0.7171630859,       -0.6561279297,        2.3651123047
1489456420.6040589809,1489456420.6063539982,       -0.7333984375,        0.1059570312,        0.0268554688,        0.7171630859,       -0.6561279297,        2.3651123047
1489456420.6066300869,1489456420.6089990139,       -0.7333984375,        0.1059570312,        0.0268554688,        0.4425048828,       -0.7629394531,        2.3345947266
1489456420.6092920303,1489456420.6115970612,       -0.7333984375,        0.1059570312,        0.0268554688,        0.4425048828,       -0.7629394531,        2.3345947266
1489456420.6118719578,1489456420.6141660213,       -0.7333984375,        0.1059570312,        0.0288085938,        0.4272460938,       -0.5798339844,        2.4719238281
1489456420.6144540310,1489456420.6169869900,       -0.7373046875,        0.1108398438,        0.0288085938,        0.4272460938,       -0.5798339844,        2.4719238281
1489456420.6172630787,1489456420.6200668812,       -0.7373046875,        0.1108398438,        0.0288085938,        0.8087158203,       -0.8392333984,        2.3193359375
1489456420.6203498840,1489456420.6227650642,       -0.7373046875,        0.1108398438,        0.0288085938,        0.8087158203,       -0.8392333984,        2.3193359375
1489456420.6230480671,1489456420.6254580021,       -0.7329101562,        0.1181640625,        0.0253906250,        0.7476806641,       -0.8544921875,        2.2125244141
1489456420.6257400513,1489456420.6281599998,       -0.7329101562,        0.1181640625,        0.0253906250,        0.7476806641,       -0.8544921875,        2.2125244141
1489456420.6284410954,1489456420.6308729649,       -0.7329101562,        0.1181640625,        0.0253906250,        0.7476806641,       -0.8239746094,        2.2430419922
1489456420.6311559677,1489456420.6335740089,       -0.7329101562,        0.1181640625,        0.0253906250,        0.7476806641,       -0.8239746094,        2.2430419922
1489456420.6338579655,1489456420.6362709999,       -0.7280273438,        0.1250000000,        0.0283203125,        0.8697509766,       -0.8544921875,        2.0599365234
1489456420.6365530491,1489456420.6389720440,       -0.7280273438,        0.1250000000,        0.0283203125,        0.8697509766,       -0.8544921875,        2.0599365234
1489456420.6392529011,1489456420.6416759491,       -0.7280273438,        0.1250000000,        0.0283203125,        1.1901855469,       -1.1444091797,        1.7547607422
1489456420.6419570446,1489456420.6443760395,       -0.7280273438,        0.1250000000,        0.0351562500,        1.1901855469,       -1.1444091797,        1.7547607422
1489456420.6446568966,1489456420.6470689774,       -0.7270507812,        0.1181640625,        0.0351562500,        1.5411376953,       -1.3732910156,        1.7242431641
1489456420.6473510265,1489456420.6497209072,       -0.7270507812,        0.1181640625,        0.0351562500,        1.5411376953,       -1.3732910156,        1.7242431641
1489456420.6499979496,1489456420.6522889137,       -0.7270507812,        0.1181640625,        0.0351562500,        1.6632080078,       -1.0986328125,        1.4343261719
1489456420.6525619030,1489456420.6548550129,       -0.7270507812,        0.1137695312,        0.0239257812,        1.6632080078,       -1.0986328125,        1.4343261719
1489456420.6551280022,1489456420.6574199200,       -0.7290039062,        0.1137695312,        0.0239257812,        1.4343261719,       -0.7476806641,        1.5563964844
1489456420.6576941013,1489456420.6600279808,       -0.7290039062,        0.1137695312,        0.0239257812,        1.4343261719,       -0.7476806641,        1.5563964844
1489456420.6603009701,1489456420.6625959873,       -0.7290039062,        0.1137695312,        0.0239257812,        1.3122558594,       -0.8544921875,        1.5869140625
1489456420.6628699303,1489456420.6651659012,       -0.7290039062,        0.1132812500,        0.0249023438,        1.3122558594,       -0.8544921875,        1.5869140625
1489456420.6654400826,1489456420.6677339077,       -0.7329101562,        0.1132812500,        0.0249023438,        1.2664794922,       -0.8850097656,        1.7700195312
1489456420.6681149006,1489456420.6705379486,       -0.7329101562,        0.1132812500,        0.0249023438,        1.2664794922,       -0.8850097656,        1.7700195312
1489456420.6708140373,1489456420.6731050014,       -0.7329101562,        0.1132812500,        0.0249023438,        0.7934570312,       -0.9613037109,        2.0446777344
1489456420.6733810902,1489456420.6756699085,       -0.7275390625,        0.1176757812,        0.0224609375,        0.7934570312,       -0.9613037109,        2.0446777344
1489456420.6759440899,1489456420.6782360077,       -0.7275390625,        0.1176757812,        0.0224609375,        0.7934570312,       -0.9765625000,        2.0751953125
1489456420.6785109043,1489456420.6810300350,       -0.7275390625,        0.1176757812,        0.0224609375,        0.5187988281,       -0.9765625000,        2.0751953125
1489456420.6813120842,1489456420.6837289333,       -0.7275390625,        0.1176757812,        0.0224609375,        0.5187988281,       -0.6256103516,        2.3498535156
1489456420.6840109825,1489456420.6864249706,       -0.7275390625,        0.1201171875,        0.0327148438,        0.3356933594,       -0.6256103516,        2.3498535156
1489456420.6867060661,1489456420.6891310215,       -0.7275390625,        0.1201171875,        0.0327148438,        0.3356933594,       -0.9460449219,        2.1972656250
1489456420.6894140244,1489456420.6918299198,       -0.7275390625,        0.1201171875,        0.0327148438,        0.2593994141,       -0.9460449219,        2.1972656250
1489456420.6921141148,1489456420.6945281029,       -0.7275390625,        0.1201171875,        0.0327148438,        0.2593994141,       -0.9765625000,        1.7242431641
1489456420.6948089600,1489456420.6972219944,       -0.7236328125,        0.1166992188,        0.0205078125,        0.3662109375,       -0.9765625000,        1.7242431641
1489456420.6975030899,1489456420.6999309063,       -0.7236328125,        0.1166992188,        0.0205078125,        0.3662109375,       -0.6103515625,        2.1362304688
1489456420.7002120018,1489456420.7026240826,       -0.7236328125,        0.1166992188,        0.0205078125,        0.4272460938,       -0.6103515625,        2.1362304688
1489456420.7029070854,1489456420.7053189278,       -0.7236328125,        0.1166992188,        0.0273437500,        0.4272460938,       -0.6103515625,        2.2430419922
1489456420.7056009769,1489456420.7080109119,       -0.7255859375,        0.1093750000,        0.0273437500,        0.7171630859,       -0.6561279297,        2.2430419922
1489456420.7082910538,1489456420.7106230259,       -0.7255859375,        0.1093750000,        0.0273437500,        0.7171630859,       -0.6561279297,        1.8310546875
1489456420.7108960152,1489456420.7131910324,       -0.7255859375,        0.1093750000,        0.0273437500,        0.2288818359,       -0.8697509766,        1.8310546875
1489456420.7134659290,1489456420.7157549858,       -0.7255859375,        0.1152343750,        0.0229492188,        0.2288818359,       -0.8697509766,        2.0141601562
1489456420.7160289288,1489456420.7183198929,       -0.7285156250,        0.1152343750,        0.0229492188,        0.1525878906,       -0.3814697266,        2.0141601562
1489456420.7185940742,1489456420.7210628986,       -0.7285156250,        0.1152343750,        0.0229492188,        0.1525878906,       -0.3814697266,        2.0141601562
1489456420.7213459015,1489456420.7237570286,       -0.7285156250,        0.1152343750,        0.0229492188,       -0.3967285156,       -0.2441406250,        2.2430419922
1489456420.7240378857,1489456420.7264540195,       -0.7304687500,        0.1215820312,        0.0258789062,       -0.3967285156,       -0.2441406250,        2.2430419922
1489456420.7267360687,1489456420.7291579247,       -0.7304687500,        0.1215820312,        0.0258789062,       -0.0610351562,       -0.5950927734,        1.8157958984
1489456420.7294399738,1489456420.7318549156,       -0.7304687500,        0.1215820312,        0.0258789062,       -0.0610351562,       -0.5950927734,        1.8157958984
1489456420.7322440147,1489456420.7346589565,       -0.7304687500,        0.1215820312,        0.0258789062,       -0.7629394531,       -0.5035400391,        1.9836425781
1489456420.7349579334,1489456420.7374849319,       -0.7319335938,        0.1108398438,        0.0234375000,       -0.7629394531,       -0.5035400391,        2.0294189453
1489456420.7377679348,1489456420.7406311035,       -0.7319335938,        0.1108398438,        0.0234375000,       -1.0528564453,       -0.3967285156,        2.0294189453
1489456420.7409150600,1489456420.7433340549,       -0.7319335938,        0.1108398438,        0.0234375000,       -1.0528564453,       -0.3967285156,        1.6326904297
1489456420.7436189651,1489456420.7460379601,       -0.7319335938,        0.1171875000,        0.0268554688,       -1.0223388672,       -0.2441406250,        1.6326904297
1489456420.7463200092,1489456420.7487390041,       -0.7255859375,        0.1171875000,        0.0268554688,       -1.0223388672,       -0.2441406250,        1.7395019531
1489456420.7490730286,1489456420.7514879704,       -0.7255859375,        0.1171875000,        0.0268554688,       -1.0986328125,       -0.3814697266,        1.7395019531
1489456420.7517700195,1489456420.7541909218,       -0.7255859375,        0.1171875000,        0.0268554688,       -1.0986328125,       -0.3814697266,        1.8310546875
1489456420.7544710636,1489456420.7568919659,       -0.7314453125,        0.1289062500,        0.0322265625,       -0.8544921875,       -0.3814697266,        1.8310546875
1489456420.7571759224,1489456420.7596011162,       -0.7314453125,        0.1289062500,        0.0322265625,       -0.8544921875,       -0.3814697266,        1.3122558594
1489456420.7598750591,1489456420.7621688843,       -0.7314453125,        0.1289062500,        0.0322265625,       -0.3662109375,       -0.4577636719,        1.3122558594
1489456420.7624421120,1489456420.7647340298,       -0.7314453125,        0.1289062500,        0.0322265625,       -0.3662109375,       -0.4577636719,        1.2664794922
1489456420.7650079727,1489456420.7672960758,       -0.7231445312,        0.1225585938,        0.0200195312,       -0.1220703125,       -0.2746582031,        1.2664794922
1489456420.7675709724,1489456420.7698750496,       -0.7231445312,        0.1225585938,        0.0200195312,       -0.1220703125,       -0.2746582031,        1.2664794922
1489456420.7701499462,1489456420.7724390030,       -0.7231445312,        0.1225585938,        0.0200195312,        0.1068115234,       -0.6866455078,        1.0375976562
1489456420.7727138996,1489456420.7750020027,       -0.7231445312,        0.1225585938,        0.0200195312,        0.1068115234,       -0.6866455078,        1.0375976562
1489456420.7752780914,1489456420.7775709629,       -0.7226562500,        0.1181640625,        0.0239257812,       -0.1373291016,       -0.7934570312,        0.8087158203
1489456420.7778480053,1489456420.7801899910,       -0.7226562500,        0.1181640625,        0.0239257812,       -0.1373291016,       -0.7934570312,        0.8087158203
1489456420.7804648876,1489456420.7827510834,       -0.7226562500,        0.1181640625,        0.0239257812,       -0.2136230469,       -0.1983642578,        0.6103515625
1489456420.7830269337,1489456420.7853140831,       -0.7226562500,        0.1181640625,        0.0239257812,       -0.2136230469,       -0.1983642578,        0.6103515625
1489456420.7855889797,1489456420.7878830433,       -0.7255859375,        0.1132812500,        0.0263671875,       -0.6256103516,       -0.0152587891,        0.3356933594
1489456420.7881579399,1489456420.7905559540,       -0.7255859375,        0.1132812500,        0.0263671875,       -0.6256103516,       -0.0152587891,        0.3356933594
1489456420.7908320427,1489456420.7931280136,       -0.7255859375,        0.1132812500,        0.0263671875,       -0.3051757812,       -0.1678466797,        0.8392333984
1489456420.7934029102,1489456420.7957000732,       -0.7255859375,        0.1132812500,        0.0263671875,       -0.3051757812,       -0.1678466797,        0.8392333984
1489456420.7960839272,1489456420.7983779907,       -0.7314453125,        0.1201171875,        0.0327148438,       -0.0762939453,        0.1220703125,        0.9460449219
1489456420.7986528873,1489456420.8012421131,       -0.7314453125,        0.1201171875,        0.0327148438,       -0.0762939453,        0.1220703125,        0.9460449219
1489456420.8015210629,1489456420.8038189411,       -0.7314453125,        0.1201171875,        0.0327148438,       -0.1068115234,        0.1373291016,        0.9307861328
1489456420.8040959835,1489456420.8063819408,       -0.7314453125,        0.1137695312,        0.0322265625,       -0.1068115234,        0.1373291016,        0.9307861328
1489456420.8066570759,1489456420.8090460300,       -0.7285156250,        0.1137695312,        0.0322265625,       -0.1068115234,        0.3662109375,        0.9765625000
1489456420.8093409538,1489456420.8116519451,       -0.7285156250,        0.1137695312,        0.0322265625,       -0.8087158203,        0.3662109375,        0.9765625000
1489456420.8119280338,1489456420.8142189980,       -0.7285156250,        0.1137695312,        0.0322265625,       -0.8087158203,        0.2746582031,        0.9765625000
1489456420.8150339127,1489456420.8173270226,       -0.7319335938,        0.1181640625,        0.0224609375,       -1.2664794922,        0.2746582031,        0.9765625000
1489456420.8176059723,1489456420.8199810982,       -0.7319335938,        0.1181640625,        0.0224609375,       -1.2664794922,        0.3662109375,        0.8697509766
1489456420.8202590942,1489456420.8225409985,       -0.7319335938,        0.1181640625,        0.0224609375,       -0.9613037109,        0.3662109375,        0.8697509766
1489456420.8228170872,1489456420.8251059055,       -0.7319335938,        0.1181640625,        0.0224609375,       -0.9613037109,        0.5645751953,        0.5950927734
1489456420.8253800869,1489456420.8276679516,       -0.7353515625,        0.1245117188,        0.0214843750,       -1.6784667969,        0.5645751953,        0.5950927734
1489456420.8279418945,1489456420.8302340508,       -0.7353515625,        0.1245117188,        0.0214843750,       -1.6784667969,        0.5645751953,        0.1220703125
1489456420.8305099010,1489456420.8327989578,       -0.7353515625,        0.1245117188,        0.0214843750,       -1.6021728516,        0.1983642578,        0.1220703125
1489456420.8330729008,1489456420.8353569508,       -0.7353515625,        0.1245117188,        0.0214843750,       -1.6021728516,        0.1983642578,       -3.7841796875
1489456420.8356299400,1489456420.8379230499,       -0.7314453125,        0.1215820312,        0.0234375000,       -1.5869140625,        0.1831054688,       -0.2288818359
1489456420.8381979465,1489456420.8405299187,       -0.7314453125,        0.1215820312,        0.0234375000,       -1.5869140625,        0.1831054688,       -0.2288818359
1489456420.8408050537,1489456420.8430900574,       -0.7314453125,        0.1215820312,        0.0234375000,       -1.3427734375,        0.1373291016,       -0.4730224609
1489456420.8433649540,1489456420.8456580639,       -0.7314453125,        0.1215820312,        0.0234375000,       -1.3427734375,        0.1373291016,       -0.4730224609
1489456420.8459329605,1489456420.8482370377,       -0.7314453125,        0.1269531250,        0.0234375000,       -1.4801025391,       -0.0305175781,       -1.0375976562
1489456420.8485140800,1489456420.8508939743,       -0.7314453125,        0.1269531250,        0.0234375000,       -1.4801025391,       -0.0305175781,       -1.0375976562
1489456420.8511669636,1489456420.8534579277,       -0.7314453125,        0.1269531250,        0.0234375000,       -1.0223388672,       -0.3356933594,       -1.3427734375
1489456420.8537309170,1489456420.8560171127,       -0.7314453125,        0.1269531250,        0.0234375000,       -1.0223388672,       -0.3356933594,       -1.3427734375
1489456420.8562920094,1489456420.8587028980,       -0.7250976562,        0.1254882812,        0.0278320312,       -0.9307861328,       -0.0305175781,       -1.7852783203
1489456420.8592710495,1489456420.8615670204,       -0.7250976562,        0.1254882812,        0.0278320312,       -0.9307861328,       -0.0305175781,       -1.7852783203
1489456420.8618419170,1489456420.8641350269,       -0.7250976562,        0.1254882812,        0.0278320312,       -0.9765625000,       -0.2746582031,       -2.3040771484
1489456420.8644080162,1489456420.8667058945,       -0.7250976562,        0.0004882812,        0.0268554688,       -0.9765625000,       -0.2746582031,       -2.3040771484
1489456420.8669800758,1489456420.8695890903,       -0.7250976562,        0.1230468750,        0.0268554688,       -0.7629394531,       -0.4882812500,       -2.6397705078
1489456420.8698821068,1489456420.8732860088,       -0.7250976562,        0.1230468750,        0.0268554688,       -0.7629394531,       -0.4882812500,       -2.6397705078
1489456420.8735780716,1489456420.8761410713,       -0.7250976562,        0.1230468750,        0.0268554688,       -0.8697509766,       -0.3814697266,       -2.8686523438
1489456420.8764250278,1489456420.8788509369,       -0.7187500000,        0.1210937500,        0.0249023438,       -0.8697509766,       -0.3814697266,       -2.8686523438
1489456420.8791339397,1489456420.8815519810,       -0.7187500000,        0.1210937500,        0.0249023438,       -1.1291503906,       -0.2441406250,       -3.0975341797
1489456420.8818359375,1489456420.8842511177,       -0.7187500000,        0.1210937500,        0.0249023438,       -1.1291503906,       -0.2441406250,       -3.0975341797
1489456420.8845329285,1489456420.8869459629,       -0.7187500000,        0.1210937500,        0.0249023438,       -1.5106201172,        0.2288818359,       -2.7008056641
1489456420.8872289658,1489456420.8896670341,       -0.7207031250,        0.1210937500,        0.0249023438,       -1.5106201172,        0.2288818359,       -2.7008056641
1489456420.8899469376,1489456420.8923599720,       -0.7207031250,        0.1210937500,        0.0249023438,       -1.3427734375,        0.3662109375,       -2.8076171875
1489456420.8926410675,1489456420.8950510025,       -0.7207031250,        0.1210937500,        0.0249023438,       -1.3427734375,        0.3662109375,       -2.8076171875
1489456420.8953320980,1489456420.8977489471,       -0.7265625000,        0.1196289062,        0.0239257812,       -1.4801025391,        0.1525878906,       -2.4414062500
1489456420.8980309963,1489456420.9004559517,       -0.7265625000,        0.1196289062,        0.0239257812,       -1.4801025391,        0.1525878906,       -2.4414062500
1489456420.9007380009,1489456420.9031569958,       -0.7265625000,        0.1196289062,        0.0239257812,       -1.6326904297,        0.1678466797,       -2.0904541016
1489456420.9034390450,1489456420.9058520794,       -0.7265625000,        0.1196289062,        0.0239257812,       -1.6326904297,        0.1678466797,       -2.0904541016
1489456420.9061329365,1489456420.9086270332,       -0.7353515625,        0.1142578125,        0.0341796875,       -1.5411376953,        0.0915527344,       -2.2583007812
1489456420.9089949131,1489456420.9113779068,       -0.7353515625,        0.1142578125,        0.0341796875,       -1.5411376953,        0.0915527344,       -2.2583007812
1489456420.9116580486,1489456420.9140429497,       -0.7353515625,        0.1142578125,        0.0341796875,       -1.4953613281,        0.1678466797,       -2.4719238281
1489456420.9150710106,1489456420.9173650742,       -0.7353515625,        0.1240234375,        0.0312500000,       -1.4953613281,        0.1678466797,       -2.8686523438
1489456420.9176449776,1489456420.9200079441,       -0.7343750000,        0.1240234375,        0.0312500000,       -1.2664794922,        0.7171630859,       -2.8686523438
1489456420.9202818871,1489456420.9225668907,       -0.7343750000,        0.1240234375,        0.0312500000,       -1.2664794922,        0.7171630859,       -2.7770996094
1489456420.9228410721,1489456420.9251270294,       -0.7343750000,        0.1240234375,        0.0312500000,       -1.4801025391,        0.3662109375,       -2.7770996094
1489456420.9255189896,1489456420.9278049469,       -0.7343750000,        0.1088867188,        0.0371093750,       -1.4801025391,        0.3662109375,       -2.7770996094
1489456420.9280788898,1489456420.9304080009,       -0.7377929688,        0.1088867188,        0.0371093750,       -1.3732910156,        0.4119873047,       -2.4719238281
1489456420.9306809902,1489456420.9329650402,       -0.7377929688,        0.1088867188,        0.0371093750,       -1.3732910156,        0.4119873047,       -2.4719238281
1489456420.9332399368,1489456420.9355270863,       -0.7377929688,        0.1088867188,        0.0371093750,       -1.1901855469,        0.1678466797,       -2.1362304688
1489456420.9358010292,1489456420.9380929470,       -0.7333984375,        0.1147460938,        0.0258789062,       -1.1901855469,        0.1678466797,       -2.1362304688
1489456420.9383680820,1489456420.9406659603,       -0.7333984375,        0.1147460938,        0.0258789062,       -1.3122558594,       -0.0762939453,       -2.1209716797
1489456420.9409420490,1489456420.9432320595,       -0.7333984375,        0.1147460938,        0.0258789062,       -1.3122558594,       -0.0762939453,       -2.1209716797
1489456420.9435069561,1489456420.9457950592,       -0.7333984375,        0.1147460938,        0.0258789062,       -1.2359619141,        0.2593994141,       -1.9378662109
1489456420.9460709095,1489456420.9483580589,       -0.7290039062,        0.1196289062,        0.0244140625,       -1.2359619141,        0.2593994141,       -1.9378662109
1489456420.9486320019,1489456420.9509580135,       -0.7290039062,        0.1196289062,        0.0244140625,       -1.6021728516,        0.8850097656,       -1.9226074219
1489456420.9512319565,1489456420.9535210133,       -0.7290039062,        0.1196289062,        0.0244140625,       -1.6021728516,        0.8850097656,       -1.9226074219
1489456420.9537940025,1489456420.9560770988,       -0.7290039062,        0.1196289062,        0.0244140625,       -0.9307861328,        0.2593994141,       -1.8310546875
1489456420.9563510418,1489456420.9586400986,       -0.7319335938,        0.1103515625,        0.0288085938,       -0.9307861328,        0.2593994141,       -1.8310546875
1489456420.9589869976,1489456420.9612879753,       -0.7319335938,        0.1103515625,        0.0288085938,       -0.9307861328,        0.3814697266,       -1.7852783203
1489456420.9615631104,1489456420.9638578892,       -0.7319335938,        0.1103515625,        0.0288085938,       -0.7934570312,        0.3814697266,       -1.7852783203
1489456420.9641320705,1489456420.9664280415,       -0.7319335938,        0.1103515625,        0.0288085938,       -0.7934570312,        0.3814697266,       -1.6937255859
1489456420.9667010307,1489456420.9691619873,       -0.7348632812,        0.1132812500,        0.0371093750,       -1.0070800781,        0.2899169922,       -1.6937255859
1489456420.9694480896,1489456420.9718680382,       -0.7348632812,        0.1132812500,        0.0371093750,       -1.0070800781,        0.2899169922,       -1.9073486328
1489456420.9721500874,1489456420.9745678902,       -0.7348632812,        0.1132812500,        0.0371093750,       -0.9460449219,        0.7019042969,       -1.9073486328
1489456420.9748508930,1489456420.9772660732,       -0.7348632812,        0.1132812500,        0.0371093750,       -0.9460449219,        0.7019042969,       -2.5787353516
1489456420.9775490761,1489456420.9799718857,       -0.7329101562,        0.1132812500,        0.0385742188,       -0.8544921875,        0.6256103516,       -2.5787353516
1489456420.9802529812,1489456420.9826729298,       -0.7329101562,        0.1132812500,        0.0385742188,       -0.8544921875,        0.6256103516,       -2.6092529297
1489456420.9829559326,1489456420.9853758812,       -0.7329101562,        0.1132812500,        0.0385742188,       -0.4425048828,        0.5950927734,       -2.6092529297
1489456420.9856579304,1489456420.9880759716,       -0.7329101562,        0.1132812500,        0.0292968750,       -0.4425048828,        0.5950927734,       -2.1362304688
1489456420.9884669781,1489456420.9908969402,       -0.7299804688,        0.1098632812,        0.0292968750,       -0.3204345703,        1.0375976562,       -2.1362304688
1489456420.9911789894,1489456420.9936010838,       -0.7299804688,        0.1098632812,        0.0292968750,       -0.3204345703,        1.0375976562,       -1.9531250000
1489456420.9938828945,1489456420.9962980747,       -0.7299804688,        0.1098632812,        0.0292968750,       -0.3814697266,        0.7171630859,       -1.9531250000
1489456420.9965798855,1489456420.9990429878,       -0.7314453125,        0.1176757812,        0.0283203125,       -0.3814697266,        0.7171630859,       -1.9836425781
1489456420.9993250370,1489456421.0017459393,       -0.7314453125,        0.1176757812,        0.0283203125,       -0.5035400391,        0.9002685547,       -1.9836425781
1489456421.0020279884,1489456421.0044460297,       -0.7314453125,        0.1176757812,        0.0283203125,       -0.5035400391,        0.9002685547,       -2.1820068359
1489456421.0047290325,1489456421.0072050095,       -0.7314453125,        0.1176757812,        0.0283203125,        0.0152587891,        0.5035400391,       -2.1820068359
1489456421.0074830055,1489456421.0099589825,       -0.7382812500,        0.1240234375,        0.0244140625,        0.0152587891,        0.5035400391,       -2.2277832031
1489456421.0102360249,1489456421.0125310421,       -0.7382812500,        0.1240234375,        0.0244140625,        0.0762939453,        0.3662109375,       -2.2277832031
1489456421.0128068924,1489456421.0154750347,       -0.7382812500,        0.1240234375,        0.0244140625,        0.0762939453,        0.3662109375,       -2.1057128906
1489456421.0157530308,1489456421.0180449486,       -0.7382812500,        0.1240234375,        0.0292968750,        0.7934570312,        0.2899169922,       -2.1057128906
1489456421.0183188915,1489456421.0207540989,       -0.7324218750,        0.1103515625,        0.0292968750,        0.7934570312,        0.2899169922,       -2.1362304688
1489456421.0210309029,1489456421.0233271122,       -0.7324218750,        0.1103515625,        0.0292968750,        0.6713867188,        0.1525878906,       -2.1362304688
1489456421.0236020088,1489456421.0258929729,       -0.7324218750,        0.1103515625,        0.0292968750,        0.6713867188,        0.1525878906,       -2.1362304688
1489456421.0261690617,1489456421.0284609795,       -0.7324218750,        0.1113281250,        0.0283203125,        0.7476806641,        0.0762939453,       -2.0751953125
1489456421.0287380219,1489456421.0310499668,       -0.7290039062,        0.1113281250,        0.0283203125,        0.7476806641,        0.0762939453,       -2.0751953125
1489456421.0313251019,1489456421.0336189270,       -0.7290039062,        0.1113281250,        0.0283203125,        0.5798339844,        0.1068115234,       -2.0904541016
1489456421.0338940620,1489456421.0361859798,       -0.7290039062,        0.1113281250,        0.0283203125,        0.5798339844,        0.1068115234,       -2.0904541016
1489456421.0364611149,1489456421.0387499332,       -0.7290039062,        0.1142578125,        0.0278320312,        0.8392333984,        0.2899169922,       -1.7395019531
1489456421.0390980244,1489456421.0413830280,       -0.7314453125,        0.1142578125,        0.0278320312,        0.8392333984,        0.2899169922,       -1.7395019531
1489456421.0416579247,1489456421.0439510345,       -0.7314453125,        0.1142578125,        0.0278320312,        0.6713867188,        0.4272460938,       -1.2512207031
1489456421.0442268848,1489456421.0465190411,       -0.7314453125,        0.1142578125,        0.0278320312,        0.6713867188,        0.4272460938,       -1.2512207031
1489456421.0467929840,1489456421.0491640568,       -0.7314453125,        0.1054687500,        0.0253906250,        1.0833740234,        0.1678466797,       -1.3885498047
1489456421.0494379997,1489456421.0517361164,       -0.7290039062,        0.1054687500,        0.0253906250,        1.0833740234,        0.1678466797,       -1.3885498047
1489456421.0521221161,1489456421.0544118881,       -0.7290039062,        0.1054687500,        0.0253906250,        0.7171630859,        0.1983642578,       -1.3885498047
1489456421.0546889305,1489456421.0569798946,       -0.7290039062,        0.1054687500,        0.0253906250,        0.7171630859,        0.1983642578,       -1.3885498047
1489456421.0572540760,1489456421.0597159863,       -0.7280273438,        0.1147460938,        0.0288085938,        0.7629394531,        0.6561279297,       -1.2969970703
1489456421.0599908829,1489456421.0622849464,       -0.7280273438,        0.1147460938,        0.0288085938,        0.7629394531,        0.6561279297,       -1.2969970703
1489456421.0625600815,1489456421.0648550987,       -0.7280273438,        0.1147460938,        0.0288085938,        0.7629394531,        0.7629394531,       -0.9460449219
1489456421.0651280880,1489456421.0674149990,       -0.7280273438,        0.1147460938,        0.0288085938,        0.5798339844,        0.7629394531,       -0.9460449219
1489456421.0676910877,1489456421.0701189041,       -0.7260742188,        0.1196289062,        0.0263671875,        0.5798339844,        0.8392333984,       -0.9765625000
1489456421.0703940392,1489456421.0726900101,       -0.7260742188,        0.1196289062,        0.0263671875,        0.0000000000,        0.8392333984,       -0.9765625000
1489456421.0729660988,1489456421.0752561092,       -0.7260742188,        0.1196289062,        0.0263671875,        0.0000000000,        0.8392333984,       -1.0070800781
1489456421.0755319595,1489456421.0778241158,       -0.7260742188,        0.1196289062,        0.0263671875,       -0.2136230469,        0.7629394531,       -1.0070800781
1489456421.0780999660,1489456421.0804479122,       -0.7221679688,        0.1113281250,        0.0332031250,       -0.2136230469,        0.7629394531,       -0.9460449219
1489456421.0807230473,1489456421.0830109119,       -0.7221679688,        0.1113281250,        0.0332031250,        0.0000000000,        1.3580322266,       -0.9460449219
1489456421.0832850933,1489456421.0855779648,       -0.7221679688,        0.1113281250,        0.0332031250,        0.0000000000,        1.3580322266,       -0.9460449219
1489456421.0858530998,1489456421.0881400108,       -0.7221679688,        0.1113281250,        0.0332031250,       -0.6713867188,        1.1749267578,       -1.0528564453
1489456421.0884139538,1489456421.0907490253,       -0.7211914062,        0.1157226562,        0.0302734375,       -0.6713867188,        1.1749267578,       -1.0528564453
1489456421.0910229683,1489456421.0933148861,       -0.7211914062,        0.1157226562,        0.0302734375,       -0.3814697266,        0.6561279297,       -1.1138916016
1489456421.0935900211,1489456421.0958778858,       -0.7211914062,        0.1157226562,        0.0302734375,       -0.3814697266,        0.6561279297,       -1.1138916016
1489456421.0961520672,1489456421.0984439850,       -0.7211914062,        0.1157226562,        0.0302734375,       -1.4038085938,        0.9460449219,       -1.2664794922
1489456421.0987179279,1489456421.1010110378,       -0.7158203125,        0.1240234375,        0.0244140625,       -1.4038085938,        0.9460449219,       -1.2664794922
1489456421.1012880802,1489456421.1035740376,       -0.7158203125,        0.1240234375,        0.0244140625,       -2.4871826172,        1.1901855469,       -1.6479492188
1489456421.1038479805,1489456421.1061410904,       -0.7158203125,        0.1240234375,        0.0244140625,       -2.4871826172,        1.1901855469,       -1.6479492188
1489456421.1064159870,1489456421.1089980602,       -0.7158203125,        0.1240234375,        0.0244140625,       -2.7618408203,        0.7476806641,       -1.5411376953
1489456421.1092739105,1489456421.1115629673,       -0.7265625000,        0.1181640625,        0.0292968750,       -2.7618408203,        0.7476806641,       -1.5411376953
1489456421.1118369102,1489456421.1141259670,       -0.7265625000,        0.1181640625,        0.0292968750,       -2.7770996094,        1.3580322266,       -1.7395019531
1489456421.1150538921,1489456421.1173450947,       -0.7265625000,        0.1181640625,        0.0292968750,       -2.7770996094,        1.3580322266,       -1.7395019531
1489456421.1176230907,1489456421.1199169159,       -0.7250976562,        0.1123046875,        0.0161132812,       -2.6245117188,        0.9307861328,       -1.7395019531
1489456421.1201949120,1489456421.1224770546,       -0.7250976562,        0.1123046875,        0.0161132812,       -2.6245117188,        0.9307861328,       -1.7395019531
1489456421.1227529049,1489456421.1250379086,       -0.7250976562,        0.1123046875,        0.0161132812,       -2.5939941406,        1.2969970703,       -1.5258789062
1489456421.1253108978,1489456421.1276009083,       -0.7250976562,        0.1123046875,        0.0161132812,       -2.5939941406,        1.2969970703,       -1.5258789062
1489456421.1278729439,1489456421.1302099228,       -0.7348632812,        0.1113281250,        0.0234375000,       -2.4871826172,        1.2054443359,       -1.4495849609
1489456421.1304829121,1489456421.1327750683,       -0.7348632812,        0.1113281250,        0.0234375000,       -2.4871826172,        1.2054443359,       -1.4495849609
1489456421.1330471039,1489456421.1353321075,       -0.7348632812,        0.1113281250,        0.0234375000,       -2.4871826172,        1.2054443359,       -1.2054443359
1489456421.1356039047,1489456421.1378951073,       -0.7348632812,        0.1113281250,        0.0234375000,       -2.6245117188,        1.2054443359,       -1.2054443359
1489456421.1381680965,1489456421.1404609680,       -0.7446289062,        0.1040039062,        0.0219726562,       -2.6245117188,        1.2054443359,       -0.7476806641
1489456421.1407339573,1489456421.1430239677,       -0.7446289062,        0.1040039062,        0.0219726562,       -2.6245117188,        1.2817382812,       -0.7476806641
1489456421.1432979107,1489456421.1455850601,       -0.7446289062,        0.1040039062,        0.0219726562,       -2.6245117188,        1.2817382812,       -0.7476806641
1489456421.1458590031,1489456421.1481480598,       -0.7446289062,        0.1040039062,        0.0219726562,       -2.6397705078,        1.0223388672,       -0.4730224609
1489456421.1484220028,1489456421.1507511139,       -0.7407226562,        0.1020507812,        0.0253906250,       -2.6397705078,        1.0223388672,       -0.4730224609
1489456421.1510279179,1489456421.1533160210,       -0.7407226562,        0.1020507812,        0.0253906250,       -2.3956298828,        1.0223388672,       -0.4272460938
1489456421.1535909176,1489456421.1558771133,       -0.7407226562,        0.1020507812,        0.0253906250,       -2.3956298828,        1.0223388672,       -0.4272460938
1489456421.1561520100,1489456421.1584389210,       -0.7407226562,        0.1020507812,        0.0253906250,       -2.2277832031,        1.2817382812,       -0.1678466797
1489456421.1587140560,1489456421.1610879898,       -0.7392578125,        0.1059570312,        0.0170898438,       -2.2277832031,        1.2817382812,       -0.1678466797
1489456421.1613628864,1489456421.1636550426,       -0.7392578125,        0.1059570312,        0.0170898438,       -2.3651123047,        0.9613037109,        0.0152587891
1489456421.1639299393,1489456421.1662189960,       -0.7392578125,        0.1059570312,        0.0170898438,       -2.3651123047,        0.9613037109,        0.0152587891
1489456421.1664929390,1489456421.1687829494,       -0.7392578125,        0.1059570312,        0.0170898438,       -2.1209716797,        0.8544921875,        0.2288818359
1489456421.1692268848,1489456421.1716411114,       -0.7358398438,        0.1079101562,        0.0224609375,       -2.1209716797,        0.8544921875,        0.2288818359
1489456421.1719241142,1489456421.1743409634,       -0.7358398438,        0.1079101562,        0.0224609375,       -1.8463134766,        0.7171630859,       -0.1220703125
1489456421.1746230125,1489456421.1770439148,       -0.7358398438,        0.1079101562,        0.0224609375,       -1.8463134766,        0.7171630859,       -0.1220703125
1489456421.1773281097,1489456421.1797530651,       -0.7358398438,        0.1079101562,        0.0292968750,       -1.2207031250,        0.5950927734,       -0.2288818359
1489456421.1801431179,1489456421.1825649738,       -0.7226562500,        0.1206054688,        0.0292968750,       -1.2207031250,        0.5950927734,       -0.2288818359
1489456421.1828470230,1489456421.1852641106,       -0.7226562500,        0.1206054688,        0.0292968750,       -0.8087158203,        0.5340576172,       -0.4730224609
1489456421.1855459213,1489456421.1879649162,       -0.7226562500,        0.1206054688,        0.0292968750,       -0.8087158203,        0.5340576172,       -0.4730224609
1489456421.1882460117,1489456421.1905848980,       -0.7226562500,        0.1186523438,        0.0214843750,       -0.1983642578,        1.1444091797,       -1.0681152344
1489456421.1908609867,1489456421.1931529045,       -0.7226562500,        0.1186523438,        0.0214843750,       -0.1983642578,        1.1444091797,       -1.0681152344
1489456421.1934289932,1489456421.1957221031,       -0.7226562500,        0.1186523438,        0.0214843750,       -0.0305175781,        1.0223388672,       -1.3427734375
1489456421.1959950924,1489456421.1982870102,       -0.7226562500,        0.1186523438,        0.0214843750,       -0.0305175781,        1.0223388672,       -1.3427734375
1489456421.1985599995,1489456421.2008559704,       -0.7246093750,        0.1250000000,        0.0244140625,        3.8757324219,        0.9613037109,       -1.4038085938
1489456421.2011299133,1489456421.2034239769,       -0.7246093750,        0.1250000000,        0.0244140625,        0.2899169922,        0.9613037109,       -1.4038085938
1489456421.2036969662,1489456421.2059819698,       -0.7246093750,        0.1250000000,        0.0244140625,        0.2899169922,        0.9613037109,       -1.4801025391
1489456421.2062559128,1489456421.2085399628,       -0.7246093750,        0.1250000000,        0.0244140625,        0.1525878906,        0.6561279297,       -1.4801025391
1489456421.2088749409,1489456421.2112569809,       -0.7314453125,        0.1230468750,        0.0068359375,        0.1525878906,        0.6561279297,       -2.1514892578
1489456421.2115330696,1489456421.2138829231,       -0.7314453125,        0.1230468750,        0.0068359375,        0.0457763672,        1.1596679688,       -2.1514892578
1489456421.2141559124,1489456421.2164499760,       -0.7314453125,        0.1230468750,        0.0068359375,        0.0457763672,        1.1596679688,       -2.1514892578
1489456421.2167239189,1489456421.2190730572,       -0.7314453125,        0.1230468750,        0.0068359375,       -1.4190673828,        1.6784667969,       -2.3803710938
1489456421.2193460464,1489456421.2216320038,       -0.7324218750,        0.1157226562,        0.0195312500,       -1.4190673828,        1.6784667969,       -2.3803710938
1489456421.2219049931,1489456421.2241981030,       -0.7324218750,        0.1157226562,        0.0195312500,       -3.1585693359,        1.9836425781,       -2.2125244141
1489456421.2244720459,1489456421.2268459797,       -0.7324218750,        0.1157226562,        0.0195312500,       -3.1585693359,        1.9836425781,       -2.2125244141
1489456421.2271220684,1489456421.2300729752,       -0.7324218750,        0.1157226562,        0.0195312500,       -4.4097900391,        1.3732910156,       -1.9836425781
1489456421.2303509712,1489456421.2326428890,       -0.7402343750,        0.1025390625,        0.0185546875,       -4.4097900391,        1.3732910156,       -1.9836425781
1489456421.2329170704,1489456421.2352030277,       -0.7402343750,        0.1025390625,        0.0185546875,       -4.7149658203,        1.0681152344,       -1.1749267578
1489456421.2354750633,1489456421.2377600670,       -0.7402343750,        0.1025390625,        0.0185546875,       -4.7149658203,        1.0681152344,       -1.1749267578
1489456421.2380340099,1489456421.2403709888,       -0.7402343750,        0.1025390625,        0.0263671875,       -4.6386718750,        0.5340576172,       -0.8850097656
1489456421.2406458855,1489456421.2429358959,       -0.7416992188,        0.0937500000,        0.0263671875,       -4.6386718750,        0.5340576172,       -0.8850097656
1489456421.2433168888,1489456421.2456049919,       -0.7416992188,        0.0937500000,        0.0263671875,       -5.5999755859,        0.8087158203,       -0.2746582031
1489456421.2458789349,1489456421.2481648922,       -0.7416992188,        0.0937500000,        0.0263671875,       -5.5999755859,        0.8087158203,       -0.2746582031
1489456421.2484400272,1489456421.2508029938,       -0.7416992188,        0.0864257812,        0.0346679688,       -7.5073242188,        1.1596679688,        0.3662109375
1489456421.2510790825,1489456421.2533690929,       -0.7333984375,        0.0864257812,        0.0346679688,       -7.5073242188,        1.1596679688,        0.3662109375
1489456421.2536439896,1489456421.2559270859,       -0.7333984375,        0.0864257812,        0.0346679688,       -7.4768066406,        1.3122558594,        1.1444091797
1489456421.2562010288,1489456421.2584900856,       -0.7333984375,        0.0864257812,        0.0346679688,       -7.4768066406,        1.3122558594,        1.1444091797
1489456421.2587618828,1489456421.2610509396,       -0.7333984375,        0.0893554688,        0.0346679688,       -6.3476562500,        1.6632080078,        1.9378662109
1489456421.2613239288,1489456421.2636110783,       -0.7324218750,        0.0893554688,        0.0346679688,       -6.3476562500,        1.6632080078,        1.9378662109
1489456421.2638819218,1489456421.2661681175,       -0.7324218750,        0.0893554688,        0.0346679688,       -6.3476562500,        1.8920898438,        2.6245117188
1489456421.2664389610,1489456421.2687230110,       -0.7324218750,        0.0893554688,        0.0346679688,       -5.7220458984,        1.8920898438,        2.6245117188
1489456421.2690579891,1489456421.2713479996,       -0.7392578125,        0.0898437500,        0.0429687500,       -5.7220458984,        1.8920898438,        2.3193359375
1489456421.2716209888,1489456421.2739090919,       -0.7392578125,        0.0898437500,        0.0429687500,       -5.3253173828,        2.0599365234,        2.3193359375
1489456421.2741808891,1489456421.2764739990,       -0.7392578125,        0.0898437500,        0.0429687500,       -5.3253173828,        2.0599365234,        2.6855468750
1489456421.2767460346,1489456421.2791779041,       -0.7392578125,        0.0898437500,        0.0429687500,       -5.3710937500,        2.1820068359,        2.6855468750
1489456421.2794499397,1489456421.2817409039,       -0.7397460938,        0.0971679688,        0.0249023438,       -5.3710937500,        2.1820068359,        2.6855468750
1489456421.2820160389,1489456421.2842938900,       -0.7397460938,        0.0971679688,        0.0249023438,       -5.2337646484,        2.5482177734,        3.4637451172
1489456421.2845690250,1489456421.2868530750,       -0.7397460938,        0.0971679688,        0.0249023438,       -5.2337646484,        2.5482177734,        3.4637451172
1489456421.2871251106,1489456421.2895610332,       -0.7397460938,        0.0971679688,        0.0249023438,       -4.8217773438,        2.8533935547,        4.1961669922
1489456421.2898340225,1489456421.2921268940,       -0.7421875000,        0.1054687500,        0.0332031250,       -4.8217773438,        2.8533935547,        4.1961669922
1489456421.2924010754,1489456421.2946898937,       -0.7421875000,        0.1054687500,        0.0332031250,       -4.5623779297,        3.5095214844,        4.4097900391
1489456421.2949628830,1489456421.2972509861,       -0.7421875000,        0.1054687500,        0.0332031250,       -4.5623779297,        3.5095214844,        4.4097900391
1489456421.2975239754,1489456421.2998819351,       -0.7421875000,        0.1054687500,        0.0332031250,       -5.5999755859,        4.3029785156,        5.2642822266
1489456421.3001620770,1489456421.3025801182,       -0.7377929688,        0.0986328125,        0.0424804688,       -5.5999755859,        4.3029785156,        5.2642822266
1489456421.3028600216,1489456421.3052780628,       -0.7377929688,        0.0986328125,        0.0424804688,       -6.7749023438,        4.9896240234,        6.2255859375
1489456421.3056659698,1489456421.3080790043,       -0.7377929688,        0.0986328125,        0.0424804688,       -6.7749023438,        4.9896240234,        6.2255859375
1489456421.3083579540,1489456421.3107819557,       -0.7377929688,        0.0986328125,        0.0424804688,       -9.0179443359,        5.3863525391,        6.9274902344
1489456421.3110630512,1489456421.3134849072,       -0.7456054688,        0.0839843750,        0.0400390625,       -9.0179443359,        5.3863525391,        6.9274902344
1489456421.3137660027,1489456421.3161621094,       -0.7456054688,        0.0839843750,        0.0400390625,      -10.7727050781,        6.0272216797,        8.0718994141
1489456421.3164429665,1489456421.3187348843,       -0.7456054688,        0.0839843750,        0.0400390625,      -10.7727050781,        6.0272216797,        8.0718994141
1489456421.3192238808,1489456421.3216040134,       -0.7456054688,        0.0903320312,        0.0244140625,      -10.3149414062,        6.2561035156,        9.5062255859
1489456421.3218879700,1489456421.3242650032,       -0.7602539062,        0.0903320312,        0.0244140625,      -10.3149414062,        6.2561035156,        9.5062255859
1489456421.3245890141,1489456421.3272860050,       -0.7602539062,        0.0903320312,        0.0244140625,      -10.0708007812,        6.2561035156,       11.2609863281
1489456421.3275730610,1489456421.3299469948,       -0.7602539062,        0.0903320312,        0.0244140625,      -10.0708007812,        6.2561035156,       11.2609863281
1489456421.3302299976,1489456421.3325231075,       -0.7626953125,        0.1010742188,        0.0180664062,       -7.9650878906,        6.6986083984,       13.1683349609
1489456421.3328020573,1489456421.3350939751,       -0.7626953125,        0.1010742188,        0.0180664062,       -7.9650878906,        6.6986083984,       13.1683349609
1489456421.3353700638,1489456421.3376569748,       -0.7626953125,        0.1010742188,        0.0180664062,       -4.8065185547,        6.4392089844,       15.6860351562
1489456421.3379349709,1489456421.3402340412,       -0.7626953125,        0.1010742188,        0.0180664062,       -4.8065185547,        6.4392089844,       15.6860351562
1489456421.3405120373,1489456421.3427948952,       -0.7685546875,        0.1040039062,        0.0322265625,       -2.3956298828,        7.1563720703,       18.5699462891
1489456421.3430728912,1489456421.3453590870,       -0.7685546875,        0.1040039062,        0.0322265625,       -2.3956298828,        7.1563720703,       18.5699462891
1489456421.3456389904,1489456421.3479270935,       -0.7685546875,        0.1040039062,        0.0322265625,       -1.3427734375,        8.7585449219,       21.4843750000
1489456421.3482060432,1489456421.3505458832,       -0.7685546875,        0.1040039062,        0.0322265625,       -1.3427734375,        8.7585449219,       21.4843750000
1489456421.3508241177,1489456421.3531119823,       -0.7827148438,        0.0844726562,        0.0581054688,       -1.3427734375,        9.2010498047,       25.6042480469
1489456421.3533899784,1489456421.3556768894,       -0.7827148438,        0.0844726562,        0.0581054688,        1.0681152344,        9.2010498047,       25.6042480469
1489456421.3559539318,1489456421.3582379818,       -0.7827148438,        0.0844726562,        0.0581054688,        1.0681152344,        9.2010498047,       30.8685302734
1489456421.3585159779,1489456421.3608860970,       -0.7827148438,        0.0844726562,        0.0581054688,        4.8370361328,        9.5367431641,       30.8685302734
1489456421.3611650467,1489456421.3634490967,       -0.7792968750,        0.0473632812,        0.0629882812,        4.8370361328,        9.5367431641,       36.1785888672
1489456421.3637249470,1489456421.3660058975,       -0.7792968750,        0.0473632812,        0.0629882812,        8.1787109375,       10.5133056641,       36.1785888672
1489456421.3662869930,1489456421.3685729504,       -0.7792968750,        0.0473632812,        0.0629882812,        8.1787109375,       10.5133056641,       36.1785888672
1489456421.3689939976,1489456421.3712880611,       -0.7792968750,        0.0473632812,        0.0629882812,       10.6964111328,       11.6271972656,       42.6483154297
1489456421.3715751171,1489456421.3738598824,       -0.7851562500,       -0.0087890625,        0.0913085938,       10.6964111328,       11.6271972656,       42.6483154297
1489456421.3741440773,1489456421.3764390945,       -0.7851562500,       -0.0087890625,        0.0913085938,       10.9710693359,       12.8021240234,       50.3540039062
1489456421.3767249584,1489456421.3791570663,       -0.7851562500,       -0.0087890625,        0.0913085938,       10.9710693359,       12.8021240234,       50.3540039062
1489456421.3794419765,1489456421.3817350864,       -0.7851562500,       -0.0087890625,        0.0708007812,        9.2620849609,       13.5345458984,       57.7545166016
1489456421.3820168972,1489456421.3843090534,       -0.8095703125,       -0.0551757812,        0.0708007812,        9.2620849609,       13.5345458984,       57.7545166016
1489456421.3845920563,1489456421.3868830204,       -0.8095703125,       -0.0551757812,        0.0708007812,        6.7901611328,       14.2669677734,       66.1773681641
1489456421.3871641159,1489456421.3895111084,       -0.8095703125,       -0.0551757812,        0.0708007812,        6.7901611328,       14.2669677734,       66.1773681641
1489456421.3897991180,1489456421.3922109604,       -0.8095703125,       -0.0351562500,        0.0458984375,        5.5084228516,       13.6260986328,       75.3784179688
1489456421.3925020695,1489456421.3949179649,       -0.8344726562,       -0.0351562500,        0.0458984375,        5.5084228516,       13.6260986328,       75.3784179688
1489456421.3952069283,1489456421.3976249695,       -0.8344726562,       -0.0351562500,        0.0458984375,        3.0059814453,       11.6119384766,       84.8693847656
1489456421.3979129791,1489456421.4003369808,       -0.8344726562,       -0.0351562500,        0.0458984375,        3.0059814453,       11.6119384766,       84.8693847656
1489456421.4006249905,1489456421.4030449390,       -0.8012695312,       -0.0791015625,        0.0009765625,       -1.4343261719,        9.1094970703,       93.6279296875
1489456421.4033319950,1489456421.4057459831,       -0.8012695312,       -0.0791015625,        0.0009765625,       -1.4343261719,        9.1094970703,       93.6279296875
1489456421.4060330391,1489456421.4084529877,       -0.8012695312,       -0.0791015625,        0.0009765625,       -9.4604492188,        4.5013427734,      100.6164550781
1489456421.4087390900,1489456421.4111540318,       -0.8012695312,       -0.0791015625,        0.0009765625,       -9.4604492188,        4.5013427734,      100.6164550781
1489456421.4114398956,1489456421.4138538837,       -0.7485351562,       -0.1313476562,        0.0053710938,      -20.1873779297,        0.2899169922,      105.7128906250
1489456421.4141440392,1489456421.4166450500,       -0.7485351562,       -0.1313476562,        0.0053710938,      -20.1873779297,        0.2899169922,      105.7128906250
1489456421.4169321060,1489456421.4193971157,       -0.7485351562,       -0.1313476562,        0.0053710938,      -26.4434814453,       -4.4250488281,      108.2305908203
1489456421.4196860790,1489456421.4220650196,       -0.7485351562,       -0.1313476562,       -0.0439453125,      -26.4434814453,       -4.4250488281,      108.2305908203
1489456421.4223508835,1489456421.4249010086,       -0.7836914062,        0.0395507812,       -0.0439453125,      -29.2053222656,       -8.1787109375,      108.2000732422
1489456421.4252049923,1489456421.4275889397,       -0.7836914062,        0.0395507812,       -0.0439453125,      -29.2053222656,       -8.1787109375,      108.2000732422
1489456421.4278750420,1489456421.4302508831,       -0.7836914062,        0.0395507812,       -0.0439453125,      -28.8543701172,      -10.4064941406,      106.9641113281
1489456421.4305379391,1489456421.4328279495,       -0.7836914062,        0.2524414062,       -0.1416015625,      -28.8543701172,      -10.4064941406,      106.9641113281
1489456421.4332249165,1489456421.4355130196,       -0.8388671875,        0.2524414062,       -0.1416015625,      -27.5878906250,      -11.9323730469,      107.6660156250
1489456421.4357988834,1489456421.4380860329,       -0.8388671875,        0.2524414062,       -0.1416015625,      -27.5878906250,      -11.9323730469,      107.6660156250
1489456421.4383718967,1489456421.4406650066,       -0.8388671875,        0.2524414062,       -0.1416015625,      -26.1535644531,      -12.7716064453,      107.8033447266
1489456421.4409499168,1489456421.4432361126,       -0.8247070312,        0.2529296875,       -0.2041015625,      -26.1535644531,      -12.7716064453,      107.8033447266
1489456421.4435200691,1489456421.4458069801,       -0.8247070312,        0.2529296875,       -0.2041015625,      -22.2473144531,      -13.0310058594,      107.5897216797
1489456421.4460909367,1489456421.4483830929,       -0.8247070312,        0.2529296875,       -0.2041015625,      -22.8881835938,      -13.0310058594,      107.5897216797
1489456421.4486670494,1489456421.4509739876,       -0.8247070312,        0.2529296875,       -0.2041015625,      -22.8881835938,      -13.0310058594,      107.0861816406
1489456421.4512579441,1489456421.4535429478,       -0.7475585938,        0.2153320312,       -0.0927734375,      -19.2718505859,      -14.4348144531,      107.0861816406
1489456421.4538280964,1489456421.4561150074,       -0.7475585938,        0.2153320312,       -0.0927734375,      -19.2718505859,      -14.4348144531,      104.3548583984
1489456421.4563999176,1489456421.4586889744,       -0.7475585938,        0.2153320312,       -0.0927734375,      -13.5040283203,      -15.0604248047,      104.3548583984
1489456421.4589729309,1489456421.4612610340,       -0.7475585938,        0.2153320312,       -0.0927734375,      -13.5040283203,      -15.0604248047,      100.4486083984
1489456421.4615459442,1489456421.4638309479,       -0.8090820312,        0.1962890625,       -0.1035156250,       -5.4779052734,      -12.0544433594,      100.9216308594
1489456421.4641120434,1489456421.4664061069,       -0.8090820312,        0.1962890625,       -0.1035156250,       -5.4779052734,      -12.0544433594,      100.9216308594
1489456421.4666879177,1489456421.4691510201,       -0.8090820312,        0.1962890625,       -0.1035156250,       -1.9836425781,       -8.6059570312,       97.0001220703
1489456421.4694321156,1489456421.4717280865,       -0.8090820312,        0.1962890625,       -0.1035156250,       -1.9836425781,       -8.6059570312,       97.0001220703
1489456421.4720089436,1489456421.4743020535,       -0.7866210938,        0.2631835938,       -0.1425781250,       -3.2196044922,       -5.8441162109,       93.4295654297
1489456421.4745790958,1489456421.4768710136,       -0.7866210938,        0.2631835938,       -0.1425781250,       -3.2196044922,       -5.8441162109,       93.4295654297
1489456421.4771480560,1489456421.4795489311,       -0.7866210938,        0.2631835938,       -0.1425781250,       -6.9885253906,       -3.1433105469,       92.1173095703
1489456421.4798278809,1489456421.4821259975,       -0.7866210938,        0.2631835938,       -0.1425781250,       -6.9885253906,       -3.1433105469,       92.1173095703
1489456421.4824020863,1489456421.4846980572,       -0.7065429688,        0.3120117188,       -0.0834960938,      -11.8255615234,       -1.0223388672,       91.3391113281
1489456421.4849810600,1489456421.4872829914,       -0.7065429688,        0.3120117188,       -0.0834960938,      -11.8255615234,       -1.0223388672,       91.3391113281
1489456421.4875650406,1489456421.4899280071,       -0.7065429688,        0.3120117188,       -0.0834960938,      -15.1824951172,        0.3509521484,       90.0573730469
1489456421.4902200699,1489456421.4926369190,       -0.7065429688,        0.3120117188,       -0.0834960938,      -15.1824951172,        0.3509521484,       90.0573730469
1489456421.4929270744,1489456421.4953379631,       -0.5581054688,        0.2963867188,       -0.0283203125,      -16.2658691406,        1.9226074219,       89.2028808594
1489456421.4957370758,1489456421.4981510639,       -0.5581054688,        0.2963867188,       -0.0283203125,      -16.2658691406,        1.9226074219,       89.2028808594
1489456421.4984409809,1489456421.5008659363,       -0.5581054688,        0.2963867188,       -0.0283203125,      -15.7165527344,        2.8076171875,       88.5925292969
1489456421.5011579990,1489456421.5035710335,       -0.4331054688,        0.3564453125,       -0.0175781250,      -15.7165527344,        2.8076171875,       88.5925292969
1489456421.5038599968,1489456421.5062749386,       -0.4111328125,        0.3564453125,       -0.0175781250,      -14.9688720703,        2.9449462891,       88.6840820312
1489456421.5065650940,1489456421.5090150833,       -0.4111328125,        0.3564453125,       -0.0175781250,      -14.9688720703,        2.9449462891,       88.6840820312
1489456421.5093040466,1489456421.5117180347,       -0.4111328125,        0.3564453125,       -0.0175781250,      -15.2740478516,        3.3264160156,       88.4857177734
1489456421.5120069981,1489456421.5144259930,       -0.3266601562,        0.3647460938,        0.0185546875,      -15.2740478516,        3.3264160156,       88.4857177734
1489456421.5147171021,1489456421.5171360970,       -0.3266601562,        0.3647460938,        0.0185546875,      -18.6004638672,        2.3345947266,       86.4715576172
1489456421.5174260139,1489456421.5200150013,       -0.3266601562,        0.3647460938,        0.0185546875,      -18.6004638672,        2.3345947266,       86.4715576172
1489456421.5203039646,1489456421.5226910114,       -0.3266601562,        0.3647460938,        0.0185546875,      -23.5595703125,        0.7934570312,       84.1827392578
1489456421.5229780674,1489456421.5256381035,       -0.2470703125,        0.3500976562,        0.0805664062,      -23.5595703125,        0.7934570312,       84.1827392578
1489456421.5259239674,1489456421.5282158852,       -0.2470703125,        0.3500976562,        0.0805664062,      -28.1219482422,       -1.5563964844,       83.0078125000
1489456421.5284979343,1489456421.5308799744,       -0.2470703125,        0.3500976562,        0.0805664062,      -28.1219482422,       -1.5563964844,       83.0078125000
1489456421.5311648846,1489456421.5334529877,       -0.2470703125,        0.4174804688,        0.1308593750,      -32.9742431641,       -4.6539306641,       82.4584960938
1489456421.5337340832,1489456421.5360209942,       -0.1982421875,        0.4174804688,        0.1308593750,      -32.9742431641,       -4.6539306641,       82.4584960938
1489456421.5363030434,1489456421.5385880470,       -0.1982421875,        0.4174804688,        0.1308593750,      -35.8581542969,       -7.9498291016,       80.6732177734
1489456421.5388669968,1489456421.5411570072,       -0.1982421875,        0.4174804688,        0.1308593750,      -35.8581542969,       -7.9498291016,       80.6732177734
1489456421.5414381027,1489456421.5437290668,       -0.1982421875,        0.4287109375,        0.1972656250,      -35.8581542969,       -9.9029541016,       76.9653320312
1489456421.5440099239,1489456421.5462989807,       -0.2041015625,        0.4287109375,        0.1972656250,      -36.8652343750,       -9.9029541016,       76.9653320312
1489456421.5465788841,1489456421.5488779545,       -0.2041015625,        0.4287109375,        0.1972656250,      -36.8652343750,      -13.8092041016,       74.3103027344
1489456421.5491609573,1489456421.5514481068,       -0.2041015625,        0.4287109375,        0.1972656250,      -37.3229980469,      -12.7563476562,       74.3103027344
1489456421.5517339706,1489456421.5540170670,       -0.2041015625,        0.3730468750,        0.2182617188,      -37.3229980469,      -12.7563476562,       71.7163085938
1489456421.5543019772,1489456421.5565910339,       -0.2016601562,        0.3730468750,        0.2182617188,      -35.9649658203,      -16.4337158203,       71.7163085938
1489456421.5568759441,1489456421.5592238903,       -0.2016601562,        0.3730468750,        0.2182617188,      -35.9649658203,      -16.4337158203,       67.8100585938
1489456421.5596170425,1489456421.5619080067,       -0.2016601562,        0.3730468750,        0.2182617188,      -30.1666259766,      -20.4162597656,       68.2678222656
1489456421.5621919632,1489456421.5644800663,       -0.2421875000,        0.3315429688,        0.2534179688,      -30.1666259766,      -20.4162597656,       68.2678222656
1489456421.5647640228,1489456421.5670540333,       -0.2421875000,        0.3315429688,        0.2534179688,      -20.4162597656,      -26.7944335938,       63.8427734375
1489456421.5673370361,1489456421.5697460175,       -0.2421875000,        0.3315429688,        0.2534179688,      -20.4162597656,      -26.7944335938,       63.8427734375
1489456421.5700290203,1489456421.5723130703,       -0.2421875000,        0.3315429688,        0.2534179688,       -8.8806152344,      -31.3415527344,       60.2874755859
1489456421.5725939274,1489456421.5748829842,       -0.3950195312,        0.2622070312,        0.2578125000,       -8.8806152344,      -31.3415527344,       60.2874755859
1489456421.5751628876,1489456421.5774509907,       -0.3950195312,        0.2622070312,        0.2578125000,        2.6550292969,      -34.7137451172,       57.8155517578
1489456421.5777320862,1489456421.5801279545,       -0.3950195312,        0.2622070312,        0.2578125000,        2.6550292969,      -34.7137451172,       57.8155517578
1489456421.5804131031,1489456421.5826981068,       -0.3950195312,        0.2622070312,        0.2578125000,       11.2457275391,      -39.8559570312,       56.7779541016
1489456421.5829839706,1489456421.5852689743,       -0.4238281250,        0.2612304688,        0.2954101562,       11.2457275391,      -39.8559570312,       56.7779541016
1489456421.5855529308,1489456421.5878469944,       -0.4238281250,        0.2612304688,        0.2954101562,       20.2636718750,      -44.4488525391,       55.0537109375
1489456421.5881299973,1489456421.5904200077,       -0.4238281250,        0.2612304688,        0.2954101562,       20.2636718750,      -44.4488525391,       55.0537109375
1489456421.5907061100,1489456421.5929958820,       -0.4238281250,        0.2612304688,        0.2954101562,       33.6914062500,      -44.4641113281,       50.0030517578
1489456421.5932810307,1489456421.5955710411,       -0.8833007812,        0.5590820312,        0.1806640625,       33.6914062500,      -44.4641113281,       50.0030517578
1489456421.5958549976,1489456421.5981450081,       -0.8833007812,        0.5590820312,        0.1806640625,       45.4101562500,      -37.7349853516,       45.4101562500
1489456421.5984280109,1489456421.6008780003,       -0.8833007812,        0.5590820312,        0.1806640625,       45.4254150391,      -37.7349853516,       45.4101562500
1489456421.6011700630,1489456421.6035840511,       -0.8833007812,        0.5590820312,       -0.5693359375,       45.4254150391,      -27.0538330078,       45.9136962891
1489456421.6038789749,1489456421.6062960625,       -1.6582031250,        0.5810546875,       -0.5434570312,       45.8984375000,      -27.0538330078,       45.9136962891
1489456421.6065869331,1489456421.6090469360,       -1.6582031250,        0.5810546875,       -0.5434570312,       45.8984375000,      -20.5535888672,       50.4455566406
1489456421.6093370914,1489456421.6117589474,       -1.6582031250,        0.5810546875,       -0.5434570312,       43.6859130859,      -20.5535888672,       50.4455566406
1489456421.6120491028,1489456421.6144669056,       -1.6582031250,        0.1962890625,       -0.6313476562,       43.6859130859,      -18.2952880859,       54.3975830078
1489456421.6147561073,1489456421.6171710491,       -1.7382812500,        0.1962890625,       -0.6313476562,       36.5600585938,      -18.2952880859,       54.3975830078
1489456421.6174609661,1489456421.6198840141,       -1.7382812500,        0.1962890625,       -0.6313476562,       36.5600585938,      -17.7307128906,       64.0411376953
1489456421.6201748848,1489456421.6227529049,       -1.7382812500,        0.1962890625,       -0.6313476562,       25.0244140625,      -17.7307128906,       64.0411376953
1489456421.6231551170,1489456421.6255691051,       -0.8447265625,        0.1186523438,        0.1621093750,       13.3056640625,      -17.8680419922,       70.8618164062
1489456421.6258630753,1489456421.6282770634,       -0.8447265625,        0.1186523438,        0.1621093750,       14.6636962891,      -17.8680419922,       70.8618164062
1489456421.6285700798,1489456421.6310338974,       -0.8447265625,        0.1186523438,        0.1621093750,        9.3078613281,      -21.7132568359,       74.8443603516
1489456421.6313240528,1489456421.6337430477,       -0.8447265625,        0.1186523438,        0.1621093750,        9.3078613281,      -21.7132568359,       74.8443603516
1489456421.6340329647,1489456421.6365380287,       -0.4306640625,        0.4809570312,        0.5175781250,       14.2517089844,      -26.0314941406,       72.0214843750
1489456421.6368310452,1489456421.6392428875,       -0.4306640625,        0.4809570312,        0.5175781250,       14.2517089844,      -26.0314941406,       72.0214843750
1489456421.6403160095,1489456421.6426069736,       -0.4306640625,        0.4809570312,        0.5175781250,       25.9399414062,      -31.8603515625,       65.8264160156
1489456421.6428909302,1489456421.6451780796,       -0.5551757812,        0.5068359375,        0.2231445312,       25.9399414062,      -31.8603515625,       65.8264160156
1489456421.6454620361,1489456421.6477599144,       -0.5551757812,        0.5068359375,        0.2231445312,       32.6843261719,      -33.9202880859,       60.6536865234
1489456421.6480419636,1489456421.6504170895,       -0.5551757812,        0.5068359375,        0.2231445312,       32.6843261719,      -33.9202880859,       60.6536865234
1489456421.6507010460,1489456421.6529910564,       -0.5551757812,        0.5068359375,        0.2231445312,       33.7066650391,      -31.0668945312,       57.1289062500
1489456421.6532769203,1489456421.6555659771,       -0.7973632812,        0.5170898438,       -0.0175781250,       33.7066650391,      -31.0668945312,       57.1289062500
1489456421.6558499336,1489456421.6581389904,       -0.7973632812,        0.5170898438,       -0.0175781250,       33.7066650391,      -27.3437500000,       55.4351806641
1489456421.6584219933,1489456421.6607570648,       -0.7973632812,        0.5170898438,       -0.0175781250,       33.1573486328,      -27.3437500000,       55.4351806641
1489456421.6610410213,1489456421.6633319855,       -0.7973632812,        0.5170898438,       -0.0175781250,       33.1573486328,      -27.0233154297,       53.2989501953
1489456421.6636168957,1489456421.6659049988,       -0.6772460938,        0.5419921875,       -0.0361328125,       32.3181152344,      -27.0233154297,       53.2989501953
1489456421.6661911011,1489456421.6684811115,       -0.6772460938,        0.5419921875,       -0.0361328125,       32.3181152344,      -27.0233154297,       48.6450195312
1489456421.6687650681,1489456421.6710610390,       -0.6772460938,        0.5419921875,       -0.0361328125,       31.4788818359,      -26.8249511719,       48.6450195312
1489456421.6713469028,1489456421.6736319065,       -0.6772460938,        0.5419921875,       -0.0361328125,       31.4788818359,      -26.8249511719,       44.7387695312
1489456421.6739161015,1489456421.6762070656,       -0.6718750000,        0.5239257812,       -0.0224609375,       29.0985107422,      -26.0620117188,       44.9066162109
1489456421.6764919758,1489456421.6787819862,       -0.6718750000,        0.5239257812,       -0.0224609375,       29.0985107422,      -26.0620117188,       44.9066162109
1489456421.6791288853,1489456421.6814160347,       -0.6718750000,        0.5239257812,       -0.0224609375,       23.6816406250,      -26.3061523438,       41.9006347656
1489456421.6817009449,1489456421.6839890480,       -0.6718750000,        0.5239257812,       -0.0224609375,       23.6816406250,      -26.3061523438,       41.9006347656
1489456421.6842730045,1489456421.6865611076,       -0.6811523438,        0.5185546875,        0.0048828125,       18.0969238281,      -25.4974365234,       39.1693115234
1489456421.6869690418,1489456421.6893780231,       -0.6811523438,        0.5185546875,        0.0048828125,       18.0969238281,      -25.4974365234,       39.1693115234
1489456421.6896629333,1489456421.6919550896,       -0.6811523438,        0.5185546875,        0.0048828125,       13.6566162109,      -23.4985351562,       36.5142822266
1489456421.6922409534,1489456421.6945281029,       -0.6811523438,        0.5185546875,       -0.1201171875,       13.6566162109,      -23.4985351562,       36.5142822266
1489456421.6948139668,1489456421.6971070766,       -0.6313476562,        0.4892578125,       -0.0419921875,        8.3465576172,      -21.6674804688,       35.0341796875
1489456421.6973900795,1489456421.6997690201,       -0.6313476562,        0.4892578125,       -0.0419921875,        8.3465576172,      -21.6674804688,       35.0341796875
1489456421.7000520229,1489456421.7023398876,       -0.6313476562,        0.4892578125,       -0.0419921875,        1.6174316406,      -18.7835693359,       32.2265625000
1489456421.7026219368,1489456421.7049050331,       -0.6313476562,        0.4892578125,       -0.0141601562,        1.6174316406,      -18.7835693359,       32.2265625000
1489456421.7051870823,1489456421.7074770927,       -0.6157226562,        0.4814453125,       -0.0141601562,       -3.6010742188,      -16.7083740234,       28.7170410156
1489456421.7077579498,1489456421.7100551128,       -0.6157226562,        0.4814453125,       -0.0141601562,       -3.6010742188,      -16.7083740234,       28.7170410156
1489456421.7103359699,1489456421.7126250267,       -0.6157226562,        0.4814453125,       -0.0141601562,       -6.5002441406,      -16.1437988281,       25.2990722656
1489456421.7129049301,1489456421.7151920795,       -0.6157226562,        0.6064453125,        0.0766601562,       -6.5002441406,      -16.1437988281,       25.2990722656
1489456421.7154729366,1489456421.7177650928,       -0.6049804688,        0.5415039062,        0.0766601562,       -6.5002441406,      -15.1977539062,       21.6064453125
1489456421.7180459499,1489456421.7203769684,       -0.6049804688,        0.5415039062,        0.0766601562,       -8.8958740234,      -15.1977539062,       21.6064453125
1489456421.7206580639,1489456421.7230789661,       -0.6049804688,        0.5415039062,        0.0766601562,       -8.8958740234,      -15.1977539062,       17.8070068359
1489456421.7233641148,1489456421.7256529331,       -0.6049804688,        0.5478515625,        0.0869140625,      -10.3759765625,      -14.4653320312,       17.8070068359
1489456421.7259390354,1489456421.7282259464,       -0.5019531250,        0.5478515625,        0.0869140625,      -10.3759765625,      -14.4653320312,       13.2293701172
1489456421.7285120487,1489456421.7309629917,       -0.5019531250,        0.5478515625,        0.0869140625,      -10.1776123047,      -13.3209228516,       13.2293701172
1489456421.7312550545,1489456421.7336320877,       -0.5019531250,        0.5478515625,        0.0869140625,      -10.1776123047,      -13.3209228516,        8.2550048828
1489456421.7339189053,1489456421.7368168831,       -0.3764648438,        0.5546875000,        0.1269531250,      -10.4675292969,      -11.6119384766,        8.2550048828
1489456421.7370998859,1489456421.7394568920,       -0.3764648438,        0.5546875000,        0.1269531250,      -10.4675292969,      -11.6119384766,        2.8991699219
1489456421.7397410870,1489456421.7420320511,       -0.3764648438,        0.5546875000,        0.1269531250,       -9.9487304688,      -10.0708007812,        2.8991699219
1489456421.7423141003,1489456421.7446079254,       -0.3764648438,        0.5546875000,        0.1269531250,       -9.9487304688,      -10.0708007812,       -3.4790039062
1489456421.7448859215,1489456421.7471749783,       -0.2617187500,        0.6162109375,        0.1328125000,       -5.5084228516,       -8.9874267578,       -3.4790039062
1489456421.7474479675,1489456421.7497839928,       -0.2617187500,        0.6162109375,        0.1328125000,       -5.5084228516,       -8.9874267578,      -11.2915039062
1489456421.7501699924,1489456421.7524631023,       -0.2617187500,        0.6162109375,        0.1328125000,       -1.0986328125,       -8.1024169922,      -10.9863281250
1489456421.7527410984,1489456421.7550330162,       -0.2617187500,        0.6162109375,        0.0078125000,       -1.0986328125,       -8.1024169922,      -10.9863281250
1489456421.7553119659,1489456421.7576019764,       -0.3662109375,        0.4985351562,        0.1025390625,       -1.2817382812,       -7.6141357422,      -17.1813964844
1489456421.7578799725,1489456421.7602150440,       -0.3662109375,        0.4985351562,        0.1025390625,       -1.2817382812,       -7.6141357422,      -17.1813964844
1489456421.7604930401,1489456421.7627840042,       -0.3662109375,        0.4985351562,        0.1025390625,       -2.4871826172,       -6.8511962891,      -21.9421386719
1489456421.7630620003,1489456421.7653560638,       -0.3662109375,        0.4985351562,        0.1108398438,       -2.4871826172,       -6.8511962891,      -21.9421386719
1489456421.7656350136,1489456421.7679181099,       -0.5297851562,        0.5156250000,        0.1108398438,       -3.2348632812,       -6.8664550781,      -25.9399414062
1489456421.7681989670,1489456421.7705409527,       -0.5297851562,        0.5156250000,        0.1108398438,       -3.2348632812,       -6.8664550781,      -25.9399414062
1489456421.7708199024,1489456421.7731139660,       -0.5297851562,        0.5156250000,        0.1108398438,       -3.0059814453,       -7.6599121094,      -29.9835205078
1489456421.7733919621,1489456421.7756819725,       -0.5297851562,        0.5156250000,        0.0678710938,       -3.0059814453,       -7.6599121094,      -29.9835205078
1489456421.7759609222,1489456421.7782530785,       -0.7387695312,        0.5200195312,        0.0678710938,       -1.9226074219,       -8.0718994141,      -34.5306396484
1489456421.7785310745,1489456421.7809109688,       -0.7387695312,        0.5200195312,        0.0678710938,       -1.9226074219,       -8.0718994141,      -34.5306396484
1489456421.7811911106,1489456421.7834889889,       -0.7387695312,        0.5200195312,        0.0678710938,       -2.4414062500,       -8.6364746094,      -39.1387939453
1489456421.7837688923,1489456421.7860670090,       -0.7387695312,        0.5502929688,       -0.0048828125,       -2.4414062500,       -8.6364746094,      -39.1387939453
1489456421.7863459587,1489456421.7886390686,       -0.8642578125,        0.5502929688,       -0.0048828125,       -2.4414062500,       -9.8114013672,      -43.1213378906
1489456421.7889459133,1489456421.7913649082,       -0.8642578125,        0.5502929688,       -0.0048828125,       -3.4790039062,       -9.8114013672,      -43.1213378906
1489456421.7916541100,1489456421.7940790653,       -0.8642578125,        0.5502929688,       -0.0048828125,       -3.4790039062,      -10.1470947266,      -47.1954345703
1489456421.7943708897,1489456421.7967839241,       -0.9711914062,        0.5454101562,       -0.0922851562,       -4.1198730469,      -10.1470947266,      -47.1954345703
1489456421.7970740795,1489456421.7995069027,       -0.9711914062,        0.5454101562,       -0.0922851562,       -4.1198730469,       -9.8266601562,      -51.2237548828
1489456421.7997920513,1489456421.8022100925,       -0.9711914062,        0.5454101562,       -0.0922851562,       -4.3182373047,       -9.8266601562,      -51.2237548828
1489456421.8024959564,1489456421.8049120903,       -0.9711914062,        0.5454101562,       -0.0922851562,       -4.3182373047,       -9.1094970703,      -55.6182861328
1489456421.8051970005,1489456421.8076200485,       -1.0029296875,        0.5883789062,       -0.1293945312,       -4.8370361328,       -9.1094970703,      -55.6182861328
1489456421.8079059124,1489456421.8102600574,       -1.0029296875,        0.5883789062,       -0.1293945312,       -4.8370361328,       -7.4157714844,      -61.1572265625
1489456421.8105359077,1489456421.8128249645,       -1.0029296875,        0.5883789062,       -0.1293945312,       -4.0893554688,       -7.4157714844,      -61.1572265625
1489456421.8131020069,1489456421.8153979778,       -1.0029296875,        0.5883789062,       -0.1293945312,       -4.0893554688,       -7.4157714844,      -66.6503906250
1489456421.8157870770,1489456421.8180830479,       -1.0156250000,        0.6230468750,       -0.1079101562,       -1.8463134766,       -5.3558349609,      -66.6503906250
1489456421.8183600903,1489456421.8207650185,       -1.0156250000,        0.6230468750,       -0.1079101562,       -1.8463134766,       -5.3558349609,      -71.1669921875
1489456421.8210508823,1489456421.8234689236,       -1.0156250000,        0.6230468750,       -0.1079101562,        2.3498535156,       -3.6468505859,      -71.1669921875
1489456421.8237540722,1489456421.8261721134,       -1.0156250000,        0.6230468750,       -0.0429687500,        2.3498535156,       -3.6468505859,      -76.2481689453
1489456421.8264570236,1489456421.8288819790,       -0.9707031250,        0.6611328125,       -0.0429687500,        8.4991455078,       -2.2430419922,      -76.2481689453
1489456421.8291690350,1489456421.8315858841,       -0.9707031250,        0.6611328125,       -0.0429687500,        8.4991455078,       -2.2430419922,      -81.8939208984
1489456421.8318729401,1489456421.8342890739,       -0.9707031250,        0.6611328125,       -0.0429687500,       19.6075439453,       -0.1678466797,      -81.8939208984
1489456421.8345789909,1489456421.8370049000,       -0.8457031250,        0.6860351562,        0.0380859375,       19.6075439453,       -0.1678466797,      -91.3543701172
1489456421.8372960091,1489456421.8397259712,       -0.8652343750,        0.6860351562,        0.0380859375,       29.6936035156,        0.4730224609,      -91.3543701172
1489456421.8400158882,1489456421.8424379826,       -0.8652343750,        0.6860351562,        0.0380859375,       29.6936035156,        0.4730224609,      -99.1668701172
1489456421.8427278996,1489456421.8451690674,       -0.8652343750,        0.6860351562,        0.0380859375,       41.3970947266,        1.7089843750,     -100.8453369141
1489456421.8456189632,1489456421.8480229378,       -0.7426757812,        0.7148437500,        0.0849609375,       41.3970947266,        1.7089843750,     -113.2049560547
1489456421.8483119011,1489456421.8509829044,       -0.7426757812,        0.7148437500,        0.0849609375,       50.4760742188,        1.4495849609,     -113.2049560547
1489456421.8512749672,1489456421.8536870480,       -0.7426757812,        0.7148437500,        0.0849609375,       50.4760742188,        1.4495849609,     -127.9602050781
1489456421.8539779186,1489456421.8563959599,       -0.7426757812,        0.7148437500,        0.0541992188,       58.1512451172,        2.4566650391,     -127.9602050781
1489456421.8566870689,1489456421.8591070175,       -0.6923828125,        0.7290039062,        0.0541992188,       58.1512451172,        2.4566650391,     -146.1029052734
1489456421.8593900204,1489456421.8616859913,       -0.6923828125,        0.7290039062,        0.0541992188,       60.9436035156,        3.0517578125,     -146.1029052734
1489456421.8619680405,1489456421.8642671108,       -0.6923828125,        0.7290039062,        0.0541992188,       60.9436035156,        3.0517578125,     -166.1224365234
1489456421.8645479679,1489456421.8668351173,       -0.6923828125,        0.6806640625,       -0.0576171875,       60.3485107422,        4.8217773438,     -166.1224365234
1489456421.8671159744,1489456421.8694970608,       -0.9433593750,        0.6806640625,       -0.0576171875,       60.3485107422,        4.8217773438,     -185.6536865234
1489456421.8697879314,1489456421.8722100258,       -0.9433593750,        0.6806640625,       -0.0576171875,       67.8863525391,        7.0648193359,     -187.4694824219
1489456421.8724999428,1489456421.8749160767,       -0.9433593750,        0.6806640625,       -0.0576171875,       67.8863525391,        7.0648193359,     -210.9069824219
1489456421.8752079010,1489456421.8776340485,       -1.3588867188,        0.7036132812,       -0.1992187500,       78.1402587891,       13.0615234375,     -210.4492187500
1489456421.8779261112,1489456421.8802809715,       -1.3588867188,        0.7036132812,       -0.1992187500,       78.1402587891,       13.0615234375,     -210.4492187500
1489456421.8806719780,1489456421.8829600811,       -1.3588867188,        0.7036132812,       -0.1992187500,       89.5538330078,       24.0325927734,     -233.8104248047
1489456421.8832449913,1489456421.8855440617,       -1.3588867188,        0.7036132812,       -0.1992187500,       89.5538330078,       24.0325927734,     -233.8104248047
1489456421.8858270645,1489456421.8881199360,       -1.9140625000,        0.5239257812,       -0.4033203125,      106.2164306641,       38.8946533203,     -263.4429931641
1489456421.8884029388,1489456421.8907470703,       -1.9140625000,        0.5239257812,       -0.4033203125,      106.2164306641,       38.8946533203,     -263.4429931641
1489456421.8910310268,1489456421.8933260441,       -1.9140625000,        0.5239257812,       -0.4033203125,      119.5068359375,       51.8951416016,     -297.5006103516
1489456421.8936131001,1489456421.8959059715,       -1.9140625000,        0.5239257812,       -0.4033203125,      119.5068359375,       51.8951416016,     -297.5006103516
