time_stamp before, time_stamp after, Acceleration x, Acceleration y, Acceleration z, Gyro x, Gyro y, Gyro z
1489456180.0244700909,1489456180.0329260826,       -0.7197265625,        0.2241210938,       -0.0034179688,        3.9825439453,        5.7220458984,       11.6271972656
1489456180.0332291126,1489456180.0358049870,       -0.7197265625,        0.2241210938,        0.0029296875,        3.9825439453,        5.7220458984,       11.6271972656
1489456180.0360898972,1489456180.0383789539,       -0.7250976562,        0.2241210938,        0.0029296875,        4.2572021484,        5.9509277344,       11.8560791016
1489456180.0386579037,1489456180.0411040783,       -0.7250976562,        0.2241210938,        0.0029296875,        4.2572021484,        5.9509277344,       11.8560791016
1489456180.0413908958,1489456180.0438010693,       -0.7250976562,        0.2241210938,        0.0029296875,        4.8217773438,        6.2103271484,       12.6495361328
1489456180.0440869331,1489456180.0465009212,       -0.7304687500,        0.2167968750,        0.0048828125,        4.8217773438,        6.2103271484,       12.6495361328
1489456180.0467820168,1489456180.0492510796,       -0.7304687500,        0.2167968750,        0.0048828125,        6.0729980469,        5.7830810547,       13.6260986328
1489456180.0495340824,1489456180.0519480705,       -0.7304687500,        0.2167968750,        0.0048828125,        6.0729980469,        5.7830810547,       13.6260986328
1489456180.0522298813,1489456180.0546429157,       -0.7304687500,        0.2167968750,        0.0048828125,        7.2326660156,        5.7830810547,       14.4958496094
1489456180.0549271107,1489456180.0573360920,       -0.7236328125,        0.2177734375,       -0.0117187500,        7.2326660156,        5.7830810547,       14.4958496094
1489456180.0576190948,1489456180.0601329803,       -0.7236328125,        0.2177734375,       -0.0117187500,        7.9040527344,        6.1645507812,       15.7623291016
1489456180.0604090691,1489456180.0627009869,       -0.7236328125,        0.2177734375,       -0.0117187500,        7.9040527344,        6.1645507812,       15.7623291016
1489456180.0629758835,1489456180.0652630329,       -0.7236328125,        0.2177734375,       -0.0097656250,        8.8348388672,        6.1187744141,       16.9525146484
1489456180.0655388832,1489456180.0678329468,       -0.7285156250,        0.2143554688,       -0.0097656250,        8.8348388672,        6.1187744141,       16.9525146484
1489456180.0681090355,1489456180.0705089569,       -0.7285156250,        0.2143554688,       -0.0097656250,       10.1623535156,        6.0119628906,       18.6920166016
1489456180.0707900524,1489456180.0730750561,       -0.7285156250,        0.2143554688,       -0.0097656250,       10.1623535156,        6.0119628906,       18.6920166016
1489456180.0733559132,1489456180.0765109062,       -0.7285156250,        0.2143554688,       -0.0170898438,       10.8184814453,        6.8359375000,       20.2331542969
1489456180.0767960548,1489456180.0791840553,       -0.7343750000,        0.1953125000,       -0.0170898438,       10.8184814453,        6.8359375000,       20.2331542969
1489456180.0794730186,1489456180.0818591118,       -0.7343750000,        0.1953125000,       -0.0170898438,       11.0931396484,        7.7667236328,       22.0489501953
1489456180.0821468830,1489456180.0845251083,       -0.7343750000,        0.1953125000,       -0.0170898438,       11.0931396484,        7.7667236328,       22.0489501953
1489456180.0848100185,1489456180.0871930122,       -0.7490234375,        0.1816406250,       -0.0092773438,       11.3983154297,        8.3465576172,       24.1394042969
1489456180.0874819756,1489456180.0898950100,       -0.7490234375,        0.1816406250,       -0.0092773438,       11.3983154297,        8.3465576172,       24.1394042969
1489456180.0901849270,1489456180.0925889015,       -0.7490234375,        0.1816406250,       -0.0092773438,       11.2457275391,        8.2397460938,       26.3519287109
1489456180.0928781033,1489456180.0952789783,       -0.7490234375,        0.1816406250,       -0.0092773438,       11.2457275391,        8.2397460938,       26.3519287109
1489456180.0957310200,1489456180.0981318951,       -0.7602539062,        0.1831054688,       -0.0087890625,       10.6964111328,        8.3312988281,       28.1982421875
1489456180.0984230042,1489456180.1008241177,       -0.7602539062,        0.1831054688,       -0.0087890625,       10.6964111328,        8.3312988281,       28.1982421875
1489456180.1011118889,1489456180.1035509109,       -0.7602539062,        0.1831054688,       -0.0087890625,       10.1013183594,        8.3770751953,       30.7617187500
1489456180.1038410664,1489456180.1062600613,       -0.7602539062,        0.1870117188,       -0.0039062500,       10.1013183594,        8.3770751953,       30.7617187500
1489456180.1065471172,1489456180.1089570522,       -0.7724609375,        0.1870117188,       -0.0039062500,       10.4370117188,        8.1481933594,       32.8826904297
1489456180.1092400551,1489456180.1115369797,       -0.7724609375,        0.1870117188,       -0.0039062500,       10.4370117188,        8.1481933594,       32.8826904297
1489456180.1118190289,1489456180.1141080856,       -0.7724609375,        0.1870117188,       -0.0039062500,       10.8642578125,        8.2244873047,       35.1867675781
1489456180.1143910885,1489456180.1166861057,       -0.7714843750,        0.1875000000,       -0.0004882812,       10.8642578125,        8.2244873047,       35.1867675781
1489456180.1169679165,1489456180.1193709373,       -0.7714843750,        0.1875000000,       -0.0004882812,       10.9405517578,        8.3007812500,       37.3382568359
1489456180.1196520329,1489456180.1219429970,       -0.7714843750,        0.1875000000,       -0.0004882812,       10.9405517578,        8.3007812500,       37.3382568359
1489456180.1222250462,1489456180.1245279312,       -0.7714843750,        0.1875000000,       -0.0004882812,       11.0015869141,        7.4005126953,       39.7644042969
1489456180.1248090267,1489456180.1271069050,       -0.7783203125,        0.1865234375,       -0.0063476562,       11.0015869141,        7.4005126953,       39.7644042969
1489456180.1273880005,1489456180.1298179626,       -0.7783203125,        0.1865234375,       -0.0063476562,       11.0015869141,        7.3394775391,       41.7327880859
1489456180.1301069260,1489456180.1325159073,       -0.7783203125,        0.1865234375,       -0.0063476562,       11.1236572266,        7.3394775391,       41.7327880859
1489456180.1328039169,1489456180.1352040768,       -0.7783203125,        0.1865234375,       -0.0063476562,       11.1236572266,        6.7138671875,       43.4265136719
1489456180.1354920864,1489456180.1378970146,       -0.7973632812,        0.1796875000,        0.0112304688,       11.4593505859,        6.7138671875,       43.4265136719
1489456180.1381831169,1489456180.1406340599,       -0.7973632812,        0.1796875000,        0.0112304688,       11.4593505859,        5.8593750000,       46.3867187500
1489456180.1409220695,1489456180.1433238983,       -0.7973632812,        0.1796875000,        0.0112304688,       11.3372802734,        5.8593750000,       46.3867187500
1489456180.1436100006,1489456180.1460139751,       -0.7973632812,        0.1796875000,        0.0112304688,       11.3372802734,        3.7841796875,       48.9501953125
1489456180.1463010311,1489456180.1487019062,       -0.8237304688,        0.1386718750,        0.0083007812,       10.0860595703,        3.7841796875,       48.9501953125
1489456180.1490359306,1489456180.1514379978,       -0.8237304688,        0.1386718750,        0.0083007812,       10.0860595703,        2.1057128906,       51.2237548828
1489456180.1517260075,1489456180.1541268826,       -0.8237304688,        0.1386718750,        0.0083007812,        9.1705322266,        2.1057128906,       51.2237548828
1489456180.1544120312,1489456180.1568109989,       -0.8237304688,        0.1728515625,        0.0209960938,        9.1705322266,        1.1444091797,       52.7038574219
1489456180.1570949554,1489456180.1595070362,       -0.8369140625,        0.1728515625,        0.0209960938,       10.0708007812,        1.1444091797,       52.7038574219
1489456180.1599059105,1489456180.1623070240,       -0.8369140625,        0.1728515625,        0.0209960938,       10.0708007812,        0.2136230469,       54.2755126953
1489456180.1625969410,1489456180.1649959087,       -0.8369140625,        0.1728515625,        0.0209960938,       10.4827880859,        0.2136230469,       54.2755126953
1489456180.1652839184,1489456180.1676890850,       -0.8564453125,        0.2353515625,        0.0073242188,       10.4827880859,       -0.7934570312,       55.5267333984
1489456180.1679790020,1489456180.1704230309,       -0.8564453125,        0.2353515625,        0.0073242188,       11.2609863281,       -0.7934570312,       55.5267333984
1489456180.1707110405,1489456180.1731040478,       -0.8564453125,        0.2353515625,        0.0073242188,       11.2609863281,       -0.7934570312,       56.4270019531
1489456180.1733930111,1489456180.1757988930,       -0.8564453125,        0.2353515625,        0.0073242188,       12.7410888672,       -1.7547607422,       56.4270019531
1489456180.1760859489,1489456180.1784839630,       -0.8710937500,        0.2299804688,       -0.0156250000,       12.7410888672,       -1.7547607422,       57.3577880859
1489456180.1787710190,1489456180.1812019348,       -0.8710937500,        0.2299804688,       -0.0156250000,       14.8468017578,       -2.3193359375,       57.3577880859
1489456180.1814880371,1489456180.1838660240,       -0.8710937500,        0.2299804688,       -0.0156250000,       14.8468017578,       -2.3193359375,       58.2733154297
1489456180.1841530800,1489456180.1868131161,       -0.8710937500,        0.2299804688,       -0.0371093750,       16.7999267578,       -3.3874511719,       58.2733154297
1489456180.1871030331,1489456180.1897280216,       -0.8798828125,        0.2416992188,       -0.0371093750,       16.7999267578,       -4.1503906250,       59.0515136719
1489456180.1900188923,1489456180.1924309731,       -0.8798828125,        0.2416992188,       -0.0371093750,       19.5617675781,       -4.1503906250,       59.0515136719
1489456180.1927199364,1489456180.1951489449,       -0.8798828125,        0.2416992188,       -0.0371093750,       19.5617675781,       -5.0201416016,       59.9212646484
1489456180.1954379082,1489456180.1978559494,       -0.8969726562,        0.2460937500,       -0.0390625000,       22.0642089844,       -5.0201416016,       59.9212646484
1489456180.1981449127,1489456180.2005660534,       -0.8969726562,        0.2460937500,       -0.0390625000,       25.9704589844,       -5.0811767578,       60.8215332031
1489456180.2008569241,1489456180.2032790184,       -0.8969726562,        0.2460937500,       -0.0390625000,       24.4293212891,       -5.0811767578,       60.8215332031
1489456180.2035679817,1489456180.2059829235,       -0.8969726562,        0.2460937500,       -0.0390625000,       24.4293212891,       -4.6539306641,       62.0727539062
1489456180.2062730789,1489456180.2086889744,       -0.9257812500,        0.2348632812,       -0.0380859375,       26.3214111328,       -4.6539306641,       62.0727539062
1489456180.2089788914,1489456180.2114028931,       -0.9257812500,        0.2348632812,       -0.0380859375,       26.3214111328,       -4.4860839844,       62.7899169922
1489456180.2116949558,1489456180.2141129971,       -0.9257812500,        0.2348632812,       -0.0380859375,       27.0385742188,       -4.4860839844,       62.7899169922
1489456180.2144010067,1489456180.2168269157,       -0.9257812500,        0.2348632812,       -0.0141601562,       27.0385742188,       -3.7231445312,       63.4155273438
1489456180.2171170712,1489456180.2195150852,       -0.9853515625,        0.2143554688,       -0.0141601562,       26.4739990234,       -3.7231445312,       63.4155273438
1489456180.2197959423,1489456180.2220900059,       -0.9853515625,        0.2143554688,       -0.0141601562,       26.4739990234,       -3.5095214844,       65.2008056641
1489456180.2223720551,1489456180.2246670723,       -0.9853515625,        0.2143554688,       -0.0141601562,       26.5350341797,       -3.5095214844,       65.2008056641
1489456180.2250719070,1489456180.2273640633,       -0.9853515625,        0.2065429688,        0.0131835938,       26.5350341797,       -3.5095214844,       66.4367675781
1489456180.2276480198,1489456180.2299890518,       -1.0224609375,        0.2065429688,        0.0131835938,       26.3824462891,       -2.9907226562,       66.4367675781
1489456180.2302720547,1489456180.2325720787,       -1.0224609375,        0.2065429688,        0.0131835938,       26.3824462891,       -2.9907226562,       67.3828125000
1489456180.2328538895,1489456180.2351489067,       -1.0224609375,        0.2065429688,        0.0131835938,       21.4996337891,       -2.5024414062,       67.3828125000
1489456180.2354290485,1489456180.2377290726,       -1.0224609375,        0.1523437500,        0.0468750000,       21.4996337891,       -2.5024414062,       67.3828125000
1489456180.2380089760,1489456180.2404959202,       -1.0561523438,        0.1523437500,        0.0468750000,       11.4135742188,       -1.4495849609,       67.7490234375
1489456180.2407789230,1489456180.2430679798,       -1.0561523438,        0.1523437500,        0.0468750000,       11.4135742188,       -1.4495849609,       67.7490234375
1489456180.2433490753,1489456180.2456500530,       -1.0561523438,        0.1523437500,        0.0468750000,        5.0506591797,       -1.1291503906,       67.5964355469
1489456180.2459249496,1489456180.2482149601,       -1.0678710938,        0.1328125000,        0.0620117188,        5.0506591797,       -1.1291503906,       67.5964355469
1489456180.2484910488,1489456180.2509939671,       -1.0678710938,        0.1328125000,        0.0620117188,        1.0528564453,       -0.6561279297,       68.2830810547
1489456180.2512829304,1489456180.2537009716,       -1.0678710938,        0.1328125000,        0.0620117188,        1.0528564453,       -0.6561279297,       68.2830810547
1489456180.2539880276,1489456180.2564039230,       -1.0678710938,        0.1328125000,        0.0620117188,        0.3509521484,       -0.5187988281,       70.2209472656
1489456180.2566900253,1489456180.2591140270,       -0.9970703125,        0.1972656250,        0.0903320312,        0.3509521484,       -0.5187988281,       70.2209472656
1489456180.2593920231,1489456180.2616848946,       -0.9970703125,        0.1972656250,        0.0903320312,        3.4332275391,       -0.6713867188,       72.0214843750
1489456180.2619650364,1489456180.2642560005,       -0.9970703125,        0.1972656250,        0.0903320312,        3.4332275391,       -0.6713867188,       72.0214843750
1489456180.2645339966,1489456180.2669250965,       -0.9970703125,        0.1972656250,        0.0903320312,        7.9650878906,       -0.3509521484,       73.7915039062
1489456180.2672059536,1489456180.2697219849,       -0.9375000000,        0.2597656250,        0.1347656250,        7.9650878906,       -0.3509521484,       73.7915039062
1489456180.2700068951,1489456180.2723870277,       -0.9375000000,        0.2597656250,        0.1347656250,       11.0626220703,       -0.5645751953,       75.5615234375
1489456180.2726728916,1489456180.2757060528,       -0.9375000000,        0.2597656250,        0.1347656250,       11.0626220703,       -0.5645751953,       75.5615234375
1489456180.2759919167,1489456180.2782759666,       -0.8637695312,        0.2353515625,        0.1376953125,       13.3666992188,       -2.3040771484,       74.6307373047
1489456180.2785580158,1489456180.2808470726,       -0.8637695312,        0.2353515625,        0.1376953125,       13.3666992188,       -2.3040771484,       74.6307373047
1489456180.2811288834,1489456180.2834129333,       -0.8637695312,        0.2353515625,        0.1376953125,       13.9923095703,       -4.1503906250,       73.0590820312
1489456180.2836940289,1489456180.2859790325,       -0.8637695312,        0.2353515625,        0.1376953125,       13.9923095703,       -4.1503906250,       73.0590820312
1489456180.2862589359,1489456180.2885489464,       -0.8105468750,        0.1425781250,        0.1816406250,       12.9547119141,       -6.8359375000,       69.8089599609
1489456180.2889521122,1489456180.2912409306,       -0.8105468750,        0.1425781250,        0.1816406250,       12.9547119141,       -6.8359375000,       69.8089599609
1489456180.2915229797,1489456180.2938139439,       -0.8105468750,        0.1425781250,        0.1816406250,       17.4713134766,       -9.3383789062,       63.0950927734
1489456180.2940950394,1489456180.2963759899,       -0.8105468750,        0.1425781250,        0.1816406250,       17.4713134766,       -9.3383789062,       63.0950927734
1489456180.2966570854,1489456180.2989470959,       -0.7597656250,        0.1362304688,        0.1152343750,       25.4058837891,      -10.5895996094,       57.8155517578
1489456180.2992329597,1489456180.3015239239,       -0.7597656250,        0.1362304688,        0.1152343750,       25.4058837891,      -10.5895996094,       57.8155517578
1489456180.3018100262,1489456180.3040959835,       -0.7597656250,        0.1362304688,        0.1152343750,       35.9497070312,      -11.5661621094,       57.3272705078
1489456180.3043808937,1489456180.3066670895,       -0.7597656250,        0.1362304688,        0.1152343750,       35.9497070312,      -11.5661621094,       57.3272705078
1489456180.3069510460,1489456180.3092730045,       -0.7504882812,        0.3969726562,        0.0400390625,       35.9497070312,      -13.3819580078,       53.2073974609
1489456180.3095591068,1489456180.3118460178,       -0.7504882812,        0.3969726562,        0.0400390625,       50.0183105469,      -13.3819580078,       53.2073974609
1489456180.3121299744,1489456180.3144199848,       -0.7504882812,        0.3969726562,        0.0400390625,       50.0183105469,      -13.3819580078,       43.2128906250
1489456180.3147029877,1489456180.3169870377,       -0.7504882812,        0.3969726562,        0.0400390625,       62.8356933594,      -13.9160156250,       43.2128906250
1489456180.3172719479,1489456180.3197309971,       -0.7802734375,        0.1225585938,        0.0493164062,       62.8356933594,      -13.9160156250,       34.1339111328
1489456180.3200180531,1489456180.3223049641,       -0.7802734375,        0.1225585938,        0.0493164062,       69.7021484375,      -14.8315429688,       34.1339111328
1489456180.3225910664,1489456180.3248820305,       -0.7802734375,        0.1225585938,        0.0493164062,       69.7021484375,      -14.8315429688,       30.2276611328
1489456180.3251669407,1489456180.3274509907,       -0.7802734375,        0.1225585938,        0.0493164062,       68.9544677734,      -16.4489746094,       27.5573730469
1489456180.3277359009,1489456180.3301510811,       -0.7910156250,       -0.0605468750,        0.0131835938,       68.9544677734,      -16.4489746094,       27.5573730469
1489456180.3304359913,1489456180.3327200413,       -0.7910156250,       -0.0605468750,        0.0131835938,       62.7746582031,      -18.2189941406,       22.7203369141
1489456180.3330039978,1489456180.3352940083,       -0.7910156250,       -0.0605468750,        0.0131835938,       62.7746582031,      -18.2189941406,       22.7203369141
1489456180.3355770111,1489456180.3378660679,       -0.7910156250,       -0.0605468750,        0.0131835938,       53.9703369141,      -19.6228027344,       18.9514160156
1489456180.3381500244,1489456180.3404490948,       -0.8134765625,       -0.0146484375,        0.0043945312,       53.9703369141,      -19.6228027344,       18.9514160156
1489456180.3407330513,1489456180.3430230618,       -0.8134765625,       -0.0146484375,        0.0043945312,       46.9360351562,      -20.2178955078,       15.3045654297
1489456180.3433070183,1489456180.3455939293,       -0.8134765625,       -0.0146484375,        0.0043945312,       46.9360351562,      -20.2178955078,       15.3045654297
1489456180.3458769321,1489456180.3481669426,       -0.8134765625,       -0.0146484375,       -0.0141601562,       42.7703857422,      -20.4162597656,       11.5661621094
1489456180.3484508991,1489456180.3508920670,       -0.8198242188,        0.0698242188,       -0.0141601562,       42.7703857422,      -20.4162597656,       11.5661621094
1489456180.3512959480,1489456180.3537149429,       -0.8198242188,        0.0698242188,       -0.0141601562,       38.0706787109,      -21.0266113281,        7.4157714844
1489456180.3540029526,1489456180.3564159870,       -0.8198242188,        0.0698242188,       -0.0141601562,       38.0706787109,      -21.0266113281,        7.4157714844
1489456180.3567039967,1489456180.3591198921,       -0.8198242188,        0.0776367188,       -0.0371093750,       33.6456298828,      -22.5372314453,        3.7689208984
1489456180.3594009876,1489456180.3616940975,       -0.7861328125,        0.0776367188,       -0.0371093750,       33.6456298828,      -22.5372314453,        3.7689208984
1489456180.3619759083,1489456180.3642680645,       -0.7861328125,        0.0776367188,       -0.0371093750,       27.6489257812,      -23.0865478516,        0.2288818359
1489456180.3645520210,1489456180.3668420315,       -0.7861328125,        0.0776367188,       -0.0371093750,       27.6489257812,      -23.0865478516,        0.2288818359
1489456180.3671269417,1489456180.3697550297,       -0.7446289062,        0.0341796875,       -0.0473632812,       22.8271484375,      -24.3072509766,       -3.5552978516
1489456180.3700430393,1489456180.3724310398,       -0.7446289062,        0.0341796875,       -0.0473632812,       22.8271484375,      -24.3072509766,       -3.5552978516
1489456180.3727180958,1489456180.3756310940,       -0.7446289062,        0.0341796875,       -0.0473632812,       17.2729492188,      -24.5208740234,       -8.5754394531
1489456180.3759179115,1489456180.3782110214,       -0.7446289062,        0.0341796875,       -0.0473632812,       17.2729492188,      -24.5208740234,       -8.5754394531
1489456180.3784940243,1489456180.3809208870,       -0.7216796875,        0.0185546875,       -0.0659179688,       11.5356445312,      -24.1546630859,      -13.1683349609
1489456180.3812079430,1489456180.3834950924,       -0.7216796875,        0.0185546875,       -0.0659179688,       11.5356445312,      -24.1546630859,      -13.1683349609
1489456180.3837800026,1489456180.3860719204,       -0.7216796875,        0.0185546875,       -0.0659179688,        5.5847167969,      -25.0701904297,      -17.0593261719
1489456180.3863511086,1489456180.3886339664,       -0.7216796875,        0.0185546875,       -0.0600585938,        5.5847167969,      -25.0701904297,      -17.0593261719
1489456180.3889119625,1489456180.3911969662,       -0.6757812500,        0.0336914062,       -0.0600585938,        0.6408691406,      -25.0396728516,      -21.2097167969
1489456180.3914799690,1489456180.3937649727,       -0.6757812500,        0.0336914062,       -0.0600585938,        0.6408691406,      -25.0396728516,      -21.2097167969
1489456180.3940460682,1489456180.3963320255,       -0.6757812500,        0.0336914062,       -0.0600585938,        0.6408691406,      -24.6276855469,      -25.9552001953
1489456180.3966119289,1489456180.3989169598,       -0.6757812500,        0.0336914062,       -0.0761718750,       -2.6550292969,      -24.6276855469,      -25.9552001953
1489456180.3991980553,1489456180.4014949799,       -0.6591796875,        0.0771484375,       -0.0761718750,       -2.6550292969,      -24.6276855469,      -31.2347412109
1489456180.4017760754,1489456180.4040679932,       -0.6591796875,        0.0771484375,       -0.0761718750,       -4.6997070312,      -25.3601074219,      -31.2347412109
1489456180.4043500423,1489456180.4066429138,       -0.6591796875,        0.0771484375,       -0.0761718750,       -4.6997070312,      -25.3601074219,      -39.0472412109
1489456180.4069249630,1489456180.4092750549,       -0.6591796875,        0.1464843750,       -0.0595703125,       -6.3171386719,      -25.4974365234,      -35.9954833984
1489456180.4095571041,1489456180.4118459225,       -0.6606445312,        0.1464843750,       -0.0595703125,       -6.3171386719,      -25.4974365234,      -35.9954833984
1489456180.4121301174,1489456180.4144148827,       -0.6606445312,        0.1464843750,       -0.0595703125,       -5.1422119141,      -25.7263183594,      -40.8935546875
1489456180.4147961140,1489456180.4170889854,       -0.6606445312,        0.1464843750,       -0.0595703125,       -5.1422119141,      -25.7263183594,      -40.8935546875
1489456180.4173710346,1489456180.4197499752,       -0.6958007812,        0.1884765625,       -0.0576171875,       -4.1503906250,      -25.2838134766,      -45.2880859375
1489456180.4200320244,1489456180.4223229885,       -0.6958007812,        0.1884765625,       -0.0576171875,       -4.1503906250,      -25.2838134766,      -45.2880859375
1489456180.4226050377,1489456180.4248940945,       -0.6958007812,        0.1884765625,       -0.0576171875,       -2.4719238281,      -25.0549316406,      -49.7894287109
1489456180.4251749516,1489456180.4274671078,       -0.6958007812,        0.1884765625,       -0.0576171875,       -2.4719238281,      -25.0549316406,      -49.7894287109
1489456180.4277489185,1489456180.4302101135,       -0.7099609375,        0.2001953125,       -0.0512695312,       -0.0762939453,      -25.1617431641,      -54.1229248047
1489456180.4304909706,1489456180.4327869415,       -0.7099609375,        0.2001953125,       -0.0512695312,       -0.0762939453,      -25.1617431641,      -54.1229248047
1489456180.4330708981,1489456180.4353580475,       -0.7099609375,        0.2001953125,       -0.0512695312,        2.4566650391,      -25.4669189453,      -58.4869384766
1489456180.4356410503,1489456180.4379260540,       -0.7099609375,        0.2001953125,       -0.0512695312,        2.4566650391,      -25.4669189453,      -58.4869384766
1489456180.4382081032,1489456180.4405620098,       -0.7314453125,        0.1904296875,       -0.0556640625,        5.0964355469,      -24.6887207031,      -62.5762939453
1489456180.4408440590,1489456180.4431300163,       -0.7314453125,        0.1904296875,       -0.0556640625,        5.0964355469,      -24.6887207031,      -62.5762939453
1489456180.4434120655,1489456180.4456930161,       -0.7314453125,        0.1904296875,       -0.0556640625,        7.4005126953,      -24.1241455078,      -65.8264160156
1489456180.4459741116,1489456180.4482669830,       -0.7314453125,        0.1904296875,       -0.0556640625,        7.4005126953,      -24.1241455078,      -65.8264160156
1489456180.4485490322,1489456180.4508399963,       -0.7270507812,        0.1840820312,       -0.0639648438,        7.4005126953,      -23.8494873047,      -69.0460205078
1489456180.4511229992,1489456180.4534170628,       -0.7270507812,        0.1840820312,       -0.0639648438,        8.6975097656,      -23.8494873047,      -69.0460205078
1489456180.4537010193,1489456180.4559910297,       -0.7270507812,        0.1840820312,       -0.0639648438,        8.6975097656,      -19.9432373047,      -72.2198486328
1489456180.4562730789,1489456180.4585609436,       -0.7270507812,        0.1840820312,       -0.0639648438,        9.3688964844,      -23.1018066406,      -72.2198486328
1489456180.4588670731,1489456180.4611630440,       -0.7187500000,        0.1870117188,       -0.0727539062,        9.3688964844,      -23.1018066406,      -75.1800537109
1489456180.4614470005,1489456180.4637320042,       -0.7187500000,        0.1870117188,       -0.0727539062,        9.8724365234,      -22.9034423828,      -75.1800537109
1489456180.4640140533,1489456180.4663059711,       -0.7187500000,        0.1870117188,       -0.0727539062,        9.8724365234,      -22.9034423828,      -75.1800537109
1489456180.4665880203,1489456180.4688820839,       -0.7187500000,        0.1870117188,       -0.0727539062,       11.3525390625,      -23.1170654297,      -78.2623291016
1489456180.4691700935,1489456180.4714589119,       -0.6904296875,        0.2246093750,       -0.0825195312,       11.3525390625,      -23.1170654297,      -78.2623291016
1489456180.4717459679,1489456180.4740428925,       -0.6904296875,        0.2246093750,       -0.0825195312,       12.9852294922,      -22.7966308594,      -81.2072753906
1489456180.4743280411,1489456180.4766170979,       -0.6904296875,        0.2246093750,       -0.0825195312,       12.9852294922,      -22.7966308594,      -81.2072753906
1489456180.4769020081,1489456180.4792919159,       -0.6904296875,        0.2246093750,       -0.0825195312,       13.6718750000,      -22.3388671875,      -84.1369628906
1489456180.4796841145,1489456180.4819779396,       -0.6723632812,        0.2314453125,       -0.0722656250,       13.6718750000,      -22.3388671875,      -84.1369628906
1489456180.4822630882,1489456180.4845530987,       -0.6723632812,        0.2314453125,       -0.0722656250,       14.1448974609,      -22.2015380859,      -86.6241455078
1489456180.4849400520,1489456180.4872601032,       -0.6723632812,        0.2314453125,       -0.0722656250,       14.1448974609,      -22.2015380859,      -86.6241455078
1489456180.4875450134,1489456180.4900619984,       -0.6723632812,        0.2314453125,       -0.0781250000,       14.4348144531,      -23.0560302734,      -89.1418457031
1489456180.4903500080,1489456180.4926400185,       -0.6645507812,        0.2363281250,       -0.0781250000,       14.4348144531,      -23.0560302734,      -89.1418457031
1489456180.4929280281,1489456180.4952239990,       -0.6645507812,        0.2363281250,       -0.0781250000,       13.8397216797,      -23.2391357422,      -91.4764404297
1489456180.4955101013,1489456180.4977989197,       -0.6645507812,        0.2363281250,       -0.0781250000,       13.8397216797,      -23.2391357422,      -91.4764404297
1489456180.4980859756,1489456180.5004060268,       -0.6645507812,        0.2568359375,       -0.0766601562,       12.8784179688,      -23.4375000000,      -93.9636230469
1489456180.5006918907,1489456180.5029780865,       -0.6704101562,        0.2568359375,       -0.0766601562,       12.8784179688,      -23.4375000000,      -93.9636230469
1489456180.5032629967,1489456180.5055499077,       -0.6704101562,        0.2568359375,       -0.0766601562,       12.1612548828,      -23.6968994141,      -95.9320068359
1489456180.5058360100,1489456180.5081300735,       -0.6704101562,        0.2568359375,       -0.0766601562,       12.1612548828,      -23.6968994141,      -95.9320068359
1489456180.5084130764,1489456180.5107450485,       -0.6665039062,        0.2626953125,       -0.0717773438,        8.2550048828,      -24.5208740234,      -97.3815917969
1489456180.5110270977,1489456180.5133121014,       -0.6665039062,        0.2626953125,       -0.0717773438,       10.4675292969,      -24.5208740234,      -97.3815917969
1489456180.5135979652,1489456180.5158929825,       -0.6665039062,        0.2626953125,       -0.0717773438,       10.4675292969,      -24.5208740234,      -98.6938476562
1489456180.5161769390,1489456180.5184679031,       -0.6665039062,        0.2626953125,       -0.0717773438,        8.1787109375,      -24.9786376953,      -98.6938476562
1489456180.5187499523,1489456180.5210490227,       -0.6640625000,        0.2504882812,       -0.0756835938,        8.1787109375,      -24.9786376953,     -100.3265380859
1489456180.5213310719,1489456180.5236270428,       -0.6640625000,        0.2504882812,       -0.0756835938,        6.1645507812,      -24.9786376953,     -100.3265380859
1489456180.5239090919,1489456180.5261991024,       -0.6640625000,        0.2504882812,       -0.0756835938,        6.1645507812,      -24.9786376953,     -100.3265380859
1489456180.5264821053,1489456180.5287721157,       -0.6640625000,        0.2504882812,       -0.0756835938,        4.0283203125,      -25.1007080078,     -101.5472412109
1489456180.5291171074,1489456180.5314130783,       -0.6645507812,        0.2436523438,       -0.0751953125,        4.0283203125,      -25.1007080078,     -101.5472412109
1489456180.5316970348,1489456180.5339879990,       -0.6645507812,        0.2436523438,       -0.0751953125,        0.8544921875,      -25.1617431641,     -101.7608642578
1489456180.5342729092,1489456180.5365691185,       -0.6645507812,        0.2436523438,       -0.0751953125,        0.8544921875,      -25.1617431641,     -101.7608642578
1489456180.5368509293,1489456180.5392019749,       -0.6645507812,        0.2436523438,       -0.0751953125,       -1.8157958984,      -24.8413085938,     -102.4169921875
1489456180.5394840240,1489456180.5417819023,       -0.6625976562,        0.2690429688,       -0.0805664062,       -1.8157958984,      -24.8413085938,     -102.4169921875
1489456180.5421690941,1489456180.5444679260,       -0.6625976562,        0.2690429688,       -0.0805664062,       -4.8828125000,      -24.8718261719,     -103.2867431641
1489456180.5447499752,1489456180.5470430851,       -0.6625976562,        0.2690429688,       -0.0805664062,       -4.8828125000,      -24.8718261719,     -103.2867431641
1489456180.5473239422,1489456180.5497460365,       -0.6625976562,        0.2690429688,       -0.0805664062,       -7.1411132812,      -24.7497558594,     -103.5919189453
1489456180.5500290394,1489456180.5523219109,       -0.6606445312,        0.2993164062,       -0.0849609375,       -7.1411132812,      -24.7497558594,     -103.5919189453
1489456180.5526039600,1489456180.5548980236,       -0.6606445312,        0.2993164062,       -0.0849609375,       -8.3312988281,      -24.2462158203,     -104.5074462891
1489456180.5551819801,1489456180.5574769974,       -0.6606445312,        0.2993164062,       -0.0849609375,       -8.3312988281,      -24.2462158203,     -104.5074462891
1489456180.5577590466,1489456180.5600559711,       -0.6606445312,        0.2993164062,       -0.0849609375,       -9.0179443359,      -23.6968994141,     -105.0567626953
1489456180.5603408813,1489456180.5626299381,       -0.6547851562,        0.3046875000,       -0.0732421875,       -9.0179443359,      -23.6968994141,     -105.0567626953
1489456180.5629110336,1489456180.5652039051,       -0.6547851562,        0.3046875000,       -0.0732421875,       -9.0179443359,      -23.3306884766,     -105.3924560547
1489456180.5654869080,1489456180.5677669048,       -0.6547851562,        0.3046875000,       -0.0732421875,       -9.2773437500,      -23.3306884766,     -105.3924560547
1489456180.5680489540,1489456180.5704150200,       -0.6547851562,        0.3046875000,       -0.0786132812,       -9.2773437500,      -23.3306884766,     -106.1553955078
1489456180.5706970692,1489456180.5730800629,       -0.6503906250,        0.2954101562,       -0.0786132812,      -10.2386474609,      -22.4456787109,     -106.1553955078
1489456180.5733659267,1489456180.5756568909,       -0.6503906250,        0.2954101562,       -0.0786132812,      -10.2386474609,      -22.4456787109,     -106.3690185547
1489456180.5759429932,1489456180.5782270432,       -0.6503906250,        0.2954101562,       -0.0786132812,      -10.8642578125,      -21.3317871094,     -106.3690185547
1489456180.5785140991,1489456180.5808870792,       -0.6503906250,        0.3090820312,       -0.0698242188,      -10.8642578125,      -21.3317871094,     -106.1706542969
1489456180.5811750889,1489456180.5834589005,       -0.6625976562,        0.3090820312,       -0.0698242188,      -11.3983154297,      -20.3704833984,     -106.1706542969
1489456180.5837450027,1489456180.5869019032,       -0.6625976562,        0.3090820312,       -0.0698242188,      -11.3983154297,      -19.4702148438,     -105.6365966797
1489456180.5871889591,1489456180.5894849300,       -0.6625976562,        0.3090820312,       -0.0698242188,      -12.2222900391,      -19.4702148438,     -105.6365966797
1489456180.5897710323,1489456180.5920670033,       -0.6484375000,        0.3159179688,       -0.0649414062,      -12.2222900391,      -19.4702148438,     -104.9041748047
1489456180.5923531055,1489456180.5946350098,       -0.6484375000,        0.3159179688,       -0.0649414062,      -12.8173828125,      -18.5089111328,     -104.9041748047
1489456180.5949211121,1489456180.5972030163,       -0.6484375000,        0.3159179688,       -0.0649414062,      -12.8173828125,      -18.5089111328,     -104.9041748047
1489456180.5974879265,1489456180.5998299122,       -0.6484375000,        0.3159179688,       -0.0649414062,      -13.3361816406,      -17.2882080078,     -104.6905517578
1489456180.6001150608,1489456180.6024019718,       -0.6577148438,        0.3173828125,       -0.0546875000,      -13.3361816406,      -17.2882080078,     -104.6905517578
1489456180.6026859283,1489456180.6049799919,       -0.6577148438,        0.3173828125,       -0.0546875000,      -14.0075683594,      -15.7623291016,     -104.1107177734
1489456180.6053740978,1489456180.6076619625,       -0.6577148438,        0.3173828125,       -0.0546875000,      -14.0075683594,      -15.7623291016,     -104.1107177734
1489456180.6079480648,1489456180.6103219986,       -0.6577148438,        0.3173828125,       -0.0546875000,      -15.3198242188,      -14.3890380859,     -103.0731201172
1489456180.6106081009,1489456180.6129078865,       -0.6625976562,        0.3105468750,       -0.0625000000,      -15.3198242188,      -14.3890380859,     -103.0731201172
1489456180.6131930351,1489456180.6154830456,       -0.6625976562,        0.3105468750,       -0.0625000000,      -17.3797607422,      -12.8326416016,     -101.9287109375
1489456180.6157670021,1489456180.6180551052,       -0.6625976562,        0.3105468750,       -0.0625000000,      -17.3797607422,      -12.8326416016,     -101.9287109375
1489456180.6183431149,1489456180.6206400394,       -0.6625976562,        0.3105468750,       -0.0625000000,      -19.4091796875,      -11.7645263672,     -100.5249023438
1489456180.6209249496,1489456180.6232109070,       -0.6547851562,        0.3125000000,       -0.0625000000,      -19.4091796875,      -11.7645263672,     -100.5249023438
1489456180.6234960556,1489456180.6257901192,       -0.6547851562,        0.3125000000,       -0.0625000000,      -21.3928222656,      -11.1236572266,      -99.0295410156
1489456180.6260740757,1489456180.6283628941,       -0.6547851562,        0.3125000000,       -0.0625000000,      -21.3928222656,      -11.1236572266,      -99.0295410156
1489456180.6286480427,1489456180.6310770512,       -0.6547851562,        0.3125000000,       -0.0610351562,      -24.6276855469,       -9.7198486328,      -97.6104736328
1489456180.6313610077,1489456180.6336510181,       -0.6474609375,        0.2719726562,       -0.0610351562,      -24.6276855469,       -9.7198486328,      -97.6104736328
1489456180.6339349747,1489456180.6362240314,       -0.6474609375,        0.2719726562,       -0.0610351562,      -27.3742675781,       -8.7432861328,      -95.6420898438
1489456180.6365060806,1489456180.6389729977,       -0.6474609375,        0.2719726562,       -0.0610351562,      -27.3742675781,       -8.7432861328,      -95.6420898438
1489456180.6392550468,1489456180.6415510178,       -0.6474609375,        0.2612304688,       -0.0673828125,      -27.3742675781,       -8.1176757812,      -93.4753417969
1489456180.6418349743,1489456180.6441240311,       -0.6293945312,        0.2612304688,       -0.0673828125,      -30.7159423828,       -8.1176757812,      -93.4753417969
1489456180.6444060802,1489456180.6467030048,       -0.6293945312,        0.2612304688,       -0.0673828125,      -30.7159423828,       -6.4392089844,      -92.0715332031
1489456180.6469850540,1489456180.6492819786,       -0.6293945312,        0.2612304688,       -0.0673828125,      -33.2336425781,       -6.4392089844,      -92.0715332031
1489456180.6495640278,1489456180.6518490314,       -0.5043945312,        0.2641601562,       -0.0541992188,      -33.2336425781,       -6.4392089844,      -90.5914306641
1489456180.6521310806,1489456180.6544210911,       -0.6201171875,        0.2641601562,       -0.0541992188,      -34.7900390625,       -5.0659179688,      -90.5914306641
1489456180.6547029018,1489456180.6569910049,       -0.6201171875,        0.2641601562,       -0.0541992188,      -34.7900390625,       -5.0659179688,      -86.6851806641
1489456180.6572721004,1489456180.6596078873,       -0.6201171875,        0.2641601562,       -0.0541992188,      -35.9649658203,       -4.4555664062,      -88.9587402344
1489456180.6598899364,1489456180.6621840000,       -0.6215820312,        0.2998046875,       -0.0498046875,      -35.9649658203,       -4.4555664062,      -88.9587402344
1489456180.6624650955,1489456180.6647489071,       -0.6215820312,        0.2998046875,       -0.0498046875,      -37.6586914062,       -3.4942626953,      -87.1276855469
1489456180.6650319099,1489456180.6673240662,       -0.6215820312,        0.2998046875,       -0.0498046875,      -37.6586914062,       -3.4942626953,      -87.1276855469
1489456180.6677160263,1489456180.6700160503,       -0.6215820312,        0.2998046875,       -0.0498046875,      -38.8183593750,       -1.8310546875,      -85.4034423828
1489456180.6702980995,1489456180.6725881100,       -0.6196289062,        0.3251953125,       -0.0249023438,      -38.8183593750,       -1.8310546875,      -85.4034423828
1489456180.6728699207,1489456180.6753249168,       -0.6196289062,        0.3251953125,       -0.0249023438,      -39.5050048828,       -0.5340576172,      -83.6334228516
1489456180.6756069660,1489456180.6778941154,       -0.6196289062,        0.3251953125,       -0.0249023438,      -39.5050048828,       -0.5340576172,      -83.6334228516
1489456180.6781759262,1489456180.6805930138,       -0.6196289062,        0.3251953125,       -0.0249023438,      -39.7491455078,        0.2136230469,      -81.4361572266
1489456180.6808810234,1489456180.6832649708,       -0.6181640625,        0.3227539062,       -0.0175781250,      -39.7491455078,        0.2136230469,      -81.4361572266
1489456180.6835529804,1489456180.6864550114,       -0.6181640625,        0.3227539062,       -0.0175781250,      -41.3208007812,        1.6174316406,      -79.5898437500
1489456180.6867389679,1489456180.6890978813,       -0.6181640625,        0.3227539062,       -0.0175781250,      -41.3208007812,        1.6174316406,      -79.5898437500
1489456180.6893799305,1489456180.6916689873,       -0.6181640625,        0.3227539062,       -0.0102539062,      -44.4030761719,        2.5329589844,      -78.0639648438
1489456180.6919519901,1489456180.6942389011,       -0.6235351562,        0.2880859375,       -0.0102539062,      -44.4030761719,        2.5329589844,      -78.0639648438
1489456180.6945199966,1489456180.6968100071,       -0.6235351562,        0.2880859375,       -0.0102539062,      -47.3175048828,        3.4332275391,      -76.2481689453
1489456180.6970911026,1489456180.6994309425,       -0.6235351562,        0.2880859375,       -0.0102539062,      -47.3175048828,        3.4332275391,      -76.2481689453
1489456180.6997120380,1489456180.7020039558,       -0.6235351562,        0.2978515625,        0.0000000000,      -49.5605468750,        4.4708251953,      -74.2492675781
1489456180.7022840977,1489456180.7045679092,       -0.6040039062,        0.2978515625,        0.0000000000,      -49.5605468750,        4.4708251953,      -74.2492675781
1489456180.7048509121,1489456180.7071399689,       -0.6040039062,        0.2978515625,        0.0000000000,      -52.1087646484,        4.5776367188,      -72.7539062500
1489456180.7074220181,1489456180.7097160816,       -0.6040039062,        0.2978515625,        0.0000000000,      -52.1087646484,        4.5776367188,      -72.7539062500
1489456180.7099978924,1489456180.7122879028,       -0.6040039062,        0.3134765625,        0.0156250000,      -52.1087646484,        5.0048828125,      -70.7244873047
1489456180.7125699520,1489456180.7148599625,       -0.6137695312,        0.3134765625,        0.0156250000,      -54.5349121094,        5.0048828125,      -70.7244873047
1489456180.7151420116,1489456180.7174329758,       -0.6137695312,        0.3134765625,        0.0156250000,      -54.5349121094,        5.0048828125,      -68.6187744141
1489456180.7177150249,1489456180.7200210094,       -0.6137695312,        0.3134765625,        0.0156250000,      -56.1676025391,        4.8675537109,      -68.6187744141
1489456180.7203030586,1489456180.7225909233,       -0.6137695312,        0.3486328125,        0.0351562500,      -56.1676025391,        4.8675537109,      -66.4367675781
1489456180.7228710651,1489456180.7251620293,       -0.6113281250,        0.3486328125,        0.0351562500,      -56.6711425781,        4.8980712891,      -66.4367675781
1489456180.7254428864,1489456180.7277309895,       -0.6113281250,        0.3486328125,        0.0351562500,      -56.6711425781,        4.8980712891,      -62.5305175781
1489456180.7280120850,1489456180.7304830551,       -0.6113281250,        0.3486328125,        0.0351562500,      -55.5877685547,        5.2032470703,      -64.3310546875
1489456180.7308869362,1489456180.7331891060,       -0.6005859375,        0.3598632812,        0.0429687500,      -55.5877685547,        5.2032470703,      -60.4248046875
1489456180.7334730625,1489456180.7357640266,       -0.6005859375,        0.3598632812,        0.0429687500,      -53.1616210938,        5.4931640625,      -61.3098144531
1489456180.7360479832,1489456180.7383439541,       -0.6005859375,        0.3598632812,        0.0429687500,      -53.1616210938,        5.4931640625,      -61.3098144531
1489456180.7386240959,1489456180.7410590649,       -0.6005859375,        0.3598632812,        0.0429687500,      -50.0640869141,        5.1574707031,      -58.1207275391
1489456180.7413420677,1489456180.7436320782,       -0.5898437500,        0.3422851562,        0.0537109375,      -50.0640869141,        5.1574707031,      -58.1207275391
1489456180.7439129353,1489456180.7462129593,       -0.5898437500,        0.3422851562,        0.0537109375,      -46.7376708984,        4.8370361328,      -54.9468994141
1489456180.7464950085,1489456180.7488338947,       -0.5898437500,        0.3422851562,        0.0537109375,      -46.7376708984,        4.8370361328,      -54.9468994141
1489456180.7491240501,1489456180.7515380383,       -0.5898437500,        0.3422851562,        0.0537109375,      -43.3044433594,        4.7454833984,      -51.4221191406
1489456180.7518270016,1489456180.7542378902,       -0.5957031250,        0.3266601562,        0.0532226562,      -43.3044433594,        4.7454833984,      -51.4221191406
1489456180.7545270920,1489456180.7569439411,       -0.5957031250,        0.3266601562,        0.0532226562,      -40.9088134766,        4.2724609375,      -47.9125976562
1489456180.7572329044,1489456180.7596640587,       -0.5957031250,        0.3266601562,        0.0532226562,      -40.9088134766,        4.2724609375,      -47.9125976562
1489456180.7599530220,1489456180.7623679638,       -0.5957031250,        0.3266601562,        0.0380859375,      -38.0706787109,        3.7994384766,      -44.2962646484
1489456180.7626581192,1489456180.7650749683,       -0.5942382812,        0.3095703125,        0.0380859375,      -38.0706787109,        3.7994384766,      -44.2962646484
1489456180.7653629780,1489456180.7677810192,       -0.5942382812,        0.3095703125,        0.0380859375,      -35.5224609375,        4.1351318359,      -41.0308837891
1489456180.7680709362,1489456180.7704999447,       -0.5942382812,        0.3095703125,        0.0380859375,      -35.5224609375,        4.1351318359,      -41.0308837891
1489456180.7707879543,1489456180.7732050419,       -0.5942382812,        0.3085937500,        0.0356445312,      -32.7148437500,        3.9520263672,      -37.9028320312
1489456180.7734949589,1489456180.7759160995,       -0.6040039062,        0.3085937500,        0.0356445312,      -32.7148437500,        3.9520263672,      -37.9028320312
1489456180.7762060165,1489456180.7787780762,       -0.6040039062,        0.3085937500,        0.0356445312,      -29.9072265625,        3.6315917969,      -34.5306396484
1489456180.7792539597,1489456180.7815499306,       -0.6040039062,        0.3085937500,        0.0356445312,      -29.9072265625,        3.6315917969,      -34.5306396484
1489456180.7818350792,1489456180.7841219902,       -0.6220703125,        0.3085937500,        0.0517578125,      -27.4810791016,        2.8839111328,      -31.5399169922
1489456180.7852020264,1489456180.7874999046,       -0.6220703125,        0.3085937500,        0.0517578125,      -27.4810791016,        2.8839111328,      -31.5399169922
1489456180.7877860069,1489456180.7901589870,       -0.6220703125,        0.3085937500,        0.0517578125,      -25.4821777344,        2.7770996094,      -28.0914306641
1489456180.7904489040,1489456180.7928669453,       -0.6220703125,        0.3085937500,        0.0625000000,      -25.4821777344,        2.7770996094,      -28.0914306641
1489456180.7931580544,1489456180.7955698967,       -0.6469726562,        0.2817382812,        0.0625000000,      -25.6500244141,        2.8228759766,      -24.6582031250
1489456180.7959680557,1489456180.7983849049,       -0.6469726562,        0.2817382812,        0.0625000000,      -25.6500244141,        2.8228759766,      -24.6582031250
1489456180.7986750603,1489456180.8011040688,       -0.6469726562,        0.2817382812,        0.0625000000,      -26.9012451172,        2.5482177734,      -21.3165283203
1489456180.8013930321,1489456180.8038070202,       -0.6318359375,        0.3334960938,        0.0498046875,      -26.9012451172,        2.5482177734,      -21.3165283203
1489456180.8040978909,1489456180.8065149784,       -0.6318359375,        0.3334960938,        0.0498046875,      -27.0233154297,        2.3651123047,      -17.0440673828
1489456180.8068070412,1489456180.8092319965,       -0.6318359375,        0.3334960938,        0.0498046875,      -27.0233154297,        2.3651123047,      -17.0440673828
1489456180.8095209599,1489456180.8119440079,       -0.6318359375,        0.3334960938,        0.0498046875,      -26.6876220703,        0.4272460938,      -12.4816894531
1489456180.8122329712,1489456180.8146500587,       -0.8969726562,        0.6699218750,        0.2553710938,      -26.6876220703,        0.4272460938,      -12.4816894531
1489456180.8149371147,1489456180.8173520565,       -0.8969726562,        0.6699218750,        0.2553710938,      -31.9366455078,       -7.5378417969,       -5.3100585938
1489456180.8176369667,1489456180.8200049400,       -0.8969726562,        0.6699218750,        0.2553710938,      -31.9366455078,       -7.5378417969,       -5.3100585938
1489456180.8202838898,1489456180.8225769997,       -0.8969726562,        0.6699218750,        0.1303710938,      -36.1785888672,       -9.5214843750,        6.8206787109
1489456180.8228580952,1489456180.8251500130,       -1.1142578125,        1.3237304688,        0.2143554688,      -36.1785888672,       -9.5214843750,        6.8206787109
1489456180.8254270554,1489456180.8277189732,       -1.1142578125,        1.3237304688,        0.2143554688,      -21.6369628906,       -3.9062500000,       34.6527099609
1489456180.8279991150,1489456180.8303339481,       -1.1142578125,        1.3237304688,        0.2143554688,      -21.6369628906,       -3.9062500000,       34.6527099609
1489456180.8306140900,1489456180.8329041004,       -1.1142578125,        1.3237304688,        0.1928710938,       -4.3945312500,       -3.0670166016,       55.9539794922
1489456180.8331789970,1489456180.8354749680,       -1.0429687500,        1.6220703125,        0.1928710938,       -4.3945312500,       -3.0670166016,       55.9539794922
1489456180.8357501030,1489456180.8380439281,       -1.0429687500,        1.6220703125,        0.1928710938,        6.9885253906,       -4.3792724609,       57.7545166016
1489456180.8383200169,1489456180.8407909870,       -1.0429687500,        1.6220703125,        0.1928710938,        6.9885253906,       -4.3792724609,       57.7545166016
1489456180.8410739899,1489456180.8434720039,       -1.0429687500,        0.6450195312,       -0.0620117188,       25.0854492188,        0.9918212891,       55.9387207031
1489456180.8437609673,1489456180.8461599350,       -1.0893554688,        0.6450195312,       -0.0620117188,       25.0854492188,        0.9918212891,       55.9387207031
1489456180.8464510441,1489456180.8488600254,       -1.0893554688,        0.6450195312,       -0.0620117188,       31.9976806641,        1.9989013672,       58.7921142578
1489456180.8491489887,1489456180.8515501022,       -1.0893554688,        0.6450195312,       -0.0620117188,       31.9976806641,        1.9989013672,       58.7921142578
1489456180.8518381119,1489456180.8542408943,       -0.9091796875,       -0.0737304688,       -0.2109375000,       28.7475585938,       -0.6256103516,       62.0117187500
1489456180.8545289040,1489456180.8569331169,       -0.9091796875,       -0.0737304688,       -0.2109375000,       28.7475585938,       -0.6256103516,       62.0117187500
1489456180.8572220802,1489456180.8596379757,       -0.9091796875,       -0.0737304688,       -0.2109375000,       23.2696533203,       -0.9613037109,       61.9506835938
1489456180.8600370884,1489456180.8624410629,       -0.9091796875,       -0.0737304688,       -0.2109375000,       23.2696533203,       -0.9613037109,       61.9506835938
1489456180.8627300262,1489456180.8651270866,       -0.6694335938,       -0.6123046875,       -0.1518554688,       15.2130126953,        2.3803710938,       59.4482421875
1489456180.8654139042,1489456180.8678140640,       -0.6694335938,       -0.6123046875,       -0.1518554688,       15.2130126953,        2.3803710938,       59.4482421875
1489456180.8681008816,1489456180.8705139160,       -0.6694335938,       -0.6123046875,       -0.1518554688,        3.0059814453,        6.4392089844,       56.1676025391
1489456180.8707981110,1489456180.8731980324,       -0.6694335938,       -0.6123046875,       -0.0268554688,        3.0059814453,        6.4392089844,       56.1676025391
1489456180.8734829426,1489456180.8758819103,       -0.7182617188,       -0.6118164062,       -0.0922851562,      -10.6353759766,        8.1176757812,       55.0231933594
1489456180.8761720657,1489456180.8785729408,       -0.7182617188,       -0.6118164062,       -0.0922851562,      -10.6353759766,        8.1176757812,       55.0231933594
1489456180.8788700104,1489456180.8813409805,       -0.7182617188,       -0.6118164062,       -0.0922851562,      -22.1710205078,        9.0332031250,       53.8330078125
1489456180.8816299438,1489456180.8840320110,       -0.7182617188,       -0.3847656250,       -0.0083007812,      -22.1710205078,        9.0332031250,       53.8330078125
1489456180.8843240738,1489456180.8867340088,       -0.7924804688,       -0.3847656250,       -0.0083007812,      -29.6630859375,        9.9639892578,       51.7272949219
1489456180.8870251179,1489456180.8894441128,       -0.7924804688,       -0.3847656250,       -0.0083007812,      -29.6630859375,        9.9639892578,       51.7272949219
1489456180.8897349834,1489456180.8921349049,       -0.7924804688,       -0.3847656250,       -0.0083007812,      -35.7818603516,        9.2468261719,       52.5970458984
1489456180.8924241066,1489456180.8949160576,       -0.8447265625,       -0.0551757812,        0.0795898438,      -35.7818603516,        9.2468261719,       52.5970458984
1489456180.8953700066,1489456180.8977749348,       -0.8447265625,       -0.0551757812,        0.0795898438,      -42.2210693359,        5.8593750000,       56.5490722656
1489456180.8980629444,1489456180.9012689590,       -0.8447265625,       -0.0551757812,        0.0795898438,      -42.2210693359,        5.8593750000,       56.5490722656
1489456180.9015529156,1489456180.9038429260,       -0.8447265625,        0.1948242188,        0.1289062500,      -45.0439453125,        3.0364990234,       60.1654052734
1489456180.9041249752,1489456180.9064168930,       -0.7758789062,        0.1738281250,        0.1289062500,      -45.0439453125,        3.0364990234,       60.1654052734
1489456180.9066979885,1489456180.9090719223,       -0.7758789062,        0.1738281250,        0.1289062500,      -43.0145263672,        1.8463134766,       61.2030029297
1489456180.9093530178,1489456180.9116458893,       -0.7758789062,        0.1738281250,        0.1289062500,      -43.0145263672,        1.8463134766,       61.2030029297
1489456180.9119269848,1489456180.9142100811,       -0.7758789062,        0.2377929688,        0.0908203125,      -39.2608642578,        0.7171630859,       60.8825683594
1489456180.9144930840,1489456180.9167790413,       -0.7211914062,        0.2377929688,        0.0908203125,      -39.2608642578,        0.7171630859,       60.8825683594
1489456180.9170610905,1489456180.9194068909,       -0.7211914062,        0.2377929688,        0.0908203125,      -35.0952148438,       -0.6561279297,       60.4553222656
1489456180.9196898937,1489456180.9220709801,       -0.7211914062,        0.2377929688,        0.0908203125,      -35.0952148438,       -0.6561279297,       60.4553222656
1489456180.9223570824,1489456180.9246439934,       -0.6518554688,        0.2197265625,        0.0415039062,      -31.1889648438,       -1.9836425781,       58.8378906250
1489456180.9250400066,1489456180.9273259640,       -0.6518554688,        0.2197265625,        0.0415039062,      -29.8614501953,       -1.9836425781,       58.8378906250
1489456180.9276080132,1489456180.9299020767,       -0.6518554688,        0.2197265625,        0.0415039062,      -29.8614501953,       -2.7770996094,       56.8084716797
1489456180.9301850796,1489456180.9324688911,       -0.6518554688,        0.2197265625,        0.0415039062,      -24.6734619141,       -2.7770996094,       56.8084716797
1489456180.9327499866,1489456180.9350380898,       -0.6123046875,        0.1572265625,        0.0161132812,      -24.6734619141,       -2.7770996094,       54.7332763672
1489456180.9353199005,1489456180.9376049042,       -0.6123046875,        0.1572265625,        0.0161132812,      -19.9432373047,       -3.2043457031,       54.7332763672
1489456180.9378859997,1489456180.9402151108,       -0.6123046875,        0.1572265625,        0.0161132812,      -19.9432373047,       -3.2043457031,       53.0853271484
1489456180.9404959679,1489456180.9427878857,       -0.6123046875,        0.1572265625,        0.0161132812,      -17.6086425781,       -3.1890869141,       53.0853271484
1489456180.9430689812,1489456180.9453580379,       -0.6064453125,        0.1191406250,        0.0063476562,      -17.6086425781,       -3.1890869141,       53.0853271484
1489456180.9456400871,1489456180.9479238987,       -0.6064453125,        0.1191406250,        0.0063476562,      -17.2576904297,       -2.5329589844,       52.4291992188
1489456180.9482059479,1489456180.9506831169,       -0.6064453125,        0.1191406250,        0.0063476562,      -17.2576904297,       -2.5329589844,       52.4291992188
1489456180.9509670734,1489456180.9532549381,       -0.6064453125,        0.1191406250,        0.0063476562,      -17.5476074219,       -2.4261474609,       52.2003173828
1489456180.9535379410,1489456180.9558320045,       -0.6103515625,        0.1337890625,       -0.0029296875,      -17.5476074219,       -2.4261474609,       52.2003173828
1489456180.9561140537,1489456180.9584090710,       -0.6103515625,        0.1337890625,       -0.0029296875,      -18.0816650391,       -2.3651123047,       52.7343750000
1489456180.9586920738,1489456180.9612250328,       -0.6103515625,        0.1337890625,       -0.0029296875,      -18.0816650391,       -2.3651123047,       52.7343750000
1489456180.9615159035,1489456180.9639339447,       -0.6103515625,        0.1337890625,        0.1220703125,      -18.5089111328,       -2.4566650391,       53.0395507812
1489456180.9642229080,1489456180.9666440487,       -0.6523437500,        0.1557617188,        0.0039062500,      -18.5089111328,       -2.4566650391,       53.0395507812
1489456180.9669330120,1489456180.9693539143,       -0.6523437500,        0.1557617188,        0.0039062500,      -19.5312500000,       -2.4414062500,       53.4820556641
1489456180.9696431160,1489456180.9720609188,       -0.6523437500,        0.1557617188,        0.0039062500,      -19.5312500000,       -2.4414062500,       53.4820556641
1489456180.9723510742,1489456180.9747669697,       -0.6523437500,        0.1455078125,        0.0068359375,      -21.1944580078,       -2.7923583984,       54.1229248047
1489456180.9750599861,1489456180.9774699211,       -0.6762695312,        0.1455078125,        0.0068359375,      -21.1944580078,       -2.7923583984,       54.1229248047
1489456180.9777588844,1489456180.9801070690,       -0.6762695312,        0.1455078125,        0.0068359375,      -23.5443115234,       -2.5787353516,       55.3894042969
1489456180.9803900719,1489456180.9828329086,       -0.6762695312,        0.1455078125,        0.0068359375,      -23.5443115234,       -2.5787353516,       55.3894042969
1489456180.9831171036,1489456180.9854168892,       -0.6933593750,        0.1108398438,        0.0244140625,      -26.4739990234,       -3.0822753906,       56.9152832031
1489456180.9856998920,1489456180.9879879951,       -0.6933593750,        0.1108398438,        0.0244140625,      -26.4739990234,       -3.0822753906,       56.9152832031
1489456180.9883871078,1489456180.9909560680,       -0.6933593750,        0.1108398438,        0.0244140625,      -29.3426513672,       -3.9672851562,       57.8918457031
1489456180.9912440777,1489456180.9936280251,       -0.6933593750,        0.1108398438,        0.0244140625,      -29.3426513672,       -3.9672851562,       57.8918457031
1489456180.9939129353,1489456180.9968619347,       -0.7045898438,        0.0786132812,        0.0253906250,      -30.9600830078,       -4.1198730469,       57.5714111328
1489456180.9971499443,1489456180.9994750023,       -0.7045898438,        0.0786132812,        0.0253906250,      -30.9600830078,       -4.1198730469,       57.5714111328
1489456180.9997589588,1489456181.0020470619,       -0.7045898438,        0.0786132812,        0.0253906250,      -32.3028564453,       -4.8065185547,       57.5866699219
1489456181.0023279190,1489456181.0046200752,       -0.7045898438,        0.0786132812,        0.0278320312,      -32.3028564453,       -4.8065185547,       57.5866699219
1489456181.0049018860,1489456181.0071899891,       -0.7158203125,        0.0629882812,        0.0278320312,      -33.2489013672,       -5.2947998047,       58.5021972656
1489456181.0074720383,1489456181.0098090172,       -0.7158203125,        0.0629882812,        0.0278320312,      -33.2489013672,       -5.2947998047,       58.5021972656
1489456181.0100901127,1489456181.0123839378,       -0.7158203125,        0.0629882812,        0.0278320312,      -33.9965820312,       -5.7373046875,       58.7005615234
1489456181.0126659870,1489456181.0149559975,       -0.7158203125,        0.0629882812,        0.0312500000,      -33.9965820312,       -5.7373046875,       58.7005615234
1489456181.0152380466,1489456181.0175240040,       -0.7167968750,        0.0668945312,        0.0312500000,      -35.2020263672,       -6.1798095703,       59.0667724609
1489456181.0178060532,1489456181.0201089382,       -0.7167968750,        0.0668945312,        0.0312500000,      -35.2020263672,       -6.1798095703,       59.0667724609
1489456181.0203890800,1489456181.0226790905,       -0.7167968750,        0.0668945312,        0.0312500000,      -35.3546142578,       -7.0953369141,       59.3566894531
1489456181.0229620934,1489456181.0252549648,       -0.7167968750,        0.1201171875,        0.0351562500,      -35.3546142578,       -7.0953369141,       59.3566894531
1489456181.0255370140,1489456181.0278239250,       -0.7001953125,        0.1201171875,        0.0351562500,      -35.3546142578,       -7.2784423828,       59.5397949219
1489456181.0281059742,1489456181.0303978920,       -0.7001953125,        0.1201171875,        0.0351562500,      -33.8439941406,       -7.2784423828,       59.5397949219
1489456181.0306808949,1489456181.0329759121,       -0.7001953125,        0.1201171875,        0.0351562500,      -33.8439941406,       -7.2784423828,       60.1043701172
1489456181.0332601070,1489456181.0355470181,       -0.7001953125,        0.2309570312,        0.0136718750,      -30.4718017578,       -8.2702636719,       60.1043701172
1489456181.0358290672,1489456181.0381169319,       -0.7192382812,        0.2309570312,        0.0136718750,      -30.4718017578,       -8.2702636719,       60.1043701172
1489456181.0383989811,1489456181.0408909321,       -0.7192382812,        0.2309570312,        0.0136718750,      -26.1993408203,       -9.0179443359,       60.5163574219
1489456181.0411729813,1489456181.0434648991,       -0.7192382812,        0.2309570312,        0.0136718750,      -26.1993408203,       -9.0179443359,       60.5163574219
1489456181.0437479019,1489456181.0460500717,       -0.7211914062,        0.2968750000,        0.0107421875,      -22.9339599609,       -9.2620849609,       61.1572265625
1489456181.0463318825,1489456181.0486268997,       -0.7211914062,        0.2968750000,        0.0107421875,      -22.9339599609,       -9.2620849609,       61.1572265625
1489456181.0490341187,1489456181.0514659882,       -0.7211914062,        0.2968750000,        0.0107421875,      -17.7307128906,       -9.1094970703,       60.8367919922
1489456181.0518651009,1489456181.0542891026,       -0.7211914062,        0.2968750000,        0.0107421875,      -17.7307128906,       -9.1094970703,       60.8367919922
1489456181.0545799732,1489456181.0569980145,       -0.7133789062,        0.4492187500,       -0.0024414062,       -8.4686279297,       -9.3383789062,       61.0504150391
1489456181.0572850704,1489456181.0597090721,       -0.7133789062,        0.4492187500,       -0.0024414062,       -8.4686279297,       -9.3383789062,       61.0504150391
1489456181.0599980354,1489456181.0624170303,       -0.7133789062,        0.4492187500,       -0.0024414062,       -3.0975341797,      -10.0402832031,       60.1196289062
1489456181.0627069473,1489456181.0651268959,       -0.7133789062,        0.4492187500,        0.0112304688,       -3.0975341797,      -10.0402832031,       60.1196289062
1489456181.0654170513,1489456181.0678379536,       -0.6743164062,        0.2768554688,        0.0112304688,       -0.9613037109,       -9.5977783203,       57.1136474609
1489456181.0681259632,1489456181.0704700947,       -0.6743164062,        0.2768554688,        0.0112304688,       -0.9613037109,       -9.5977783203,       57.1136474609
1489456181.0707499981,1489456181.0730400085,       -0.6743164062,        0.2768554688,        0.0112304688,       -2.0446777344,       -8.0261230469,       55.5267333984
1489456181.0733180046,1489456181.0756170750,       -0.6743164062,        0.1450195312,       -0.0234375000,       -2.0446777344,       -8.0261230469,       55.5267333984
1489456181.0758969784,1489456181.0781939030,       -0.5976562500,        0.1450195312,       -0.0234375000,       -4.8828125000,       -7.0190429688,       56.4117431641
1489456181.0784740448,1489456181.0808970928,       -0.5976562500,        0.1450195312,       -0.0234375000,       -4.8828125000,       -7.0190429688,       56.4117431641
1489456181.0811810493,1489456181.0835669041,       -0.5976562500,        0.1450195312,       -0.0234375000,       -7.1105957031,       -7.7667236328,       57.7392578125
1489456181.0838499069,1489456181.0862810612,       -0.6020507812,        0.1508789062,        0.0268554688,       -7.1105957031,       -7.7667236328,       57.7392578125
1489456181.0865619183,1489456181.0890209675,       -0.6020507812,        0.1508789062,        0.0268554688,       -4.7149658203,       -8.0261230469,       57.1746826172
1489456181.0893080235,1489456181.0916841030,       -0.6020507812,        0.1508789062,        0.0268554688,       -4.7149658203,       -8.0261230469,       57.1746826172
1489456181.0919680595,1489456181.0943410397,       -0.6020507812,        0.1508789062,        0.0268554688,       -1.4953613281,       -7.8887939453,       56.3964843750
1489456181.0951011181,1489456181.0973939896,       -0.5820312500,        0.1665039062,        0.0522460938,       -1.4953613281,       -7.8887939453,       56.3964843750
1489456181.0976738930,1489456181.1000330448,       -0.5820312500,        0.1665039062,        0.0522460938,       -1.6326904297,       -9.7808837891,       55.6793212891
1489456181.1003139019,1489456181.1025960445,       -0.5820312500,        0.1665039062,        0.0522460938,       -1.6326904297,       -9.7808837891,       55.6793212891
1489456181.1028759480,1489456181.1051609516,       -0.5820312500,        0.1665039062,        0.0522460938,       -4.4250488281,      -12.1002197266,       54.8706054688
1489456181.1054449081,1489456181.1077558994,       -0.5961914062,        0.1166992188,        0.0590820312,       -4.4250488281,      -12.1002197266,       54.8706054688
1489456181.1080410480,1489456181.1103799343,       -0.5961914062,        0.1166992188,        0.0590820312,       -4.6691894531,      -13.9923095703,       54.1076660156
1489456181.1106638908,1489456181.1129510403,       -0.5961914062,        0.1166992188,        0.0590820312,       -4.6691894531,      -13.9923095703,       54.1076660156
1489456181.1132349968,1489456181.1155240536,       -0.5961914062,        0.1166992188,        0.0297851562,       -3.8909912109,      -15.5944824219,       51.5747070312
1489456181.1159069538,1489456181.1182029247,       -0.6904296875,        0.1660156250,        0.0297851562,       -3.8909912109,      -15.5944824219,       51.5747070312
1489456181.1184840202,1489456181.1207890511,       -0.6904296875,        0.1660156250,        0.0297851562,       -2.7160644531,      -16.2963867188,       49.2248535156
1489456181.1210699081,1489456181.1233611107,       -0.6904296875,        0.1660156250,        0.0297851562,       -2.7160644531,      -16.2963867188,       49.2248535156
1489456181.1236419678,1489456181.1259350777,       -0.6904296875,        0.2910156250,       -0.0009765625,       -2.7160644531,      -16.9982910156,       48.2177734375
1489456181.1262149811,1489456181.1285059452,       -0.7343750000,        0.3569335938,       -0.0009765625,       -0.8850097656,      -16.9982910156,       48.2177734375
1489456181.1288340092,1489456181.1311409473,       -0.7343750000,        0.3569335938,       -0.0009765625,       -0.8850097656,      -16.9982910156,       47.0886230469
1489456181.1314260960,1489456181.1337080002,       -0.7343750000,        0.3569335938,       -0.0009765625,        0.7324218750,      -17.6849365234,       47.0886230469
1489456181.1339910030,1489456181.1362800598,       -0.7343750000,        0.3081054688,       -0.0390625000,        0.7324218750,      -17.6849365234,       45.7458496094
1489456181.1365640163,1489456181.1389889717,       -0.7055664062,        0.3081054688,       -0.0390625000,        1.5563964844,      -17.6239013672,       45.7458496094
1489456181.1392719746,1489456181.1415669918,       -0.7055664062,        0.3081054688,       -0.0390625000,        1.5563964844,      -17.6239013672,       41.8395996094
1489456181.1418480873,1489456181.1441431046,       -0.7055664062,        0.3081054688,       -0.0390625000,        1.8005371094,      -17.5170898438,       42.8619384766
1489456181.1444249153,1489456181.1467258930,       -0.6816406250,        0.2421875000,       -0.0122070312,        1.8005371094,      -17.5170898438,       42.8619384766
1489456181.1470069885,1489456181.1494240761,       -0.6816406250,        0.2421875000,       -0.0122070312,        1.5716552734,      -19.0582275391,       39.6118164062
1489456181.1497139931,1489456181.1521289349,       -0.6816406250,        0.2421875000,       -0.0122070312,        1.5716552734,      -19.0582275391,       39.6118164062
1489456181.1524190903,1489456181.1548349857,       -0.6816406250,        0.2421875000,       -0.0122070312,        0.4119873047,      -20.0195312500,       38.6047363281
1489456181.1551280022,1489456181.1575419903,       -0.6518554688,        0.3618164062,        0.0327148438,        0.4119873047,      -20.0195312500,       38.6047363281
1489456181.1578319073,1489456181.1601839066,       -0.6518554688,        0.3618164062,        0.0327148438,        1.4495849609,      -20.6604003906,       37.2772216797
1489456181.1604659557,1489456181.1627550125,       -0.6518554688,        0.3618164062,        0.0327148438,        1.4495849609,      -20.6604003906,       37.2772216797
1489456181.1630361080,1489456181.1653270721,       -0.6518554688,        0.3618164062,        0.0327148438,        2.8076171875,      -21.6064453125,       34.8358154297
1489456181.1656079292,1489456181.1679019928,       -0.6093750000,        0.3452148438,        0.0678710938,        2.8076171875,      -21.6064453125,       34.8358154297
1489456181.1681830883,1489456181.1705610752,       -0.6093750000,        0.3452148438,        0.0678710938,        1.4190673828,      -22.4761962891,       32.4249267578
1489456181.1708478928,1489456181.1732480526,       -0.6093750000,        0.3452148438,        0.0678710938,        1.4190673828,      -22.4761962891,       32.4249267578
1489456181.1735360622,1489456181.1759359837,       -0.6093750000,        0.3452148438,        0.0678710938,       -1.3427734375,      -21.7895507812,       30.9753417969
1489456181.1762230396,1489456181.1786201000,       -0.6313476562,        0.2524414062,        0.0742187500,       -1.3427734375,      -21.7895507812,       30.9753417969
1489456181.1789178848,1489456181.1813189983,       -0.6313476562,        0.2524414062,        0.0742187500,       -3.4027099609,      -21.6827392578,       29.7393798828
1489456181.1817250252,1489456181.1841230392,       -0.6313476562,        0.2524414062,        0.0742187500,       -3.4027099609,      -21.6827392578,       29.7393798828
1489456181.1844110489,1489456181.1869270802,       -0.6313476562,        0.2553710938,        0.1054687500,       -4.9896240234,      -22.2015380859,       28.8543701172
1489456181.1872129440,1489456181.1896340847,       -0.7211914062,        0.2553710938,        0.1054687500,       -4.9896240234,      -22.2015380859,       28.8543701172
1489456181.1899240017,1489456181.1923069954,       -0.7211914062,        0.2553710938,        0.1054687500,       -6.7749023438,      -22.3388671875,       26.7944335938
1489456181.1925950050,1489456181.1955308914,       -0.7211914062,        0.2553710938,        0.1054687500,       -6.7749023438,      -22.3388671875,       26.7944335938
1489456181.1958160400,1489456181.1981089115,       -0.8515625000,        0.3198242188,        0.0805664062,       -7.7514648438,      -21.4691162109,       25.4821777344
1489456181.1983931065,1489456181.2007849216,       -0.8515625000,        0.3198242188,        0.0805664062,       -7.7514648438,      -21.4691162109,       25.4821777344
1489456181.2010669708,1489456181.2033519745,       -0.8515625000,        0.3198242188,        0.0805664062,       -7.8277587891,      -20.4010009766,       24.8413085938
1489456181.2036359310,1489456181.2059190273,       -0.8515625000,        0.3198242188,        0.0805664062,       -7.8277587891,      -20.4010009766,       24.8413085938
1489456181.2062020302,1489456181.2085020542,       -0.8500976562,        0.3295898438,        0.0644531250,       -6.9732666016,      -19.3634033203,       23.0102539062
1489456181.2087829113,1489456181.2111220360,       -0.8500976562,        0.3295898438,        0.0644531250,       -6.9732666016,      -19.3634033203,       23.0102539062
1489456181.2114028931,1489456181.2136919498,       -0.8500976562,        0.3295898438,        0.0644531250,       -4.8217773438,      -17.5781250000,       21.3775634766
1489456181.2139739990,1489456181.2162680626,       -0.8500976562,        0.3295898438,        0.0644531250,       -4.8217773438,      -17.5781250000,       21.3775634766
1489456181.2165489197,1489456181.2188808918,       -0.7607421875,        0.3032226562,        0.0581054688,       -4.2724609375,      -16.2353515625,       20.2789306641
1489456181.2191629410,1489456181.2214539051,       -0.7607421875,        0.3032226562,        0.0581054688,       -4.2724609375,      -16.2353515625,       20.2789306641
1489456181.2217369080,1489456181.2240290642,       -0.7607421875,        0.3032226562,        0.0581054688,       -4.2724609375,      -16.4489746094,       18.9208984375
1489456181.2243120670,1489456181.2265949249,       -0.7607421875,        0.3032226562,        0.0908203125,       -5.3405761719,      -16.4489746094,       18.9208984375
1489456181.2268769741,1489456181.2292358875,       -0.6777343750,        0.3461914062,        0.0908203125,       -5.3405761719,      -16.4489746094,       16.5863037109
1489456181.2295188904,1489456181.2318089008,       -0.6777343750,        0.3461914062,        0.0908203125,       -5.1269531250,      -15.9301757812,       16.5863037109
1489456181.2320899963,1489456181.2343790531,       -0.6777343750,        0.3461914062,        0.0908203125,       -5.1269531250,      -15.9301757812,       14.5721435547
1489456181.2346599102,1489456181.2369589806,       -0.6777343750,        0.3461914062,        0.0761718750,       -4.0740966797,      -14.8773193359,       14.5721435547
1489456181.2372410297,1489456181.2395861149,       -0.6489257812,        0.3496093750,        0.0761718750,       -4.0740966797,      -14.8773193359,       12.4816894531
1489456181.2398691177,1489456181.2421588898,       -0.6489257812,        0.3496093750,        0.0761718750,       -3.7078857422,      -14.4042968750,       12.4816894531
1489456181.2424390316,1489456181.2447280884,       -0.6489257812,        0.3496093750,        0.0761718750,       -3.7078857422,      -14.4042968750,       12.4816894531
1489456181.2451179028,1489456181.2474029064,       -0.6489257812,        0.3300781250,        0.1015625000,       -4.3182373047,      -13.7481689453,       10.8489990234
1489456181.2476849556,1489456181.2501220703,       -0.6328125000,        0.3300781250,        0.1015625000,       -4.3182373047,      -13.7481689453,       10.8489990234
1489456181.2504029274,1489456181.2526900768,       -0.6328125000,        0.3300781250,        0.1015625000,       -4.2572021484,      -12.7868652344,        8.8043212891
1489456181.2529680729,1489456181.2552559376,       -0.6328125000,        0.3300781250,        0.1015625000,       -4.2572021484,      -12.7868652344,        8.8043212891
1489456181.2555339336,1489456181.2578289509,       -0.6533203125,        0.3247070312,        0.1083984375,       -4.4250488281,      -12.3443603516,        6.5612792969
1489456181.2581069469,1489456181.2604010105,       -0.6533203125,        0.3247070312,        0.1083984375,       -4.4250488281,      -12.3443603516,        6.5612792969
1489456181.2606799603,1489456181.2629730701,       -0.6533203125,        0.3247070312,        0.1083984375,       -3.3416748047,      -11.7340087891,        5.1879882812
1489456181.2632520199,1489456181.2655398846,       -0.6533203125,        0.3247070312,        0.1083984375,       -3.3416748047,      -11.7340087891,        5.1879882812
1489456181.2658190727,1489456181.2681069374,       -0.6894531250,        0.2856445312,        0.0903320312,       -2.8686523438,      -11.3677978516,        3.8757324219
1489456181.2683870792,1489456181.2708089352,       -0.6894531250,        0.2856445312,        0.0903320312,       -2.8686523438,      -11.3677978516,        3.8757324219
1489456181.2710950375,1489456181.2734949589,       -0.6894531250,        0.2856445312,        0.0903320312,       -3.1433105469,      -11.2762451172,        2.6855468750
1489456181.2737810612,1489456181.2761828899,       -0.6894531250,        0.2856445312,        0.0903320312,       -3.1433105469,      -11.2762451172,        2.6855468750
1489456181.2764670849,1489456181.2788789272,       -0.7172851562,        0.3017578125,        0.0966796875,       -3.6010742188,      -10.8642578125,        1.7242431641
1489456181.2791628838,1489456181.2815639973,       -0.7172851562,        0.3017578125,        0.0966796875,       -3.6010742188,      -10.8642578125,        1.7242431641
1489456181.2818460464,1489456181.2842528820,       -0.7172851562,        0.3017578125,        0.0966796875,       -3.6926269531,      -10.4980468750,        0.1068115234
1489456181.2845399380,1489456181.2869389057,       -0.7172851562,        0.3017578125,        0.0966796875,       -3.6926269531,      -10.4980468750,        0.1068115234
1489456181.2872231007,1489456181.2896699905,       -0.6943359375,        0.3227539062,        0.0859375000,       -3.0517578125,       -9.1247558594,       -1.4648437500
1489456181.2899510860,1489456181.2923550606,       -0.6943359375,        0.3227539062,        0.0859375000,       -3.0517578125,       -9.1247558594,       -1.4648437500
1489456181.2926349640,1489456181.2950370312,       -0.6943359375,        0.3227539062,        0.0859375000,       -2.6702880859,       -8.4838867188,       -2.9602050781
1489456181.2953159809,1489456181.2977139950,       -0.6943359375,        0.3227539062,        0.0849609375,       -2.6702880859,       -8.4838867188,       -2.9602050781
1489456181.2979950905,1489456181.3004269600,       -0.6552734375,        0.3085937500,        0.0849609375,       -2.9144287109,       -7.2937011719,       -4.0588378906
1489456181.3007071018,1489456181.3030869961,       -0.6552734375,        0.3085937500,        0.0849609375,       -2.9144287109,       -7.2937011719,       -4.0588378906
1489456181.3033640385,1489456181.3058719635,       -0.6552734375,        0.3085937500,        0.0849609375,       -2.9144287109,       -6.5155029297,       -5.4473876953
1489456181.3061521053,1489456181.3086309433,       -0.6191406250,        0.3295898438,        0.1123046875,       -2.9449462891,       -6.5155029297,       -5.4473876953
1489456181.3098158836,1489456181.3121149540,       -0.6191406250,        0.3295898438,        0.1123046875,       -3.0517578125,       -6.6223144531,       -7.7514648438
1489456181.3123900890,1489456181.3146870136,       -0.6191406250,        0.3295898438,        0.1123046875,       -3.0517578125,       -6.6223144531,       -7.7514648438
1489456181.3149609566,1489456181.3172559738,       -0.6191406250,        0.3295898438,        0.1123046875,       -1.9836425781,       -6.0272216797,       -9.9792480469
1489456181.3175289631,1489456181.3198900223,       -0.6118164062,        0.3403320312,        0.1088867188,       -1.9836425781,       -6.0272216797,       -9.9792480469
1489456181.3201720715,1489456181.3225889206,       -0.6118164062,        0.3403320312,        0.1088867188,       -0.8850097656,       -6.0119628906,      -11.6271972656
1489456181.3228750229,1489456181.3252909184,       -0.6118164062,        0.3403320312,        0.1088867188,       -0.8850097656,       -6.0119628906,      -11.6271972656
1489456181.3255779743,1489456181.3279941082,       -0.6118164062,        0.3403320312,        0.0922851562,        0.2593994141,       -7.0953369141,      -13.9617919922
1489456181.3282799721,1489456181.3307070732,       -0.6357421875,        0.3037109375,        0.0922851562,        0.2593994141,       -7.0953369141,      -13.9617919922
1489456181.3309919834,1489456181.3334100246,       -0.6357421875,        0.3037109375,        0.0922851562,        1.5106201172,       -7.1411132812,      -15.3350830078
1489456181.3336949348,1489456181.3361170292,       -0.6357421875,        0.3037109375,        0.0922851562,        1.5106201172,       -7.1411132812,      -15.3350830078
1489456181.3364028931,1489456181.3388550282,       -0.6821289062,        0.2988281250,        0.0712890625,        2.1667480469,       -7.1716308594,      -16.3574218750
1489456181.3391339779,1489456181.3414289951,       -0.6821289062,        0.2988281250,        0.0712890625,        2.1667480469,       -7.1716308594,      -16.3574218750
1489456181.3417079449,1489456181.3439979553,       -0.6821289062,        0.2988281250,        0.0712890625,        2.6245117188,       -7.1868896484,      -17.4407958984
1489456181.3442759514,1489456181.3465669155,       -0.6821289062,        0.2988281250,        0.0712890625,        2.6245117188,       -7.1868896484,      -17.4407958984
1489456181.3468439579,1489456181.3491449356,       -0.6967773438,        0.2890625000,        0.0488281250,        2.6245117188,       -6.8206787109,      -18.0969238281
1489456181.3494229317,1489456181.3517169952,       -0.6967773438,        0.2890625000,        0.0488281250,        2.3345947266,       -6.8206787109,      -18.0969238281
1489456181.3519940376,1489456181.3542890549,       -0.6967773438,        0.2890625000,        0.0488281250,        2.3345947266,       -6.8206787109,      -18.2952880859
1489456181.3545670509,1489456181.3568630219,       -0.6967773438,        0.2890625000,        0.0488281250,        1.0375976562,       -6.3476562500,      -18.2952880859
1489456181.3571400642,1489456181.3595631123,       -0.6918945312,        0.2729492188,        0.0693359375,        1.0375976562,       -6.3476562500,      -18.4173583984
1489456181.3598420620,1489456181.3621339798,       -0.6918945312,        0.2729492188,        0.0693359375,       -0.6866455078,       -5.9509277344,      -18.4173583984
1489456181.3624119759,1489456181.3647029400,       -0.6918945312,        0.2729492188,        0.0693359375,       -0.6866455078,       -5.9509277344,      -18.4173583984
1489456181.3649830818,1489456181.3672699928,       -0.6918945312,        0.2729492188,        0.0693359375,       -1.6479492188,       -5.0354003906,      -18.9819335938
1489456181.3675479889,1489456181.3700261116,       -0.6684570312,        0.2875976562,        0.0966796875,       -1.6479492188,       -5.0354003906,      -18.9819335938
1489456181.3703129292,1489456181.3727118969,       -0.6684570312,        0.2875976562,        0.0966796875,       -2.4108886719,       -4.6997070312,      -19.5617675781
1489456181.3731060028,1489456181.3755040169,       -0.6684570312,        0.2875976562,        0.0966796875,       -2.4108886719,       -4.6997070312,      -19.5617675781
1489456181.3757889271,1489456181.3781950474,       -0.6684570312,        0.2875976562,        0.0942382812,       -1.9989013672,       -4.7454833984,      -20.3247070312
1489456181.3784799576,1489456181.3808848858,       -0.6538085938,        0.2905273438,        0.0942382812,       -1.9989013672,       -4.7454833984,      -20.3247070312
1489456181.3811690807,1489456181.3835709095,       -0.6538085938,        0.2905273438,        0.0942382812,       -1.4038085938,       -4.3640136719,      -21.8963623047
1489456181.3838560581,1489456181.3862559795,       -0.6538085938,        0.2905273438,        0.0942382812,       -1.4038085938,       -4.3640136719,      -21.8963623047
1489456181.3865399361,1489456181.3889470100,       -0.6538085938,        0.2700195312,        0.0971679688,       -0.2899169922,       -4.7760009766,      -22.7355957031
1489456181.3892319202,1489456181.3916339874,       -0.6894531250,        0.2700195312,        0.0971679688,       -0.2899169922,       -4.7760009766,      -22.7355957031
1489456181.3920900822,1489456181.3943839073,       -0.6894531250,        0.2700195312,        0.0971679688,        0.2441406250,       -4.3792724609,      -23.5595703125
1489456181.3946630955,1489456181.3969519138,       -0.6894531250,        0.2700195312,        0.0971679688,        0.2441406250,       -4.3792724609,      -23.5595703125
1489456181.3972311020,1489456181.3995881081,       -0.7070312500,        0.2568359375,        0.1074218750,        1.5106201172,       -4.0740966797,      -24.2309570312
1489456181.3998730183,1489456181.4022519588,       -0.7070312500,        0.2568359375,        0.1074218750,        1.5106201172,       -4.0740966797,      -24.2309570312
1489456181.4025371075,1489456181.4050469398,       -0.7070312500,        0.2568359375,        0.1074218750,        2.6550292969,       -4.2877197266,      -25.2838134766
1489456181.4053421021,1489456181.4076750278,       -0.7070312500,        0.2568359375,        0.1074218750,        2.6550292969,       -4.2877197266,      -25.2838134766
1489456181.4079570770,1489456181.4103319645,       -0.7138671875,        0.2402343750,        0.1059570312,        3.4484863281,       -4.0130615234,      -25.6805419922
1489456181.4106099606,1489456181.4129009247,       -0.7138671875,        0.2402343750,        0.1059570312,        3.4484863281,       -4.0130615234,      -25.6805419922
1489456181.4131789207,1489456181.4154639244,       -0.7138671875,        0.2402343750,        0.1059570312,        3.9520263672,       -4.1656494141,      -26.0925292969
1489456181.4157419205,1489456181.4180309772,       -0.7138671875,        0.2402343750,        0.1059570312,        3.9520263672,       -4.1656494141,      -26.0925292969
1489456181.4183080196,1489456181.4205999374,       -0.6933593750,        0.2558593750,        0.0932617188,        4.4555664062,       -4.1656494141,      -26.2145996094
1489456181.4208769798,1489456181.4231650829,       -0.6933593750,        0.2558593750,        0.0932617188,        4.4555664062,       -4.1656494141,      -26.2145996094
1489456181.4234418869,1489456181.4257290363,       -0.6933593750,        0.2558593750,        0.0932617188,        4.8675537109,       -4.2419433594,      -26.6265869141
1489456181.4260070324,1489456181.4282929897,       -0.6933593750,        0.2558593750,        0.0932617188,        4.8675537109,       -4.2419433594,      -26.6265869141
1489456181.4285719395,1489456181.4308629036,       -0.6684570312,        0.2719726562,        0.0795898438,        4.8675537109,       -4.3945312500,      -27.2064208984
1489456181.4311408997,1489456181.4334299564,       -0.6684570312,        0.2719726562,        0.0795898438,        5.3253173828,       -4.3945312500,      -27.2064208984
1489456181.4337069988,1489456181.4359951019,       -0.6684570312,        0.2719726562,        0.0795898438,        5.3253173828,       -4.3945312500,      -27.8320312500
1489456181.4363830090,1489456181.4386680126,       -0.6684570312,        0.2719726562,        0.0874023438,        6.1645507812,       -4.6386718750,      -27.8320312500
1489456181.4389469624,1489456181.4412341118,       -0.6665039062,        0.2700195312,        0.0874023438,        6.1645507812,       -4.6386718750,      -28.1372070312
1489456181.4415130615,1489456181.4438009262,       -0.6665039062,        0.2700195312,        0.0874023438,        7.1716308594,       -4.8522949219,      -28.1372070312
1489456181.4440810680,1489456181.4463670254,       -0.6665039062,        0.2700195312,        0.0874023438,        7.1716308594,       -4.8522949219,      -28.1372070312
1489456181.4466459751,1489456181.4490139484,       -0.6665039062,        0.2700195312,        0.0791015625,        7.6751708984,       -4.1351318359,      -28.3813476562
1489456181.4492928982,1489456181.4515879154,       -0.6855468750,        0.2387695312,        0.0791015625,        7.6751708984,       -4.1351318359,      -28.3813476562
1489456181.4518649578,1489456181.4541530609,       -0.6855468750,        0.2387695312,        0.0791015625,        8.0108642578,       -3.6773681641,      -28.6712646484
1489456181.4544310570,1489456181.4567260742,       -0.6855468750,        0.2387695312,        0.0791015625,        8.0108642578,       -3.6773681641,      -28.6712646484
1489456181.4570050240,1489456181.4593830109,       -0.6855468750,        0.2143554688,        0.1127929688,        8.7432861328,       -3.9062500000,      -28.4423828125
1489456181.4596641064,1489456181.4619560242,       -0.6962890625,        0.2143554688,        0.1127929688,        8.7432861328,       -3.9062500000,      -28.4423828125
1489456181.4622359276,1489456181.4645268917,       -0.6962890625,        0.2143554688,        0.1127929688,        8.6364746094,       -3.4637451172,      -28.0914306641
1489456181.4648048878,1489456181.4670960903,       -0.6962890625,        0.2143554688,        0.1127929688,        8.6364746094,       -3.4637451172,      -28.0914306641
1489456181.4673750401,1489456181.4697198868,       -0.6962890625,        0.2006835938,        0.1035156250,        9.3841552734,       -3.0822753906,      -27.6031494141
1489456181.4700100422,1489456181.4724280834,       -0.7426757812,        0.2006835938,        0.1035156250,        9.3841552734,       -3.0822753906,      -27.6031494141
1489456181.4727149010,1489456181.4751260281,       -0.7426757812,        0.2006835938,        0.1035156250,        9.4909667969,       -3.0364990234,      -26.7181396484
1489456181.4754118919,1489456181.4778299332,       -0.7426757812,        0.2006835938,        0.1035156250,        9.4909667969,       -3.0364990234,      -26.7181396484
1489456181.4781160355,1489456181.4805440903,       -0.7465820312,        0.1958007812,        0.0869140625,        9.6588134766,       -3.2653808594,      -25.9094238281
1489456181.4808290005,1489456181.4832420349,       -0.7465820312,        0.1958007812,        0.0869140625,        9.6588134766,       -3.2653808594,      -25.9094238281
1489456181.4835278988,1489456181.4859380722,       -0.7465820312,        0.1958007812,        0.0869140625,        9.9639892578,       -3.1585693359,      -24.9481201172
1489456181.4862239361,1489456181.4886429310,       -0.7465820312,        0.1958007812,        0.0869140625,        9.9639892578,       -3.1585693359,      -24.9481201172
1489456181.4889400005,1489456181.4913508892,       -0.7021484375,        0.2368164062,        0.0898437500,        9.8114013672,       -3.3569335938,      -23.8037109375
1489456181.4916379452,1489456181.4940481186,       -0.7021484375,        0.2368164062,        0.0898437500,        9.8114013672,       -3.3569335938,      -23.8037109375
1489456181.4943339825,1489456181.4968230724,       -0.7021484375,        0.2368164062,        0.0898437500,        9.9334716797,       -3.4484863281,      -23.2238769531
1489456181.4971039295,1489456181.4996120930,       -0.7021484375,        0.2368164062,        0.0981445312,        9.9334716797,       -3.4484863281,      -23.2238769531
1489456181.5000150204,1489456181.5024058819,       -0.6645507812,        0.2495117188,        0.0981445312,       10.7421875000,       -3.5552978516,      -23.5137939453
1489456181.5026950836,1489456181.5057070255,       -0.6645507812,        0.2495117188,        0.0981445312,       10.7421875000,       -3.5552978516,      -23.5137939453
1489456181.5059928894,1489456181.5082869530,       -0.6645507812,        0.2495117188,        0.0981445312,       12.0086669922,       -3.5247802734,      -24.1394042969
1489456181.5085699558,1489456181.5108649731,       -0.6552734375,        0.2524414062,        0.0903320312,       12.0086669922,       -3.5247802734,      -24.1394042969
1489456181.5111470222,1489456181.5134348869,       -0.6552734375,        0.2524414062,        0.0903320312,       13.3209228516,       -3.4942626953,      -24.3682861328
1489456181.5137178898,1489456181.5160069466,       -0.6552734375,        0.2524414062,        0.0903320312,       13.3209228516,       -3.4942626953,      -24.3682861328
1489456181.5162899494,1489456181.5185799599,       -0.6552734375,        0.2524414062,        0.0903320312,       14.5416259766,       -3.3874511719,      -24.4750976562
1489456181.5188789368,1489456181.5211699009,       -0.6689453125,        0.2475585938,        0.0996093750,       14.5416259766,       -3.3874511719,      -24.4750976562
1489456181.5214509964,1489456181.5237460136,       -0.6689453125,        0.2475585938,        0.0996093750,       15.8691406250,       -3.6926269531,      -24.3072509766
1489456181.5240280628,1489456181.5263168812,       -0.6689453125,        0.2475585938,        0.0996093750,       15.8691406250,       -3.6926269531,      -24.3072509766
1489456181.5265989304,1489456181.5288980007,       -0.6689453125,        0.2475585938,        0.0996093750,       15.8691406250,       -3.6468505859,      -24.1699218750
1489456181.5291800499,1489456181.5314700603,       -0.6889648438,        0.2202148438,        0.0844726562,       17.7917480469,       -3.6468505859,      -24.1699218750
1489456181.5317521095,1489456181.5340380669,       -0.6889648438,        0.2202148438,        0.0844726562,       17.7917480469,       -7.5531005859,      -23.9562988281
1489456181.5343210697,1489456181.5366139412,       -0.6889648438,        0.2202148438,        0.0844726562,       19.8211669922,       -3.9367675781,      -23.9562988281
1489456181.5368959904,1489456181.5393390656,       -0.6889648438,        0.2202148438,        0.0844726562,       19.8211669922,       -3.9367675781,      -23.1933593750
1489456181.5396220684,1489456181.5419170856,       -0.7255859375,        0.1958007812,        0.0839843750,       20.5993652344,       -3.9062500000,      -23.1933593750
1489456181.5421988964,1489456181.5444889069,       -0.7255859375,        0.1958007812,        0.0839843750,       20.5993652344,       -3.9062500000,      -22.3083496094
1489456181.5447731018,1489456181.5470609665,       -0.7255859375,        0.1958007812,        0.0839843750,       21.9573974609,       -3.4484863281,      -22.3083496094
1489456181.5473439693,1489456181.5497670174,       -0.7255859375,        0.1958007812,        0.0839843750,       21.9573974609,       -3.4484863281,      -22.3083496094
1489456181.5500500202,1489456181.5523419380,       -0.7231445312,        0.1791992188,        0.0732421875,       23.4527587891,       -3.0059814453,      -20.1721191406
1489456181.5526230335,1489456181.5549099445,       -0.7231445312,        0.1791992188,        0.0732421875,       23.4527587891,       -3.0059814453,      -20.1721191406
1489456181.5551910400,1489456181.5574820042,       -0.7231445312,        0.1791992188,        0.0732421875,       25.1922607422,       -2.6550292969,      -18.5089111328
1489456181.5577630997,1489456181.5601921082,       -0.7231445312,        0.1791992188,        0.0825195312,       25.1922607422,       -2.6550292969,      -18.5089111328
1489456181.5604739189,1489456181.5627620220,       -0.7290039062,        0.1875000000,        0.0825195312,       24.9023437500,       -2.0904541016,      -16.9067382812
1489456181.5631539822,1489456181.5654489994,       -0.7290039062,        0.1875000000,        0.0825195312,       24.9023437500,       -2.0904541016,      -16.9067382812
1489456181.5657289028,1489456181.5680139065,       -0.7290039062,        0.1875000000,        0.0825195312,       23.7884521484,       -1.8310546875,      -15.3503417969
1489456181.5682959557,1489456181.5705990791,       -0.7290039062,        0.1943359375,        0.1015625000,       23.7884521484,       -1.8310546875,      -15.3503417969
1489456181.5708799362,1489456181.5731639862,       -0.7016601562,        0.1943359375,        0.1015625000,       23.3764648438,       -0.7476806641,      -13.1378173828
1489456181.5734479427,1489456181.5757329464,       -0.7016601562,        0.1943359375,        0.1015625000,       23.3764648438,       -0.7476806641,      -13.1378173828
1489456181.5760159492,1489456181.5783081055,       -0.7016601562,        0.1943359375,        0.1015625000,       23.5900878906,       -0.3967285156,      -11.8103027344
1489456181.5785899162,1489456181.5809218884,       -0.7016601562,        0.2114257812,        0.0966796875,       23.5900878906,       -0.3967285156,      -11.8103027344
1489456181.5812048912,1489456181.5834898949,       -0.6782226562,        0.2114257812,        0.0966796875,       22.9492187500,        0.0915527344,      -11.0931396484
1489456181.5837719440,1489456181.5860619545,       -0.6782226562,        0.2114257812,        0.0966796875,       22.9492187500,        0.0915527344,      -11.0931396484
1489456181.5863449574,1489456181.5886349678,       -0.6782226562,        0.2114257812,        0.0966796875,       22.9492187500,        0.9307861328,       -9.7808837891
1489456181.5889210701,1489456181.5913379192,       -0.7001953125,        0.1704101562,        0.1108398438,       22.1099853516,        0.9307861328,       -9.7808837891
1489456181.5916259289,1489456181.5940389633,       -0.7001953125,        0.1704101562,        0.1108398438,       22.1099853516,        1.7700195312,       -8.6822509766
1489456181.5943250656,1489456181.5967929363,       -0.7001953125,        0.1704101562,        0.1108398438,       22.3083496094,        1.7700195312,       -8.6822509766
1489456181.5970749855,1489456181.5995829105,       -0.7001953125,        0.1704101562,        0.1108398438,       22.3083496094,        2.2125244141,       -7.2784423828
1489456181.5998680592,1489456181.6022479534,       -0.7270507812,        0.1567382812,        0.1176757812,       22.3236083984,        2.2125244141,       -7.2784423828
1489456181.6025300026,1489456181.6052160263,       -0.7270507812,        0.1567382812,        0.1176757812,       22.3236083984,        2.7008056641,       -5.9967041016
1489456181.6055080891,1489456181.6078050137,       -0.7270507812,        0.1567382812,        0.1176757812,       22.5372314453,        2.7008056641,       -5.9967041016
1489456181.6080861092,1489456181.6104290485,       -0.7270507812,        0.1567382812,        0.1108398438,       22.5372314453,        2.9602050781,       -4.5318603516
1489456181.6107089520,1489456181.6130011082,       -0.7514648438,        0.1528320312,        0.1108398438,       22.5677490234,        2.9602050781,       -4.5318603516
1489456181.6132791042,1489456181.6155669689,       -0.7514648438,        0.1528320312,        0.1108398438,       22.5677490234,        2.9602050781,       -2.8533935547
1489456181.6158430576,1489456181.6181330681,       -0.7514648438,        0.1528320312,        0.1108398438,       22.8881835938,        2.9144287109,       -2.8533935547
1489456181.6184089184,1489456181.6207671165,       -0.7514648438,        0.1528320312,        0.1064453125,       22.8881835938,        2.9144287109,       -1.2054443359
1489456181.6210439205,1489456181.6233329773,       -0.7255859375,        0.1782226562,        0.1064453125,       23.6206054688,        2.2277832031,       -1.2054443359
1489456181.6236119270,1489456181.6258969307,       -0.7255859375,        0.1782226562,        0.1064453125,       23.6206054688,        2.2277832031,       -1.2054443359
1489456181.6262950897,1489456181.6285800934,       -0.7255859375,        0.1782226562,        0.1064453125,       24.5056152344,        1.8920898438,       -0.6713867188
1489456181.6288619041,1489456181.6311519146,       -0.7255859375,        0.2094726562,        0.0668945312,       24.5056152344,        1.8920898438,       -0.6713867188
1489456181.6314311028,1489456181.6337211132,       -0.7094726562,        0.2094726562,        0.0668945312,       26.4739990234,        1.9226074219,        0.8697509766
1489456181.6339979172,1489456181.6362869740,       -0.7094726562,        0.2094726562,        0.0668945312,       26.4739990234,        1.9226074219,        0.8697509766
1489456181.6365640163,1489456181.6388769150,       -0.7094726562,        0.2094726562,        0.0668945312,       30.0598144531,        2.2277832031,        2.5634765625
1489456181.6391539574,1489456181.6414480209,       -0.7094726562,        0.2089843750,        0.0571289062,       30.0598144531,        2.2277832031,        2.5634765625
1489456181.6417250633,1489456181.6440169811,       -0.7163085938,        0.2089843750,        0.0571289062,       30.1361083984,        2.9602050781,        2.2888183594
1489456181.6442940235,1489456181.6465840340,       -0.7163085938,        0.2089843750,        0.0571289062,       30.1361083984,        2.9602050781,        2.2888183594
1489456181.6468610764,1489456181.6492240429,       -0.7163085938,        0.2089843750,        0.0571289062,       29.7393798828,        3.8452148438,        4.0740966797
1489456181.6495029926,1489456181.6517920494,       -0.6914062500,        0.1992187500,        0.0493164062,       29.7393798828,        3.8452148438,        4.0740966797
1489456181.6520709991,1489456181.6543610096,       -0.6914062500,        0.1992187500,        0.0493164062,       28.3355712891,        4.3334960938,        5.7525634766
1489456181.6546399593,1489456181.6569280624,       -0.6914062500,        0.1992187500,        0.0493164062,       28.3355712891,        4.3334960938,        5.7525634766
1489456181.6572070122,1489456181.6596291065,       -0.6914062500,        0.1992187500,        0.0493164062,       24.4293212891,        4.3029785156,        6.5612792969
1489456181.6599090099,1489456181.6622009277,       -0.6967773438,        0.1635742188,        0.0483398438,       26.4892578125,        4.3029785156,        6.5612792969
1489456181.6624801159,1489456181.6647629738,       -0.6967773438,        0.1635742188,        0.0483398438,       26.4892578125,        3.7536621094,        7.0190429688
1489456181.6650400162,1489456181.6673269272,       -0.6967773438,        0.1635742188,        0.0483398438,       24.6734619141,        3.7536621094,        7.0190429688
1489456181.6676039696,1489456181.6698980331,       -0.6967773438,        0.1635742188,        0.0483398438,       24.6734619141,        3.7536621094,        7.9345703125
1489456181.6701750755,1489456181.6724638939,       -0.7353515625,        0.1894531250,        0.0537109375,       23.7274169922,        3.4942626953,        7.9345703125
1489456181.6727399826,1489456181.6750369072,       -0.7353515625,        0.1894531250,        0.0537109375,       23.7274169922,        3.4942626953,        7.9345703125
1489456181.6753139496,1489456181.6776020527,       -0.7353515625,        0.1894531250,        0.0537109375,       23.3459472656,        3.4179687500,        9.5062255859
1489456181.6778810024,1489456181.6802320480,       -0.7353515625,        0.1894531250,        0.0537109375,       23.3459472656,        3.4179687500,        9.5062255859
1489456181.6805109978,1489456181.6827960014,       -0.7495117188,        0.1884765625,        0.0541992188,       23.7274169922,        3.1585693359,       10.9558105469
1489456181.6830759048,1489456181.6853640079,       -0.7495117188,        0.1884765625,        0.0541992188,       23.7274169922,        3.1585693359,       10.9558105469
1489456181.6856439114,1489456181.6879360676,       -0.7495117188,        0.1884765625,        0.0541992188,       23.6053466797,        2.7160644531,       12.3138427734
1489456181.6883270741,1489456181.6907320023,       -0.7495117188,        0.1884765625,        0.0541992188,       23.6053466797,        2.7160644531,       12.3138427734
1489456181.6910150051,1489456181.6933059692,       -0.7436523438,        0.1835937500,        0.0786132812,       23.3154296875,        2.4108886719,       13.5498046875
1489456181.6935870647,1489456181.6958758831,       -0.7436523438,        0.1835937500,        0.0786132812,       23.3154296875,        2.4108886719,       13.5498046875
1489456181.6961560249,1489456181.6984460354,       -0.7436523438,        0.1835937500,        0.0786132812,       22.8424072266,        1.8157958984,       14.3737792969
1489456181.6987268925,1489456181.7010219097,       -0.7436523438,        0.1835937500,        0.0786132812,       22.8424072266,        1.8157958984,       14.3737792969
1489456181.7013039589,1489456181.7035899162,       -0.7319335938,        0.2148437500,        0.0703125000,       22.4151611328,        1.8920898438,       15.2130126953
1489456181.7038741112,1489456181.7061600685,       -0.7319335938,        0.2148437500,        0.0703125000,       22.4151611328,        1.8920898438,       15.2130126953
1489456181.7064421177,1489456181.7087330818,       -0.7319335938,        0.2148437500,        0.0703125000,       22.7355957031,        1.9226074219,       15.8233642578
1489456181.7090768814,1489456181.7113668919,       -0.7319335938,        0.2148437500,        0.0620117188,       22.7355957031,        1.9226074219,       15.8233642578
1489456181.7116479874,1489456181.7139348984,       -0.7368164062,        0.2070312500,        0.0620117188,       22.7355957031,        2.5177001953,       16.2811279297
1489456181.7142169476,1489456181.7166550159,       -0.7368164062,        0.2070312500,        0.0620117188,       23.2849121094,        2.5177001953,       16.2811279297
1489456181.7169389725,1489456181.7195188999,       -0.7368164062,        0.2070312500,        0.0620117188,       23.2849121094,        3.5247802734,       17.1508789062
1489456181.7198119164,1489456181.7222299576,       -0.8618164062,        0.1933593750,        0.0605468750,       22.8881835938,        3.5247802734,       17.1508789062
1489456181.7225189209,1489456181.7249400616,       -0.7539062500,        0.1933593750,        0.0605468750,       22.8881835938,        4.4097900391,       17.8680419922
1489456181.7252299786,1489456181.7276461124,       -0.7539062500,        0.1933593750,        0.0605468750,       21.8963623047,        4.4097900391,       17.8680419922
1489456181.7279338837,1489456181.7303590775,       -0.7539062500,        0.1933593750,        0.0605468750,       21.8963623047,        4.9743652344,       18.2495117188
1489456181.7306470871,1489456181.7330648899,       -0.7607421875,        0.2016601562,        0.0581054688,       19.7448730469,        4.9743652344,       18.2495117188
1489456181.7333559990,1489456181.7357759476,       -0.7607421875,        0.2016601562,        0.0581054688,       15.8386230469,        5.4779052734,       17.8222656250
1489456181.7360649109,1489456181.7384769917,       -0.7607421875,        0.2016601562,        0.0581054688,       18.2342529297,        5.4779052734,       17.8222656250
1489456181.7387659550,1489456181.7411849499,       -0.7607421875,        0.2016601562,        0.0581054688,       18.2342529297,        6.5460205078,       17.4865722656
1489456181.7414729595,1489456181.7438900471,       -0.7792968750,        0.2221679688,        0.0351562500,       15.9301757812,        6.5460205078,       17.4865722656
1489456181.7441780567,1489456181.7465929985,       -0.7792968750,        0.2221679688,        0.0351562500,       12.0239257812,        7.7514648438,       17.3034667969
1489456181.7468841076,1489456181.7492990494,       -0.7792968750,        0.2221679688,        0.0351562500,       15.3350830078,        7.7514648438,       17.3034667969
1489456181.7495820522,1489456181.7518730164,       -0.7792968750,        0.2221679688,        0.0537109375,       15.3350830078,        9.0942382812,       16.6015625000
1489456181.7522580624,1489456181.7545540333,       -0.7973632812,        0.2563476562,        0.0537109375,       14.6484375000,        9.0942382812,       16.6015625000
1489456181.7548360825,1489456181.7571280003,       -0.7973632812,        0.2563476562,        0.0537109375,       14.6484375000,        9.0942382812,       15.3350830078
1489456181.7574090958,1489456181.7597119808,       -0.7973632812,        0.2563476562,        0.0537109375,       14.6331787109,       10.1470947266,       15.3350830078
1489456181.7599949837,1489456181.7622900009,       -0.7973632812,        0.2573242188,        0.0541992188,       14.6331787109,       10.1470947266,       14.4653320312
1489456181.7625749111,1489456181.7648689747,       -0.8061523438,        0.2573242188,        0.0541992188,       15.1519775391,       10.6658935547,       14.4653320312
1489456181.7651519775,1489456181.7674450874,       -0.8061523438,        0.2573242188,        0.0541992188,       15.1519775391,       10.6658935547,       14.4653320312
1489456181.7677290440,1489456181.7701170444,       -0.8061523438,        0.2573242188,        0.0541992188,       15.1367187500,       10.5895996094,       12.9089355469
1489456181.7704019547,1489456181.7726919651,       -0.8061523438,        0.2607421875,        0.0571289062,       15.1367187500,       10.5895996094,       12.9089355469
1489456181.7729790211,1489456181.7752690315,       -0.8105468750,        0.2607421875,        0.0571289062,       14.8162841797,       10.9405517578,       11.1541748047
1489456181.7755548954,1489456181.7778470516,       -0.8105468750,        0.2607421875,        0.0571289062,       14.8162841797,       10.9405517578,       11.1541748047
1489456181.7781300545,1489456181.7805950642,       -0.8105468750,        0.2607421875,        0.0571289062,       15.2587890625,       11.8103027344,        9.7351074219
1489456181.7808840275,1489456181.7833039761,       -0.8369140625,        0.2753906250,        0.0219726562,       15.2587890625,       11.8103027344,        9.7351074219
1489456181.7835929394,1489456181.7860069275,       -0.8369140625,        0.2753906250,        0.0219726562,       16.7236328125,       12.8631591797,        9.0484619141
1489456181.7862958908,1489456181.7887139320,       -0.8369140625,        0.2753906250,        0.0219726562,       16.7236328125,       12.8631591797,        9.0484619141
1489456181.7890460491,1489456181.7913300991,       -0.8369140625,        0.2753906250,        0.0219726562,       16.7999267578,       13.6108398438,        8.1481933594
1489456181.7916131020,1489456181.7939040661,       -0.8759765625,        0.2436523438,        0.0131835938,       16.7999267578,       13.6108398438,        8.1481933594
1489456181.7941880226,1489456181.7964789867,       -0.8759765625,        0.2436523438,        0.0131835938,       16.8151855469,       15.0604248047,        7.8430175781
1489456181.7967588902,1489456181.7990849018,       -0.8759765625,        0.2436523438,        0.0131835938,       16.8151855469,       15.0604248047,        7.8430175781
1489456181.7993719578,1489456181.8019049168,       -0.8759765625,        0.2436523438,        0.0131835938,       16.1132812500,       15.7165527344,        7.1258544922
1489456181.8021860123,1489456181.8044800758,       -0.9443359375,        0.2197265625,        0.0405273438,       16.1132812500,       15.7165527344,        7.1258544922
1489456181.8047590256,1489456181.8070569038,       -0.9443359375,        0.2197265625,        0.0405273438,       16.0217285156,       15.3656005859,        6.7596435547
1489456181.8073370457,1489456181.8098020554,       -0.9443359375,        0.2197265625,        0.0405273438,       16.0217285156,       15.3656005859,        6.7596435547
1489456181.8100891113,1489456181.8124709129,       -0.9443359375,        0.2197265625,        0.0605468750,       17.6391601562,       13.7329101562,        5.9356689453
1489456181.8127579689,1489456181.8153851032,       -0.9399414062,        0.2241210938,        0.0605468750,       17.6391601562,       13.7329101562,        5.9356689453
1489456181.8156690598,1489456181.8179569244,       -0.9399414062,        0.2241210938,        0.0605468750,       22.0336914062,       12.2833251953,        6.2561035156
1489456181.8183460236,1489456181.8207650185,       -0.9399414062,        0.2241210938,        0.0605468750,       22.0336914062,       12.2833251953,        6.2561035156
1489456181.8210461140,1489456181.8233311176,       -0.9746093750,        0.2075195312,        0.0385742188,       27.2521972656,       10.8795166016,        6.6680908203
1489456181.8236129284,1489456181.8258979321,       -0.9746093750,        0.2075195312,        0.0385742188,       27.2521972656,       10.8795166016,        6.6680908203
1489456181.8261799812,1489456181.8284740448,       -0.9746093750,        0.2075195312,        0.0385742188,       32.3486328125,        9.5825195312,        6.7138671875
1489456181.8287539482,1489456181.8310489655,       -0.9746093750,        0.2075195312,        0.0385742188,       32.3486328125,        9.5825195312,        6.7138671875
1489456181.8313279152,1489456181.8336119652,       -1.0473632812,        0.1660156250,       -0.0073242188,       36.2548828125,        8.2702636719,        8.0261230469
1489456181.8338909149,1489456181.8361771107,       -1.0473632812,        0.1660156250,       -0.0073242188,       36.5142822266,        8.2702636719,        8.0261230469
1489456181.8364560604,1489456181.8387460709,       -1.0473632812,        0.1660156250,       -0.0073242188,       36.5142822266,        4.3640136719,        9.5520019531
1489456181.8390901089,1489456181.8413798809,       -1.0473632812,        0.1660156250,       -0.0073242188,       40.6036376953,        6.5307617188,        9.5520019531
1489456181.8416569233,1489456181.8439431190,       -1.1069335938,        0.1416015625,       -0.0092773438,       40.6036376953,        6.5307617188,       11.0168457031
1489456181.8442239761,1489456181.8465149403,       -1.1069335938,        0.1416015625,       -0.0092773438,       44.4793701172,        5.3405761719,       11.0168457031
1489456181.8467960358,1489456181.8491818905,       -1.1069335938,        0.1416015625,       -0.0092773438,       44.4793701172,        5.3405761719,       14.9230957031
1489456181.8494620323,1489456181.8517529964,       -1.1069335938,        0.1416015625,       -0.0092773438,       47.9431152344,        3.4942626953,       11.7950439453
1489456181.8520350456,1489456181.8543269634,       -1.1430664062,        0.0937500000,       -0.0156250000,       47.9431152344,        3.4942626953,       11.7950439453
1489456181.8546071053,1489456181.8568959236,       -1.1430664062,        0.0937500000,       -0.0156250000,       51.3610839844,        1.3275146484,       13.3361816406
1489456181.8571760654,1489456181.8595690727,       -1.1430664062,        0.0937500000,       -0.0156250000,       51.3610839844,        1.3275146484,       13.3361816406
1489456181.8598480225,1489456181.8621449471,       -1.1430664062,        0.0937500000,       -0.0156250000,       52.1240234375,       -0.3967285156,       16.3726806641
1489456181.8624260426,1489456181.8647150993,       -1.1362304688,       -0.0043945312,       -0.0156250000,       52.1240234375,       -0.3967285156,       16.3726806641
1489456181.8649981022,1489456181.8672890663,       -1.1362304688,       -0.0043945312,       -0.0156250000,       49.1180419922,       -2.6092529297,       18.3715820312
1489456181.8675711155,1489456181.8699529171,       -1.1362304688,       -0.0043945312,       -0.0156250000,       49.1180419922,       -2.6092529297,       18.3715820312
1489456181.8702380657,1489456181.8725209236,       -1.1362304688,       -0.0043945312,       -0.0156250000,       42.2210693359,       -4.4097900391,       19.4244384766
1489456181.8728010654,1489456181.8750910759,       -1.1464843750,       -0.0854492188,       -0.0551757812,       42.2210693359,       -4.4097900391,       19.4244384766
1489456181.8753709793,1489456181.8776650429,       -1.1464843750,       -0.0854492188,       -0.0551757812,       36.4379882812,       -6.0424804688,       21.8658447266
1489456181.8779449463,1489456181.8803191185,       -1.1464843750,       -0.0854492188,       -0.0551757812,       36.4379882812,       -6.0424804688,       21.8658447266
1489456181.8807129860,1489456181.8830120564,       -1.1464843750,       -0.0854492188,       -0.0576171875,       32.9132080078,       -7.0648193359,       26.2908935547
1489456181.8832929134,1489456181.8855791092,       -1.1088867188,       -0.0302734375,       -0.0576171875,       32.9132080078,       -7.0648193359,       26.2908935547
1489456181.8858580589,1489456181.8881409168,       -1.1088867188,       -0.0302734375,       -0.0576171875,       29.0069580078,       -6.1340332031,       31.9671630859
1489456181.8884210587,1489456181.8908610344,       -1.1088867188,       -0.0302734375,       -0.0576171875,       28.7017822266,       -6.1340332031,       31.9671630859
1489456181.8911480904,1489456181.8935489655,       -1.1088867188,       -0.0063476562,       -0.0205078125,       20.8892822266,       -4.6844482422,       39.5050048828
1489456181.8938388824,1489456181.8962419033,       -1.0629882812,       -0.0063476562,       -0.0205078125,       23.3459472656,       -4.6844482422,       39.5050048828
