time_stamp before, time_stamp after, Acceleration x, Acceleration y, Acceleration z, Gyro x, Gyro y, Gyro z
1489456240.0199780464,1489456240.0325338840,       -0.2241210938,        0.6816406250,       -0.1455078125,        0.1678466797,       -0.9460449219,       -0.8850097656
1489456240.0328390598,1489456240.0353779793,       -0.2255859375,        0.6787109375,       -0.1342773438,       -0.3051757812,       -1.0375976562,       -0.6713867188
1489456240.0356650352,1489456240.0380759239,       -0.2255859375,        0.6787109375,       -0.1342773438,       -0.3051757812,       -1.0375976562,       -0.6713867188
1489456240.0383560658,1489456240.0407729149,       -0.2255859375,        0.6787109375,       -0.1342773438,       -0.3662109375,       -1.0223388672,       -0.6256103516
1489456240.0410530567,1489456240.0434648991,       -0.2270507812,        0.6796875000,       -0.1347656250,       -0.3662109375,       -1.0223388672,       -0.6256103516
1489456240.0437428951,1489456240.0461509228,       -0.2270507812,        0.6796875000,       -0.1347656250,        0.4119873047,       -1.3122558594,       -0.7019042969
1489456240.0464289188,1489456240.0488510132,       -0.2270507812,        0.6796875000,       -0.1347656250,        0.4119873047,       -1.3122558594,       -0.7019042969
1489456240.0491309166,1489456240.0515449047,       -0.2270507812,        0.6796875000,       -0.1347656250,        0.2136230469,       -1.2512207031,       -0.6866455078
1489456240.0518240929,1489456240.0542359352,       -0.2290039062,        0.6777343750,       -0.1303710938,        0.2136230469,       -1.2512207031,       -0.6866455078
1489456240.0545148849,1489456240.0569310188,       -0.2290039062,        0.6777343750,       -0.1303710938,        0.3051757812,       -0.9002685547,       -0.6561279297
1489456240.0572099686,1489456240.0595939159,       -0.2290039062,        0.6777343750,       -0.1303710938,        0.3051757812,       -0.9002685547,       -0.6561279297
1489456240.0598640442,1489456240.0621531010,       -0.2290039062,        0.6777343750,       -0.1303710938,        0.3051757812,       -1.2207031250,       -0.8850097656
1489456240.0624239445,1489456240.0647161007,       -0.2231445312,        0.6796875000,       -0.1333007812,        0.5493164062,       -1.2207031250,       -0.8850097656
1489456240.0649869442,1489456240.0672769547,       -0.2231445312,        0.6796875000,       -0.1333007812,        0.5493164062,       -1.2207031250,       -0.8087158203
1489456240.0675470829,1489456240.0699610710,       -0.2231445312,        0.6796875000,       -0.1333007812,        0.3967285156,       -1.5716552734,       -0.8087158203
1489456240.0702319145,1489456240.0725259781,       -0.2231445312,        0.6796875000,       -0.1333007812,        0.3967285156,       -1.5716552734,       -0.7324218750
1489456240.0727961063,1489456240.0750799179,       -0.2182617188,        0.6762695312,       -0.1337890625,        0.5493164062,       -1.8157958984,       -0.7324218750
1489456240.0753519535,1489456240.0776469707,       -0.2182617188,        0.6762695312,       -0.1337890625,        0.5493164062,       -1.8157958984,       -0.7324218750
1489456240.0779230595,1489456240.0803110600,       -0.2182617188,        0.6762695312,       -0.1337890625,        0.4272460938,       -1.6479492188,       -0.8544921875
1489456240.0805859566,1489456240.0828740597,       -0.2182617188,        0.6762695312,       -0.1333007812,        0.4272460938,       -1.6479492188,       -0.8544921875
1489456240.0831489563,1489456240.0857160091,       -0.2236328125,        0.6806640625,       -0.1333007812,        0.4730224609,       -1.8005371094,       -0.7781982422
1489456240.0859920979,1489456240.0882859230,       -0.2236328125,        0.6806640625,       -0.1333007812,        0.4730224609,       -1.8005371094,       -0.7781982422
1489456240.0885610580,1489456240.0913169384,       -0.2236328125,        0.6806640625,       -0.1333007812,       -0.0152587891,       -1.7852783203,       -0.7019042969
1489456240.0916020870,1489456240.0940148830,       -0.2172851562,        0.6811523438,       -0.1367187500,       -0.0152587891,       -1.7852783203,       -0.7019042969
1489456240.0944650173,1489456240.0968821049,       -0.2172851562,        0.6811523438,       -0.1367187500,       -0.0457763672,       -1.7700195312,       -0.9307861328
1489456240.0971629620,1489456240.0996339321,       -0.2172851562,        0.6811523438,       -0.1367187500,       -0.0457763672,       -1.7700195312,       -1.1596679688
1489456240.0999169350,1489456240.1023321152,       -0.2172851562,        0.6811523438,       -0.1367187500,        0.7934570312,       -2.0599365234,       -1.1596679688
1489456240.1026129723,1489456240.1050310135,       -0.2172851562,        0.6733398438,       -0.1396484375,        0.7934570312,       -2.0599365234,       -1.1596679688
1489456240.1053121090,1489456240.1077289581,       -0.2172851562,        0.6733398438,       -0.1396484375,        1.1596679688,       -1.7852783203,       -1.1291503906
1489456240.1080091000,1489456240.1104359627,       -0.2172851562,        0.6733398438,       -0.1396484375,        1.1596679688,       -1.7852783203,       -1.1291503906
1489456240.1107161045,1489456240.1131379604,       -0.2172851562,        0.6733398438,       -0.1352539062,        0.5950927734,       -1.3732910156,       -1.0833740234
1489456240.1134200096,1489456240.1158330441,       -0.2202148438,        0.6762695312,       -0.1352539062,        0.5950927734,       -1.3732910156,       -1.0833740234
1489456240.1161119938,1489456240.1185250282,       -0.2202148438,        0.6762695312,       -0.1352539062,        0.7324218750,       -1.3427734375,       -0.9918212891
1489456240.1188468933,1489456240.1211409569,       -0.2202148438,        0.6762695312,       -0.1352539062,        0.7324218750,       -1.3427734375,       -0.9918212891
1489456240.1214160919,1489456240.1237049103,       -0.2202148438,        0.6748046875,       -0.1401367188,        0.7476806641,       -1.5258789062,       -0.9155273438
1489456240.1239800453,1489456240.1262750626,       -0.2270507812,        0.6748046875,       -0.1401367188,        0.7476806641,       -1.5258789062,       -0.9155273438
1489456240.1265490055,1489456240.1288790703,       -0.2270507812,        0.6748046875,       -0.1401367188,        0.7171630859,       -1.3275146484,       -0.9002685547
1489456240.1291539669,1489456240.1314458847,       -0.2270507812,        0.6748046875,       -0.1401367188,        0.7171630859,       -1.3275146484,       -0.9002685547
1489456240.1317200661,1489456240.1340129375,       -0.2270507812,        0.6791992188,       -0.1455078125,        0.4577636719,       -1.1596679688,       -1.0375976562
1489456240.1342859268,1489456240.1365768909,       -0.2197265625,        0.6791992188,       -0.1455078125,        0.4577636719,       -1.1596679688,       -1.0375976562
1489456240.1368489265,1489456240.1391890049,       -0.2197265625,        0.6791992188,       -0.1455078125,        0.6561279297,       -0.8697509766,       -1.0986328125
1489456240.1394629478,1489456240.1417629719,       -0.2197265625,        0.6791992188,       -0.1455078125,        0.6561279297,       -0.8697509766,       -1.0986328125
1489456240.1420369148,1489456240.1443319321,       -0.2265625000,        0.6757812500,       -0.1391601562,        0.2288818359,       -0.9765625000,       -1.0223388672
1489456240.1446049213,1489456240.1469020844,       -0.2265625000,        0.6757812500,       -0.1391601562,        0.2288818359,       -0.9765625000,       -1.0223388672
1489456240.1471760273,1489456240.1497449875,       -0.2265625000,        0.6757812500,       -0.1391601562,        0.1831054688,       -0.9765625000,       -1.4190673828
1489456240.1500210762,1489456240.1523199081,       -0.2265625000,        0.6757812500,       -0.1391601562,        0.1831054688,       -0.9765625000,       -1.4190673828
1489456240.1525950432,1489456240.1548869610,       -0.2182617188,        0.6743164062,       -0.1416015625,        0.3814697266,       -1.1138916016,       -1.0223388672
1489456240.1551609039,1489456240.1574490070,       -0.2182617188,        0.6743164062,       -0.1416015625,        0.3814697266,       -1.1138916016,       -1.0223388672
1489456240.1578330994,1489456240.1603689194,       -0.2182617188,        0.6743164062,       -0.1416015625,        0.1373291016,       -1.2664794922,       -1.0986328125
1489456240.1606490612,1489456240.1630270481,       -0.2182617188,        0.6743164062,       -0.1416015625,        0.1373291016,       -1.2664794922,       -1.0986328125
1489456240.1633050442,1489456240.1664741039,       -0.2255859375,        0.6821289062,       -0.1323242188,        0.4425048828,       -0.9002685547,       -1.1901855469
1489456240.1667509079,1489456240.1691040993,       -0.2255859375,        0.6821289062,       -0.1323242188,        0.4425048828,       -0.9002685547,       -1.1901855469
1489456240.1693780422,1489456240.1716659069,       -0.2255859375,        0.6821289062,       -0.1323242188,        0.2441406250,       -0.7934570312,       -0.9765625000
1489456240.1719410419,1489456240.1742289066,       -0.2255859375,        0.6748046875,       -0.1411132812,        0.2441406250,       -0.7934570312,       -0.9765625000
1489456240.1745030880,1489456240.1767909527,       -0.2221679688,        0.6748046875,       -0.1411132812,       -0.0152587891,       -0.7476806641,       -0.7476806641
1489456240.1770660877,1489456240.1794099808,       -0.2221679688,        0.6748046875,       -0.1411132812,       -0.0152587891,       -0.7476806641,       -0.7476806641
1489456240.1796839237,1489456240.1819710732,       -0.2221679688,        0.6748046875,       -0.1411132812,        3.8909912109,       -1.0528564453,       -1.2359619141
1489456240.1822431087,1489456240.1845269203,       -0.2221679688,        0.6757812500,       -0.1333007812,        0.5035400391,       -1.0528564453,       -1.2359619141
1489456240.1847999096,1489456240.1870861053,       -0.2333984375,        0.6757812500,       -0.1333007812,        0.5035400391,       -1.0528564453,       -1.2512207031
1489456240.1873590946,1489456240.1897919178,       -0.2333984375,        0.6757812500,       -0.1333007812,        0.2899169922,       -0.9613037109,       -1.2512207031
1489456240.1900660992,1489456240.1923480034,       -0.2333984375,        0.6757812500,       -0.1333007812,        0.2899169922,       -0.9613037109,       -1.1749267578
1489456240.1926229000,1489456240.1949059963,       -0.2260742188,        0.6767578125,       -0.1430664062,        0.2899169922,       -0.8697509766,       -1.1749267578
1489456240.1951808929,1489456240.1974689960,       -0.2260742188,        0.6767578125,       -0.1430664062,        0.2899169922,       -0.8697509766,       -1.1749267578
1489456240.1977438927,1489456240.2000360489,       -0.2260742188,        0.6767578125,       -0.1430664062,        0.5950927734,       -1.0375976562,       -0.9613037109
1489456240.2003090382,1489456240.2025959492,       -0.2260742188,        0.6767578125,       -0.1430664062,        0.5950927734,       -1.0375976562,       -0.9613037109
1489456240.2028698921,1489456240.2051548958,       -0.2319335938,        0.6826171875,       -0.1318359375,        0.5493164062,       -1.1444091797,       -1.2664794922
1489456240.2054269314,1489456240.2077159882,       -0.2319335938,        0.6826171875,       -0.1318359375,        0.5493164062,       -1.1444091797,       -1.2664794922
1489456240.2079889774,1489456240.2103290558,       -0.2319335938,        0.6826171875,       -0.1318359375,        0.2441406250,       -1.2512207031,       -1.1749267578
1489456240.2106029987,1489456240.2128939629,       -0.2319335938,        0.6826171875,       -0.1318359375,        0.2441406250,       -1.2512207031,       -1.1749267578
1489456240.2131669521,1489456240.2154579163,       -0.2338867188,        0.6777343750,       -0.1250000000,        0.4272460938,       -1.0375976562,       -1.1444091797
1489456240.2157299519,1489456240.2180271149,       -0.2338867188,        0.6777343750,       -0.1250000000,        0.4272460938,       -1.0375976562,       -1.1444091797
1489456240.2182989120,1489456240.2206969261,       -0.2338867188,        0.6777343750,       -0.1250000000,        0.5035400391,       -0.7629394531,       -1.1901855469
1489456240.2210810184,1489456240.2233750820,       -0.2338867188,        0.6777343750,       -0.1250000000,        0.5035400391,       -0.7629394531,       -1.1901855469
1489456240.2236490250,1489456240.2259390354,       -0.2299804688,        0.6796875000,       -0.1323242188,        0.0152587891,       -0.6561279297,       -0.9918212891
1489456240.2262139320,1489456240.2285020351,       -0.2299804688,        0.6796875000,       -0.1323242188,        0.0152587891,       -0.6561279297,       -0.9918212891
1489456240.2287778854,1489456240.2312579155,       -0.2299804688,        0.6796875000,       -0.1323242188,        0.0000000000,       -0.6866455078,       -0.8850097656
1489456240.2315409184,1489456240.2339570522,       -0.2299804688,        0.6796875000,       -0.1323242188,        0.0000000000,       -0.6866455078,       -0.8850097656
1489456240.2342369556,1489456240.2366480827,       -0.2319335938,        0.6777343750,       -0.1347656250,        0.0152587891,       -0.8087158203,       -0.9307861328
1489456240.2369298935,1489456240.2393519878,       -0.2319335938,        0.6777343750,       -0.1347656250,        0.0152587891,       -0.8087158203,       -0.9307861328
1489456240.2396340370,1489456240.2420480251,       -0.2319335938,        0.6777343750,       -0.1347656250,        0.1525878906,       -0.5493164062,       -1.1596679688
1489456240.2423310280,1489456240.2447419167,       -0.2319335938,        0.6777343750,       -0.1352539062,        0.1525878906,       -0.5493164062,       -1.1596679688
1489456240.2450230122,1489456240.2474389076,       -0.2373046875,        0.6723632812,       -0.1352539062,        0.0305175781,       -0.2899169922,       -0.8697509766
1489456240.2477200031,1489456240.2501380444,       -0.2373046875,        0.6723632812,       -0.1352539062,        0.0305175781,       -0.2899169922,       -0.8697509766
1489456240.2504210472,1489456240.2528378963,       -0.2373046875,        0.6723632812,       -0.1352539062,        0.0305175781,       -0.5645751953,       -0.6408691406
1489456240.2531189919,1489456240.2555320263,       -0.2304687500,        0.6796875000,       -0.1279296875,        0.0305175781,       -0.5645751953,       -0.6408691406
1489456240.2558140755,1489456240.2582309246,       -0.2304687500,        0.6796875000,       -0.1279296875,       -3.8757324219,       -0.7934570312,       -1.1444091797
1489456240.2585120201,1489456240.2608380318,       -0.2304687500,        0.6796875000,       -0.1279296875,       -0.0305175781,       -0.7934570312,       -1.1444091797
1489456240.2611129284,1489456240.2634029388,       -0.2304687500,        0.6796875000,       -0.1279296875,       -0.0305175781,       -0.6713867188,       -0.9155273438
1489456240.2636780739,1489456240.2659668922,       -0.2290039062,        0.6762695312,       -0.1376953125,        0.4730224609,       -0.6713867188,       -0.9155273438
1489456240.2662398815,1489456240.2685310841,       -0.2290039062,        0.6762695312,       -0.1376953125,        0.4730224609,       -0.6713867188,       -0.6256103516
1489456240.2688341141,1489456240.2711210251,       -0.2290039062,        0.6762695312,       -0.1376953125,        0.0915527344,       -0.3356933594,       -0.6256103516
1489456240.2713959217,1489456240.2736868858,       -0.2290039062,        0.6762695312,       -0.1376953125,        0.0915527344,       -0.3356933594,       -0.6256103516
1489456240.2739620209,1489456240.2764670849,       -0.2294921875,        0.6733398438,       -0.1352539062,       -0.0305175781,       -0.2441406250,       -0.3967285156
1489456240.2767460346,1489456240.2792310715,       -0.2294921875,        0.6733398438,       -0.1352539062,       -0.0305175781,       -0.2441406250,       -0.3967285156
1489456240.2795228958,1489456240.2819480896,       -0.2294921875,        0.6733398438,       -0.1352539062,       -0.1525878906,       -0.3814697266,       -0.6713867188
1489456240.2822339535,1489456240.2846469879,       -0.2294921875,        0.6733398438,       -0.1352539062,       -0.1525878906,       -0.3814697266,       -0.6713867188
1489456240.2850360870,1489456240.2874529362,       -0.2324218750,        0.6816406250,       -0.1362304688,       -0.1373291016,       -0.4577636719,       -0.6103515625
1489456240.2877340317,1489456240.2901580334,       -0.2324218750,        0.6816406250,       -0.1362304688,       -0.1373291016,       -0.4577636719,       -0.6103515625
1489456240.2904410362,1489456240.2928600311,       -0.2324218750,        0.6816406250,       -0.1362304688,        0.0152587891,       -0.3051757812,       -0.6103515625
1489456240.2931430340,1489456240.2955589294,       -0.2324218750,        0.6723632812,       -0.1293945312,        0.0152587891,       -0.3051757812,       -0.4272460938
1489456240.2958419323,1489456240.2982530594,       -0.2285156250,        0.6723632812,       -0.1293945312,       -0.1068115234,       -0.0610351562,       -0.4272460938
1489456240.2985339165,1489456240.3009529114,       -0.2285156250,        0.6723632812,       -0.1293945312,       -0.1068115234,       -0.0610351562,       -0.4272460938
1489456240.3012349606,1489456240.3036530018,       -0.2285156250,        0.6723632812,       -0.1293945312,       -0.3662109375,        0.1525878906,       -0.3662109375
1489456240.3039350510,1489456240.3063540459,       -0.2329101562,        0.6723632812,       -0.1289062500,       -0.3662109375,        0.1525878906,       -0.3662109375
1489456240.3066360950,1489456240.3090510368,       -0.2329101562,        0.6723632812,       -0.1289062500,       -0.4119873047,        0.0610351562,       -0.4272460938
1489456240.3093268871,1489456240.3116230965,       -0.2329101562,        0.6723632812,       -0.1289062500,       -0.4119873047,        0.0610351562,       -0.4272460938
1489456240.3118989468,1489456240.3141930103,       -0.2329101562,        0.6723632812,       -0.1289062500,       -0.7019042969,       -0.2593994141,       -0.4425048828
1489456240.3144659996,1489456240.3167619705,       -0.2246093750,        0.6875000000,       -0.1411132812,       -0.7019042969,       -0.2593994141,       -0.4425048828
1489456240.3170359135,1489456240.3193349838,       -0.2246093750,        0.6875000000,       -0.1411132812,       -0.4425048828,       -0.0762939453,       -0.3204345703
1489456240.3196089268,1489456240.3218970299,       -0.2246093750,        0.6875000000,       -0.1411132812,       -0.4425048828,       -0.0762939453,       -0.3204345703
1489456240.3221709728,1489456240.3244640827,       -0.2246093750,        0.6875000000,       -0.1411132812,       -0.4119873047,        0.2288818359,       -0.3814697266
1489456240.3247380257,1489456240.3270270824,       -0.2304687500,        0.6777343750,       -0.1381835938,       -0.4119873047,        0.2288818359,       -0.3814697266
1489456240.3273010254,1489456240.3297510147,       -0.2304687500,        0.6777343750,       -0.1381835938,        0.2746582031,       -0.3509521484,       -0.8544921875
1489456240.3300259113,1489456240.3323140144,       -0.2304687500,        0.6777343750,       -0.1381835938,        0.2746582031,       -0.3509521484,       -0.8544921875
1489456240.3325879574,1489456240.3348789215,       -0.2304687500,        0.6777343750,       -0.1381835938,       -0.1525878906,        0.0000000000,       -0.3967285156
1489456240.3351531029,1489456240.3374500275,       -0.2270507812,        0.6757812500,       -0.1240234375,       -0.1525878906,        0.0000000000,       -0.3967285156
1489456240.3377249241,1489456240.3402249813,       -0.2270507812,        0.6757812500,       -0.1240234375,       -0.3967285156,        0.3051757812,       -0.5035400391
1489456240.3405098915,1489456240.3429269791,       -0.2270507812,        0.6757812500,       -0.1240234375,       -0.3967285156,        0.3051757812,       -0.5035400391
1489456240.3432099819,1489456240.3456189632,       -0.2270507812,        0.6757812500,       -0.1362304688,       -0.4730224609,        0.1373291016,       -0.5035400391
1489456240.3459010124,1489456240.3483190536,       -0.2211914062,        0.6840820312,       -0.1362304688,       -0.4730224609,        0.1373291016,       -0.5035400391
1489456240.3487069607,1489456240.3511319160,       -0.2211914062,        0.6840820312,       -0.1362304688,       -0.2899169922,        0.4119873047,       -0.3814697266
1489456240.3514130116,1489456240.3538279533,       -0.2211914062,        0.6840820312,       -0.1362304688,       -0.2899169922,        0.4119873047,       -0.3814697266
1489456240.3541109562,1489456240.3565950394,       -0.2163085938,        0.6782226562,       -0.1367187500,       -0.3967285156,       -0.0305175781,       -0.3662109375
1489456240.3568708897,1489456240.3593668938,       -0.2163085938,        0.6782226562,       -0.1367187500,       -0.3967285156,       -0.0305175781,       -0.3662109375
1489456240.3596470356,1489456240.3620300293,       -0.2163085938,        0.6782226562,       -0.1367187500,       -0.3662109375,        0.6713867188,       -0.4119873047
1489456240.3623099327,1489456240.3652501106,       -0.2163085938,        0.6782226562,       -0.1367187500,       -0.3662109375,        0.6713867188,       -0.4119873047
1489456240.3655269146,1489456240.3678140640,       -0.2260742188,        0.6816406250,       -0.1347656250,       -0.2288818359,        0.3509521484,       -0.3204345703
1489456240.3680880070,1489456240.3704309464,       -0.2260742188,        0.6816406250,       -0.1347656250,       -0.2288818359,        0.3509521484,       -0.3204345703
1489456240.3707060814,1489456240.3730010986,       -0.2260742188,        0.6816406250,       -0.1347656250,       -0.2593994141,        0.2441406250,       -0.2899169922
1489456240.3732740879,1489456240.3755578995,       -0.2260742188,        0.6816406250,       -0.1347656250,       -0.2593994141,        0.2441406250,       -0.2899169922
1489456240.3758320808,1489456240.3781259060,       -0.2270507812,        0.6684570312,       -0.1342773438,       -0.4577636719,        0.2441406250,       -0.3356933594
1489456240.3784000874,1489456240.3807449341,       -0.2270507812,        0.6684570312,       -0.1342773438,       -0.4577636719,        0.2441406250,       -0.3356933594
1489456240.3810200691,1489456240.3832979202,       -0.2270507812,        0.6684570312,       -0.1342773438,       -0.4577636719,        0.1068115234,       -0.4577636719
1489456240.3835721016,1489456240.3858649731,       -0.2270507812,        0.6684570312,       -0.1347656250,       -0.8239746094,        0.1068115234,       -0.4577636719
1489456240.3861389160,1489456240.3884251118,       -0.2275390625,        0.6733398438,       -0.1347656250,       -0.8239746094,        0.1068115234,       -0.3662109375
1489456240.3887000084,1489456240.3910009861,       -0.2275390625,        0.6733398438,       -0.1347656250,       -0.7019042969,        0.0762939453,       -0.3662109375
1489456240.3912770748,1489456240.3935709000,       -0.2275390625,        0.6733398438,       -0.1347656250,       -0.7019042969,        0.0762939453,       -0.2288818359
1489456240.3938460350,1489456240.3961350918,       -0.2275390625,        0.6733398438,       -0.1298828125,       -0.8087158203,        0.3509521484,       -0.2288818359
1489456240.3964109421,1489456240.3987009525,       -0.2304687500,        0.6816406250,       -0.1298828125,       -0.8087158203,        0.3509521484,       -0.2288818359
1489456240.3989760876,1489456240.4012610912,       -0.2304687500,        0.6816406250,       -0.1298828125,       -1.2359619141,        0.2441406250,       -0.3814697266
1489456240.4015369415,1489456240.4038228989,       -0.2304687500,        0.6816406250,       -0.1298828125,       -1.2359619141,        0.2441406250,       -0.3814697266
1489456240.4040970802,1489456240.4063909054,       -0.2304687500,        0.6811523438,       -0.1372070312,       -1.0375976562,        0.2136230469,       -0.8544921875
1489456240.4066638947,1489456240.4090180397,       -0.2241210938,        0.6811523438,       -0.1372070312,       -1.0375976562,        0.2136230469,       -0.8544921875
1489456240.4092910290,1489456240.4115788937,       -0.2241210938,        0.6811523438,       -0.1372070312,       -1.0528564453,        0.4425048828,       -0.3967285156
1489456240.4119529724,1489456240.4142489433,       -0.2241210938,        0.6811523438,       -0.1372070312,       -1.0528564453,        0.4425048828,       -0.3967285156
1489456240.4145228863,1489456240.4168090820,       -0.2241210938,        0.6752929688,       -0.1450195312,       -1.0223388672,        0.3662109375,       -0.3204345703
1489456240.4170820713,1489456240.4195380211,       -0.2246093750,        0.6752929688,       -0.1450195312,       -1.0223388672,        0.3662109375,       -0.3204345703
1489456240.4198129177,1489456240.4221010208,       -0.2246093750,        0.6752929688,       -0.1450195312,       -0.6561279297,        0.2441406250,       -0.5950927734
1489456240.4223771095,1489456240.4246621132,       -0.2246093750,        0.6752929688,       -0.1450195312,       -0.6561279297,        0.2441406250,       -0.5950927734
1489456240.4249360561,1489456240.4272279739,       -0.2197265625,        0.6821289062,       -0.1450195312,       -0.1983642578,        0.0305175781,       -0.5493164062
1489456240.4275040627,1489456240.4298639297,       -0.2197265625,        0.6821289062,       -0.1450195312,       -0.1983642578,        0.0305175781,       -0.5493164062
1489456240.4301390648,1489456240.4324240685,       -0.2197265625,        0.6821289062,       -0.1450195312,       -0.5340576172,        0.3814697266,       -0.3967285156
1489456240.4326970577,1489456240.4349920750,       -0.2197265625,        0.6821289062,       -0.1450195312,       -0.5340576172,        0.3814697266,       -0.3967285156
1489456240.4352660179,1489456240.4375510216,       -0.2231445312,        0.6791992188,       -0.1328125000,       -0.5340576172,        0.6256103516,       -0.5493164062
1489456240.4378240108,1489456240.4404039383,       -0.2231445312,        0.6791992188,       -0.1328125000,       -0.4577636719,        0.6256103516,       -0.5493164062
1489456240.4406809807,1489456240.4429740906,       -0.2231445312,        0.6791992188,       -0.1328125000,       -0.4577636719,        0.6256103516,       -0.4425048828
1489456240.4432489872,1489456240.4455389977,       -0.2231445312,        0.6791992188,       -0.1328125000,       -0.3814697266,        0.3356933594,       -0.4425048828
1489456240.4458150864,1489456240.4481120110,       -0.2226562500,        0.6826171875,       -0.1303710938,       -0.3814697266,        0.3356933594,       -0.5798339844
1489456240.4483859539,1489456240.4509410858,       -0.2226562500,        0.6826171875,       -0.1303710938,       -0.5493164062,        0.0457763672,       -0.5798339844
1489456240.4512250423,1489456240.4536070824,       -0.2226562500,        0.6826171875,       -0.1303710938,       -0.5493164062,        0.0457763672,       -0.5187988281
1489456240.4538869858,1489456240.4565320015,       -0.2226562500,        0.6826171875,       -0.1347656250,       -0.2746582031,       -0.0305175781,       -0.5187988281
1489456240.4568159580,1489456240.4592208862,       -0.2246093750,        0.6787109375,       -0.1347656250,       -0.2746582031,       -0.0305175781,       -0.4119873047
1489456240.4594969749,1489456240.4617910385,       -0.2246093750,        0.6787109375,       -0.1347656250,       -0.2288818359,       -0.0305175781,       -0.4119873047
1489456240.4620649815,1489456240.4643559456,       -0.2246093750,        0.6787109375,       -0.1347656250,       -0.2288818359,       -0.0305175781,       -0.5950927734
1489456240.4646289349,1489456240.4669270515,       -0.2246093750,        0.6728515625,       -0.1337890625,       -0.3662109375,       -0.0152587891,       -0.5950927734
1489456240.4672009945,1489456240.4695479870,       -0.2280273438,        0.6728515625,       -0.1337890625,       -0.3662109375,       -0.0152587891,       -0.5950927734
1489456240.4698328972,1489456240.4722499847,       -0.2280273438,        0.6728515625,       -0.1337890625,       -0.2441406250,        0.1678466797,       -0.3509521484
1489456240.4725320339,1489456240.4749519825,       -0.2280273438,        0.6728515625,       -0.1337890625,       -0.2441406250,        0.1678466797,       -0.3509521484
1489456240.4752349854,1489456240.4776539803,       -0.2265625000,        0.6821289062,       -0.1342773438,        0.1678466797,       -0.0762939453,       -0.5950927734
1489456240.4780468941,1489456240.4804759026,       -0.2265625000,        0.6821289062,       -0.1342773438,        0.1678466797,       -0.0762939453,       -0.5950927734
1489456240.4807589054,1489456240.4836199284,       -0.2265625000,        0.6821289062,       -0.1342773438,        0.4272460938,       -0.5340576172,       -1.1596679688
1489456240.4839029312,1489456240.4869229794,       -0.2265625000,        0.6821289062,       -0.1289062500,        0.2593994141,       -0.5187988281,       -0.9613037109
1489456240.4872069359,1489456240.4896020889,       -0.2202148438,        0.6791992188,       -0.1289062500,        0.2593994141,       -0.5187988281,       -0.9613037109
1489456240.4898769855,1489456240.4921679497,       -0.2202148438,        0.6791992188,       -0.1289062500,        0.2593994141,       -0.5035400391,       -1.2512207031
1489456240.4924418926,1489456240.4947280884,       -0.2202148438,        0.6791992188,       -0.1289062500,        0.3204345703,       -0.5035400391,       -1.2512207031
1489456240.4950020313,1489456240.4972949028,       -0.2202148438,        0.6772460938,       -0.1347656250,        0.3204345703,       -0.5035400391,       -0.8239746094
1489456240.4975700378,1489456240.4999279976,       -0.2260742188,        0.6772460938,       -0.1347656250,        0.1983642578,       -0.2899169922,       -0.8239746094
1489456240.5002100468,1489456240.5026230812,       -0.2260742188,        0.6772460938,       -0.1347656250,        0.1983642578,       -0.2899169922,       -0.8697509766
1489456240.5029070377,1489456240.5053260326,       -0.2260742188,        0.6772460938,       -0.1347656250,        0.0762939453,       -0.4577636719,       -0.8697509766
1489456240.5056080818,1489456240.5080211163,       -0.2309570312,        0.6777343750,       -0.1289062500,        0.0762939453,       -0.4577636719,       -1.0528564453
1489456240.5083019733,1489456240.5106370449,       -0.2309570312,        0.6777343750,       -0.1289062500,        0.4577636719,       -0.8850097656,       -1.0528564453
1489456240.5109119415,1489456240.5132060051,       -0.2309570312,        0.6777343750,       -0.1289062500,        0.4577636719,       -0.8850097656,       -1.0528564453
1489456240.5134789944,1489456240.5157699585,       -0.2309570312,        0.6777343750,       -0.1289062500,        0.5493164062,       -0.5340576172,       -0.8239746094
1489456240.5160450935,1489456240.5183379650,       -0.2246093750,        0.6762695312,       -0.1396484375,        0.5493164062,       -0.5340576172,       -0.8239746094
1489456240.5186131001,1489456240.5209460258,       -0.2246093750,        0.6762695312,       -0.1396484375,        0.2593994141,       -0.4272460938,       -0.4730224609
1489456240.5212221146,1489456240.5235130787,       -0.2246093750,        0.6762695312,       -0.1396484375,        0.2593994141,       -0.4272460938,       -0.4730224609
1489456240.5237879753,1489456240.5260789394,       -0.2246093750,        0.6762695312,       -0.1396484375,        0.1831054688,       -0.6256103516,       -0.6103515625
1489456240.5263540745,1489456240.5286450386,       -0.2309570312,        0.6762695312,       -0.1464843750,        0.1831054688,       -0.6256103516,       -0.6103515625
1489456240.5289840698,1489456240.5312910080,       -0.2309570312,        0.6762695312,       -0.1464843750,        0.4119873047,       -0.6713867188,       -0.8850097656
1489456240.5315659046,1489456240.5338590145,       -0.2309570312,        0.6762695312,       -0.1464843750,        0.4119873047,       -0.6713867188,       -0.8850097656
1489456240.5341320038,1489456240.5364229679,       -0.2309570312,        0.6762695312,       -0.1464843750,        0.2746582031,       -0.7171630859,       -0.8544921875
1489456240.5366969109,1489456240.5391509533,       -0.2309570312,        0.6777343750,       -0.1362304688,        0.2746582031,       -0.7171630859,       -0.8544921875
1489456240.5395069122,1489456240.5419359207,       -0.2309570312,        0.6777343750,       -0.1362304688,        0.5187988281,       -0.5493164062,       -1.2512207031
1489456240.5423290730,1489456240.5447459221,       -0.2309570312,        0.6777343750,       -0.1362304688,        0.5187988281,       -0.5493164062,       -1.2512207031
1489456240.5450279713,1489456240.5474441051,       -0.2309570312,        0.6777343750,       -0.1352539062,       -0.0152587891,       -0.5950927734,       -0.7171630859
1489456240.5477259159,1489456240.5501511097,       -0.2324218750,        0.6738281250,       -0.1352539062,       -0.0152587891,       -0.5950927734,       -0.7171630859
1489456240.5504319668,1489456240.5528469086,       -0.2324218750,        0.6738281250,       -0.1352539062,       -0.3814697266,       -0.5187988281,       -0.5340576172
1489456240.5531280041,1489456240.5555410385,       -0.2324218750,        0.6738281250,       -0.1352539062,       -0.3814697266,       -0.5187988281,       -0.5340576172
1489456240.5558230877,1489456240.5582349300,       -0.2324218750,        0.6791992188,       -0.1279296875,       -0.0457763672,       -0.4730224609,       -0.8239746094
1489456240.5585179329,1489456240.5608410835,       -0.2343750000,        0.6791992188,       -0.1279296875,       -0.0457763672,       -0.4730224609,       -0.8239746094
1489456240.5611150265,1489456240.5633990765,       -0.2343750000,        0.6791992188,       -0.1279296875,        0.0915527344,       -0.8392333984,       -0.9002685547
1489456240.5636730194,1489456240.5659630299,       -0.2343750000,        0.6791992188,       -0.1279296875,        0.0915527344,       -0.8392333984,       -0.9002685547
1489456240.5662360191,1489456240.5685269833,       -0.2275390625,        0.6811523438,       -0.1259765625,        0.1831054688,       -0.5493164062,       -0.9155273438
1489456240.5688400269,1489456240.5711340904,       -0.2275390625,        0.6811523438,       -0.1259765625,        0.1831054688,       -0.5493164062,       -0.9155273438
1489456240.5714070797,1489456240.5736958981,       -0.2275390625,        0.6811523438,       -0.1259765625,        0.1831054688,       -0.4577636719,       -0.7324218750
1489456240.5739710331,1489456240.5762600899,       -0.2275390625,        0.6811523438,       -0.1259765625,       -0.0305175781,       -0.4577636719,       -0.7324218750
1489456240.5765349865,1489456240.5788779259,       -0.2387695312,        0.6777343750,       -0.1289062500,       -0.0305175781,       -0.4577636719,       -0.7934570312
1489456240.5791630745,1489456240.5815761089,       -0.2387695312,        0.6777343750,       -0.1289062500,       -0.1831054688,       -0.3051757812,       -0.7934570312
1489456240.5818600655,1489456240.5842759609,       -0.2387695312,        0.6777343750,       -0.1289062500,       -0.1831054688,       -0.3051757812,       -0.6866455078
1489456240.5845589638,1489456240.5869750977,       -0.2387695312,        0.6777343750,       -0.1289062500,       -0.5035400391,       -0.0152587891,       -0.6866455078
1489456240.5872569084,1489456240.5896921158,       -0.2250976562,        0.6796875000,       -0.1303710938,       -0.5035400391,       -0.0152587891,       -0.5798339844
1489456240.5899739265,1489456240.5923860073,       -0.2250976562,        0.6796875000,       -0.1303710938,       -0.7019042969,       -0.2136230469,       -0.5798339844
1489456240.5926671028,1489456240.5951800346,       -0.2250976562,        0.6796875000,       -0.1303710938,       -0.7019042969,       -0.2136230469,       -0.4425048828
1489456240.5954658985,1489456240.5978879929,       -0.2250976562,        0.6796875000,       -0.1284179688,       -0.4119873047,       -0.4730224609,       -0.4425048828
1489456240.5981709957,1489456240.6005380154,       -0.2260742188,        0.6826171875,       -0.1284179688,       -0.4119873047,       -0.4730224609,       -0.8850097656
1489456240.6008129120,1489456240.6031100750,       -0.2260742188,        0.6826171875,       -0.1284179688,        0.5035400391,       -0.7324218750,       -0.8850097656
1489456240.6033849716,1489456240.6056790352,       -0.2260742188,        0.6826171875,       -0.1284179688,        0.5035400391,       -0.7324218750,       -0.8850097656
1489456240.6060600281,1489456240.6083490849,       -0.2260742188,        0.6816406250,       -0.1376953125,        0.2136230469,       -0.5950927734,       -0.6408691406
1489456240.6086239815,1489456240.6110799313,       -0.2280273438,        0.6816406250,       -0.1376953125,        0.2136230469,       -0.5950927734,       -0.6408691406
1489456240.6113619804,1489456240.6137759686,       -0.2280273438,        0.6816406250,       -0.1376953125,        0.0762939453,       -0.7781982422,       -0.9002685547
1489456240.6140589714,1489456240.6164739132,       -0.2280273438,        0.6816406250,       -0.1376953125,        0.0762939453,       -0.7781982422,       -0.9002685547
1489456240.6167559624,1489456240.6191740036,       -0.2260742188,        0.6821289062,       -0.1328125000,        0.9155273438,       -0.6256103516,       -1.0528564453
1489456240.6194550991,1489456240.6218659878,       -0.2260742188,        0.6821289062,       -0.1328125000,        0.9155273438,       -0.6256103516,       -1.0528564453
1489456240.6221480370,1489456240.6245689392,       -0.2260742188,        0.6821289062,       -0.1328125000,        0.8087158203,       -0.7324218750,       -0.9460449219
1489456240.6248509884,1489456240.6272718906,       -0.2260742188,        0.6821289062,       -0.1328125000,        0.8087158203,       -0.7324218750,       -0.9460449219
1489456240.6275529861,1489456240.6299149990,       -0.2250976562,        0.6767578125,       -0.1298828125,        0.1220703125,       -0.8239746094,       -1.2054443359
1489456240.6301910877,1489456240.6324839592,       -0.2250976562,        0.6767578125,       -0.1298828125,        0.1220703125,       -0.8239746094,       -1.2054443359
1489456240.6327590942,1489456240.6350500584,       -0.2250976562,        0.6767578125,       -0.1298828125,        0.1373291016,       -0.9918212891,       -0.7629394531
1489456240.6353240013,1489456240.6376230717,       -0.2250976562,        0.6767578125,       -0.1298828125,        0.1373291016,       -0.9918212891,       -0.7629394531
1489456240.6378951073,1489456240.6403079033,       -0.2226562500,        0.6821289062,       -0.1328125000,        0.3204345703,       -1.1596679688,       -0.6866455078
1489456240.6405830383,1489456240.6428730488,       -0.2226562500,        0.6821289062,       -0.1328125000,        0.3204345703,       -1.1596679688,       -0.6866455078
1489456240.6431469917,1489456240.6454410553,       -0.2226562500,        0.6821289062,       -0.1328125000,        0.3509521484,       -0.9918212891,       -0.6561279297
1489456240.6457140446,1489456240.6480050087,       -0.2226562500,        0.6821289062,       -0.1328125000,        0.3509521484,       -0.9918212891,       -0.6561279297
1489456240.6482789516,1489456240.6506879330,       -0.2216796875,        0.6811523438,       -0.1328125000,        0.4882812500,       -0.9307861328,       -0.9613037109
1489456240.6509630680,1489456240.6532568932,       -0.2216796875,        0.6811523438,       -0.1328125000,        0.4882812500,       -0.9307861328,       -0.9613037109
1489456240.6535298824,1489456240.6558210850,       -0.2216796875,        0.6811523438,       -0.1328125000,        0.5187988281,       -0.9155273438,       -0.9307861328
1489456240.6560940742,1489456240.6583919525,       -0.2216796875,        0.6811523438,       -0.1298828125,        0.5187988281,       -0.9155273438,       -0.9307861328
1489456240.6586649418,1489456240.6610860825,       -0.2216796875,        0.6787109375,       -0.1298828125,        0.0915527344,       -0.3662109375,       -0.5950927734
1489456240.6613690853,1489456240.6637818813,       -0.2216796875,        0.6787109375,       -0.1298828125,        0.0915527344,       -0.3662109375,       -0.5950927734
1489456240.6640639305,1489456240.6664829254,       -0.2216796875,        0.6787109375,       -0.1298828125,        0.0915527344,       -0.7324218750,       -0.7324218750
1489456240.6667649746,1489456240.6692190170,       -0.2216796875,        0.6821289062,       -0.1445312500,        0.0457763672,       -0.7324218750,       -0.7324218750
1489456240.6696081161,1489456240.6720221043,       -0.2255859375,        0.6821289062,       -0.1445312500,        0.6408691406,       -1.1444091797,       -1.0528564453
1489456240.6723020077,1489456240.6747179031,       -0.2255859375,        0.6821289062,       -0.1445312500,        0.6408691406,       -1.1444091797,       -1.0528564453
1489456240.6749999523,1489456240.6774110794,       -0.2255859375,        0.6821289062,       -0.1445312500,        0.8239746094,       -0.7019042969,       -0.9002685547
1489456240.6776919365,1489456240.6801249981,       -0.2241210938,        0.6801757812,       -0.1372070312,        0.8239746094,       -0.7019042969,       -0.9002685547
1489456240.6804080009,1489456240.6828219891,       -0.2241210938,        0.6801757812,       -0.1372070312,        0.8239746094,       -0.6256103516,       -0.9307861328
1489456240.6831040382,1489456240.6855180264,       -0.2241210938,        0.6801757812,       -0.1372070312,        0.5340576172,       -0.6256103516,       -0.9307861328
1489456240.6857988834,1489456240.6882190704,       -0.2241210938,        0.6801757812,       -0.1372070312,        0.5340576172,       -0.8697509766,       -1.0986328125
1489456240.6885030270,1489456240.6909260750,       -0.2265625000,        0.6757812500,       -0.1303710938,        0.4882812500,       -0.8697509766,       -1.0986328125
1489456240.6912090778,1489456240.6936769485,       -0.2265625000,        0.6757812500,       -0.1303710938,        0.6103515625,       -0.7476806641,       -1.0070800781
1489456240.6939508915,1489456240.6962440014,       -0.2265625000,        0.6757812500,       -0.1303710938,        0.6103515625,       -0.7476806641,       -1.0070800781
1489456240.6965179443,1489456240.6989810467,       -0.2265625000,        0.6757812500,       -0.1323242188,        0.6103515625,       -0.5493164062,       -0.9765625000
1489456240.6992568970,1489456240.7015480995,       -0.2246093750,        0.6806640625,       -0.1323242188,        0.2593994141,       -0.5493164062,       -0.9765625000
1489456240.7018220425,1489456240.7041170597,       -0.2246093750,        0.6806640625,       -0.1323242188,        0.2593994141,       -0.5493164062,       -0.8697509766
1489456240.7044720650,1489456240.7067620754,       -0.2246093750,        0.6806640625,       -0.1323242188,        0.5340576172,       -0.7019042969,       -0.8697509766
1489456240.7070379257,1489456240.7097530365,       -0.2246093750,        0.6796875000,       -0.1430664062,        0.5340576172,       -0.8392333984,       -1.0070800781
1489456240.7100369930,1489456240.7124559879,       -0.2265625000,        0.6796875000,       -0.1430664062,        0.5950927734,       -0.8392333984,       -1.0070800781
1489456240.7127380371,1489456240.7151598930,       -0.2265625000,        0.6796875000,       -0.1430664062,        0.5950927734,       -0.8392333984,       -1.1138916016
1489456240.7154419422,1489456240.7178568840,       -0.2265625000,        0.6796875000,       -0.1430664062,        0.3356933594,       -0.6103515625,       -1.1138916016
1489456240.7181379795,1489456240.7205519676,       -0.2250976562,        0.6767578125,       -0.1391601562,        0.3356933594,       -0.6103515625,       -0.7781982422
1489456240.7208340168,1489456240.7232460976,       -0.2250976562,        0.6767578125,       -0.1391601562,        0.3814697266,       -0.6713867188,       -0.7781982422
1489456240.7235279083,1489456240.7259469032,       -0.2250976562,        0.6767578125,       -0.1391601562,        0.3814697266,       -0.6713867188,       -1.7089843750
1489456240.7262270451,1489456240.7286460400,       -0.2250976562,        0.6767578125,       -0.1391601562,        0.6408691406,       -1.0986328125,       -1.7089843750
1489456240.7289369106,1489456240.7313508987,       -0.2290039062,        0.6796875000,       -0.1293945312,        0.6408691406,       -1.0986328125,       -1.4801025391
1489456240.7316329479,1489456240.7340440750,       -0.2290039062,        0.6796875000,       -0.1293945312,        0.7934570312,       -0.8392333984,       -1.4801025391
1489456240.7344329357,1489456240.7368500233,       -0.2290039062,        0.6796875000,       -0.1293945312,        0.7934570312,       -0.8392333984,       -1.0070800781
1489456240.7371311188,1489456240.7395210266,       -0.2290039062,        0.6796875000,       -0.1323242188,        0.5645751953,       -0.7324218750,       -1.0070800781
1489456240.7397959232,1489456240.7420909405,       -0.2290039062,        0.6782226562,       -0.1323242188,        0.5645751953,       -0.7324218750,       -1.0375976562
1489456240.7423639297,1489456240.7446539402,       -0.2290039062,        0.6782226562,       -0.1323242188,        0.2441406250,       -0.8087158203,       -1.0375976562
1489456240.7449290752,1489456240.7472178936,       -0.2290039062,        0.6782226562,       -0.1323242188,        0.2441406250,       -0.8087158203,       -1.0375976562
1489456240.7474908829,1489456240.7498250008,       -0.2290039062,        0.6801757812,       -0.1396484375,        0.3967285156,       -0.7324218750,       -1.2512207031
1489456240.7500998974,1489456240.7523889542,       -0.2231445312,        0.6801757812,       -0.1396484375,        0.3967285156,       -0.7324218750,       -1.2512207031
1489456240.7526640892,1489456240.7549540997,       -0.2231445312,        0.6801757812,       -0.1396484375,        0.4119873047,       -0.8239746094,       -1.2359619141
1489456240.7552270889,1489456240.7575149536,       -0.2231445312,        0.6801757812,       -0.1396484375,        0.4119873047,       -0.8239746094,       -1.2359619141
1489456240.7577900887,1489456240.7601799965,       -0.2231445312,        0.6762695312,       -0.1425781250,        0.1831054688,       -0.7476806641,       -1.5563964844
1489456240.7604560852,1489456240.7627480030,       -0.2250976562,        0.6762695312,       -0.1425781250,        0.1831054688,       -0.7476806641,       -1.5563964844
1489456240.7630240917,1489456240.7653110027,       -0.2250976562,        0.6762695312,       -0.1425781250,        0.3356933594,       -0.6866455078,       -1.6021728516
1489456240.7655858994,1489456240.7678771019,       -0.2250976562,        0.6762695312,       -0.1425781250,        0.3356933594,       -0.6866455078,       -1.6021728516
1489456240.7681500912,1489456240.7706398964,       -0.2368164062,        0.6738281250,       -0.1279296875,        0.3662109375,       -0.5645751953,       -1.1138916016
1489456240.7709228992,1489456240.7733409405,       -0.2368164062,        0.6738281250,       -0.1279296875,        0.3662109375,       -0.5645751953,       -1.1138916016
1489456240.7736220360,1489456240.7760360241,       -0.2368164062,        0.6738281250,       -0.1279296875,        0.2136230469,       -0.5187988281,       -1.1444091797
1489456240.7763159275,1489456240.7787311077,       -0.2368164062,        0.6738281250,       -0.1279296875,        0.2136230469,       -0.5187988281,       -1.1444091797
1489456240.7790648937,1489456240.7814800739,       -0.2333984375,        0.6821289062,       -0.1337890625,       -0.0762939453,       -0.1983642578,       -0.9918212891
1489456240.7817618847,1489456240.7841761112,       -0.2333984375,        0.6821289062,       -0.1337890625,       -0.0762939453,       -0.1983642578,       -0.9918212891
1489456240.7844569683,1489456240.7868719101,       -0.2333984375,        0.6821289062,       -0.1337890625,        0.2441406250,       -0.2593994141,       -1.0223388672
1489456240.7871530056,1489456240.7895689011,       -0.2333984375,        0.6821289062,       -0.1337890625,        0.2441406250,       -0.2593994141,       -1.0223388672
1489456240.7898509502,1489456240.7922658920,       -0.2309570312,        0.6748046875,       -0.1298828125,        0.4425048828,       -0.3814697266,       -1.1596679688
1489456240.7925469875,1489456240.7949600220,       -0.2309570312,        0.6748046875,       -0.1298828125,        0.4425048828,       -0.3814697266,       -1.1596679688
1489456240.7952430248,1489456240.7976560593,       -0.2309570312,        0.6748046875,       -0.1298828125,        0.0915527344,       -0.3509521484,       -1.3732910156
1489456240.7980449200,1489456240.8003919125,       -0.2309570312,        0.6782226562,       -0.1416015625,        0.0915527344,       -0.3509521484,       -1.3732910156
1489456240.8006680012,1489456240.8029611111,       -0.2192382812,        0.6782226562,       -0.1416015625,        0.5035400391,       -0.3356933594,       -1.4038085938
1489456240.8032350540,1489456240.8055300713,       -0.2192382812,        0.6782226562,       -0.1416015625,        0.5035400391,       -0.3356933594,       -1.4038085938
1489456240.8058030605,1489456240.8080899715,       -0.2192382812,        0.6782226562,       -0.1416015625,        0.5798339844,       -0.3662109375,       -1.3122558594
1489456240.8083629608,1489456240.8107490540,       -0.2192382812,        0.6782226562,       -0.1347656250,        0.5798339844,       -0.3662109375,       -1.3122558594
1489456240.8110249043,1489456240.8133189678,       -0.2329101562,        0.6782226562,       -0.1347656250,        0.5798339844,       -0.2136230469,       -1.6326904297
1489456240.8135929108,1489456240.8158850670,       -0.2329101562,        0.6782226562,       -0.1347656250,        0.2899169922,       -0.2136230469,       -1.6326904297
1489456240.8161580563,1489456240.8184490204,       -0.2329101562,        0.6782226562,       -0.1347656250,        0.2899169922,       -0.2136230469,       -1.3580322266
1489456240.8187239170,1489456240.8211860657,       -0.2260742188,        0.6845703125,       -0.1352539062,        0.5950927734,       -0.3356933594,       -1.3580322266
1489456240.8214659691,1489456240.8238420486,       -0.2260742188,        0.6845703125,       -0.1352539062,        0.5950927734,       -0.3356933594,       -1.7242431641
1489456240.8241369724,1489456240.8266389370,       -0.2260742188,        0.6845703125,       -0.1352539062,        0.6256103516,       -0.3967285156,       -1.7242431641
1489456240.8269228935,1489456240.8296689987,       -0.2260742188,        0.6845703125,       -0.1352539062,        0.6256103516,       -0.3967285156,       -1.1291503906
1489456240.8299520016,1489456240.8323729038,       -0.2314453125,        0.6821289062,       -0.1372070312,        0.1525878906,       -0.0305175781,       -1.1291503906
1489456240.8326580524,1489456240.8350729942,       -0.2314453125,        0.6821289062,       -0.1372070312,       -3.7536621094,       -0.0457763672,       -1.0070800781
1489456240.8353559971,1489456240.8377668858,       -0.2314453125,        0.6821289062,       -0.1372070312,       -0.1220703125,       -0.0457763672,       -1.0070800781
1489456240.8380498886,1489456240.8404800892,       -0.2314453125,        0.6821289062,       -0.1259765625,       -0.1220703125,        0.1068115234,       -1.7089843750
1489456240.8407630920,1489456240.8431820869,       -0.2373046875,        0.6782226562,       -0.1259765625,        0.2288818359,        0.1068115234,       -1.7089843750
1489456240.8434638977,1489456240.8458769321,       -0.2373046875,        0.6782226562,       -0.1259765625,        0.2288818359,       -0.1525878906,       -1.4648437500
1489456240.8461549282,1489456240.8485710621,       -0.2373046875,        0.6782226562,       -0.1259765625,        0.6866455078,       -0.1525878906,       -1.4648437500
1489456240.8488640785,1489456240.8512749672,       -0.2304687500,        0.6772460938,       -0.1337890625,        0.6866455078,       -0.2136230469,       -1.2512207031
1489456240.8515560627,1489456240.8539729118,       -0.2304687500,        0.6772460938,       -0.1337890625,        0.3509521484,       -0.2136230469,       -1.2512207031
1489456240.8542549610,1489456240.8566679955,       -0.2304687500,        0.6772460938,       -0.1337890625,        0.3509521484,        3.6926269531,       -1.4648437500
1489456240.8569478989,1489456240.8593449593,       -0.2304687500,        0.6772460938,       -0.1337890625,        0.0915527344,        0.0152587891,       -1.4648437500
1489456240.8596200943,1489456240.8619089127,       -0.2250976562,        0.6816406250,       -0.1279296875,        0.0915527344,       -3.8909912109,       -1.4190673828
1489456240.8622920513,1489456240.8645839691,       -0.2250976562,        0.6816406250,       -0.1279296875,        0.5187988281,       -0.1068115234,       -1.4190673828
1489456240.8648600578,1489456240.8671491146,       -0.2250976562,        0.6816406250,       -0.1279296875,        0.5187988281,       -0.1068115234,       -1.2969970703
1489456240.8674240112,1489456240.8697240353,       -0.2250976562,        0.6816406250,       -0.1279296875,        0.1068115234,       -0.1831054688,       -1.2969970703
1489456240.8699989319,1489456240.8722898960,       -0.2324218750,        0.6806640625,       -0.1381835938,        0.1068115234,       -0.1831054688,       -1.2969970703
1489456240.8725640774,1489456240.8748569489,       -0.2324218750,        0.6806640625,       -0.1381835938,        0.3051757812,       -0.3051757812,       -1.2207031250
1489456240.8751308918,1489456240.8774209023,       -0.2324218750,        0.6806640625,       -0.1381835938,        0.3051757812,       -0.3051757812,       -1.2207031250
1489456240.8776960373,1489456240.8801290989,       -0.2324218750,        0.6806640625,       -0.1381835938,        0.5187988281,       -0.0915527344,       -0.9765625000
1489456240.8804030418,1489456240.8826980591,       -0.2285156250,        0.6772460938,       -0.1367187500,        0.5187988281,       -0.0915527344,       -0.9765625000
1489456240.8829720020,1489456240.8852670193,       -0.2285156250,        0.6772460938,       -0.1367187500,        0.8392333984,       -0.1220703125,       -1.0375976562
1489456240.8855400085,1489456240.8878340721,       -0.2285156250,        0.6772460938,       -0.1367187500,        0.8392333984,       -0.1220703125,       -1.0375976562
1489456240.8881080151,1489456240.8905930519,       -0.2285156250,        0.6772460938,       -0.1367187500,        0.5950927734,       -0.3051757812,       -1.0681152344
1489456240.8908760548,1489456240.8932900429,       -0.2280273438,        0.6782226562,       -0.1474609375,        0.5950927734,       -0.3051757812,       -1.0681152344
1489456240.8935720921,1489456240.8959798813,       -0.2280273438,        0.6782226562,       -0.1474609375,        0.3356933594,        0.0457763672,       -1.0223388672
1489456240.8962600231,1489456240.8986740112,       -0.2280273438,        0.6782226562,       -0.1474609375,        0.3356933594,        0.0457763672,       -1.0223388672
1489456240.8989648819,1489456240.9012510777,       -0.2280273438,        0.6772460938,       -0.1269531250,        0.3356933594,       -0.1678466797,       -0.7629394531
1489456240.9015250206,1489456240.9038119316,       -0.2309570312,        0.6772460938,       -0.1269531250,        0.3356933594,       -0.1678466797,       -0.7629394531
1489456240.9040861130,1489456240.9063770771,       -0.2309570312,        0.6772460938,       -0.1269531250,        0.5645751953,       -0.2136230469,       -1.1138916016
1489456240.9066519737,1489456240.9089570045,       -0.2309570312,        0.6772460938,       -0.1269531250,        0.5645751953,       -0.2136230469,       -1.1138916016
1489456240.9092381001,1489456240.9116549492,       -0.2309570312,        0.6787109375,       -0.1357421875,        0.9002685547,       -0.1220703125,       -1.5106201172
1489456240.9119369984,1489456240.9143559933,       -0.2265625000,        0.6787109375,       -0.1357421875,        0.9002685547,       -0.1220703125,       -1.5106201172
1489456240.9146370888,1489456240.9170479774,       -0.2265625000,        0.6787109375,       -0.1357421875,        0.8544921875,       -0.1068115234,       -1.3580322266
1489456240.9173290730,1489456240.9197490215,       -0.2265625000,        0.6787109375,       -0.1357421875,        0.8544921875,       -0.1068115234,       -1.3580322266
1489456240.9200301170,1489456240.9224390984,       -0.2319335938,        0.6777343750,       -0.1318359375,        0.6256103516,       -0.0762939453,       -1.1749267578
1489456240.9227209091,1489456240.9251389503,       -0.2319335938,        0.6777343750,       -0.1318359375,        0.6256103516,       -0.0762939453,       -1.1749267578
1489456240.9255259037,1489456240.9279410839,       -0.2319335938,        0.6777343750,       -0.1318359375,        0.9002685547,       -0.0610351562,       -1.1444091797
1489456240.9282228947,1489456240.9306519032,       -0.2319335938,        0.6777343750,       -0.1318359375,        0.9002685547,       -0.0610351562,       -1.1444091797
1489456240.9309329987,1489456240.9333469868,       -0.2265625000,        0.6801757812,       -0.1342773438,        0.7171630859,        0.1831054688,       -1.4343261719
1489456240.9336299896,1489456240.9360458851,       -0.2265625000,        0.6801757812,       -0.1342773438,        0.7171630859,        0.1831054688,       -1.4343261719
1489456240.9363260269,1489456240.9387419224,       -0.2265625000,        0.6801757812,       -0.1342773438,        0.9002685547,       -0.0305175781,       -1.4648437500
1489456240.9390749931,1489456240.9414930344,       -0.2265625000,        0.6801757812,       -0.1406250000,        0.9002685547,       -0.0305175781,       -1.4648437500
1489456240.9417760372,1489456240.9441881180,       -0.2329101562,        0.6738281250,       -0.1406250000,        0.3662109375,       -0.0457763672,       -1.4038085938
1489456240.9444708824,1489456240.9470989704,       -0.2329101562,        0.6738281250,       -0.1406250000,        0.3662109375,       -0.0457763672,       -1.4038085938
1489456240.9473800659,1489456240.9501891136,       -0.2329101562,        0.6738281250,       -0.1406250000,        0.4882812500,       -0.1068115234,       -1.2817382812
1489456240.9504649639,1489456240.9527599812,       -0.2382812500,        0.6840820312,       -0.1411132812,        0.4882812500,       -0.1068115234,       -1.2817382812
1489456240.9530360699,1489456240.9553279877,       -0.2382812500,        0.6840820312,       -0.1411132812,        0.2899169922,       -0.0305175781,       -1.1291503906
1489456240.9556028843,1489456240.9578909874,       -0.2382812500,        0.6840820312,       -0.1411132812,        0.2899169922,       -0.0305175781,       -1.1291503906
1489456240.9581639767,1489456240.9605538845,       -0.2382812500,        0.6840820312,       -0.1411132812,        0.7171630859,        0.2441406250,       -1.6174316406
1489456240.9608368874,1489456240.9632480145,       -0.2304687500,        0.6840820312,       -0.1406250000,        0.7171630859,        0.2441406250,       -1.6174316406
1489456240.9635291100,1489456240.9659440517,       -0.2304687500,        0.6840820312,       -0.1406250000,        1.0375976562,        0.5798339844,       -1.2512207031
1489456240.9662249088,1489456240.9686400890,       -0.2304687500,        0.6840820312,       -0.1406250000,        1.0375976562,        0.5798339844,       -1.2512207031
1489456240.9689309597,1489456240.9713459015,       -0.2304687500,        0.6840820312,       -0.1406250000,        1.0375976562,        0.1983642578,       -0.8850097656
1489456240.9716269970,1489456240.9740419388,       -0.2309570312,        0.6787109375,       -0.1386718750,        1.0375976562,        0.1983642578,       -0.8850097656
1489456240.9743230343,1489456240.9767389297,       -0.2309570312,        0.6787109375,       -0.1386718750,        1.0375976562,        0.5340576172,       -1.4190673828
1489456240.9770200253,1489456240.9794209003,       -0.2309570312,        0.6787109375,       -0.1386718750,        1.0528564453,        0.5340576172,       -1.4190673828
1489456240.9796950817,1489456240.9819910526,       -0.2309570312,        0.6777343750,       -0.1376953125,        1.0528564453,        0.3356933594,       -1.5411376953
1489456240.9822640419,1489456240.9845569134,       -0.2299804688,        0.6777343750,       -0.1376953125,        0.8544921875,        0.3356933594,       -1.5411376953
1489456240.9848310947,1489456240.9871180058,       -0.2299804688,        0.6777343750,       -0.1376953125,        0.8544921875,        0.3356933594,       -1.4801025391
1489456240.9873909950,1489456240.9896919727,       -0.2299804688,        0.6777343750,       -0.1376953125,        0.0000000000,        0.2288818359,       -1.4801025391
1489456240.9900779724,1489456240.9923698902,       -0.2299804688,        0.6743164062,       -0.1386718750,        0.0000000000,        0.2288818359,       -1.2969970703
1489456240.9926459789,1489456240.9949369431,       -0.2333984375,        0.6743164062,       -0.1386718750,        0.3356933594,        0.5493164062,       -1.2969970703
1489456240.9952130318,1489456240.9975030422,       -0.2333984375,        0.6743164062,       -0.1386718750,        0.3356933594,        0.5493164062,       -1.2969970703
1489456240.9977779388,1489456241.0001869202,       -0.2333984375,        0.6743164062,       -0.1386718750,        0.6713867188,        0.5340576172,       -1.3732910156
1489456241.0004630089,1489456241.0027580261,       -0.2294921875,        0.6791992188,       -0.1416015625,        0.6713867188,        0.5340576172,       -1.3732910156
1489456241.0030329227,1489456241.0053269863,       -0.2294921875,        0.6791992188,       -0.1416015625,        0.6561279297,        0.4577636719,       -1.4343261719
1489456241.0055999756,1489456241.0078890324,       -0.2294921875,        0.6791992188,       -0.1416015625,        0.6561279297,        0.4577636719,       -1.4343261719
1489456241.0081629753,1489456241.0106379986,       -0.2294921875,        0.6791992188,       -0.1416015625,        0.8087158203,        0.4730224609,       -1.2664794922
1489456241.0109210014,1489456241.0133349895,       -0.2329101562,        0.6743164062,       -0.1376953125,        0.8087158203,        0.4730224609,       -1.2664794922
1489456241.0136160851,1489456241.0160279274,       -0.2329101562,        0.6743164062,       -0.1376953125,        0.5340576172,        0.4730224609,       -1.2207031250
1489456241.0163118839,1489456241.0187270641,       -0.2329101562,        0.6743164062,       -0.1376953125,        0.5340576172,        0.4730224609,       -1.2207031250
1489456241.0190620422,1489456241.0214760303,       -0.2329101562,        0.6743164062,       -0.1376953125,        0.3814697266,        0.5493164062,       -1.1138916016
1489456241.0217559338,1489456241.0241699219,       -0.2329101562,        0.6831054688,       -0.1372070312,        0.3814697266,        0.5493164062,       -1.1138916016
1489456241.0244510174,1489456241.0268640518,       -0.2329101562,        0.6831054688,       -0.1372070312,        0.2288818359,        0.5340576172,       -1.1444091797
1489456241.0271449089,1489456241.0295639038,       -0.2329101562,        0.6831054688,       -0.1372070312,        0.2288818359,        0.5340576172,       -1.1444091797
1489456241.0298459530,1489456241.0322620869,       -0.2329101562,        0.6831054688,       -0.1406250000,        0.1983642578,        0.6866455078,       -1.3732910156
1489456241.0325438976,1489456241.0349578857,       -0.2270507812,        0.6767578125,       -0.1406250000,        0.1983642578,        0.6866455078,       -1.3732910156
1489456241.0352399349,1489456241.0376529694,       -0.2270507812,        0.6767578125,       -0.1406250000,        0.2593994141,        0.3662109375,       -1.5411376953
1489456241.0379350185,1489456241.0402879715,       -0.2270507812,        0.6767578125,       -0.1406250000,        0.2593994141,        0.3662109375,       -1.5411376953
1489456241.0405631065,1489456241.0428509712,       -0.2270507812,        0.6806640625,       -0.1381835938,        0.6561279297,        0.3967285156,       -1.4343261719
1489456241.0431249142,1489456241.0454199314,       -0.2255859375,        0.6806640625,       -0.1381835938,        0.6561279297,        0.3967285156,       -1.4343261719
1489456241.0456950665,1489456241.0479838848,       -0.2255859375,        0.6806640625,       -0.1381835938,        0.5645751953,        0.2899169922,       -1.2054443359
1489456241.0482590199,1489456241.0506889820,       -0.2255859375,        0.6806640625,       -0.1381835938,        0.5645751953,        0.2899169922,       -1.2054443359
1489456241.0509719849,1489456241.0533730984,       -0.2304687500,        0.6728515625,       -0.1362304688,        0.5035400391,        0.2288818359,       -1.4953613281
1489456241.0537579060,1489456241.0561621189,       -0.2304687500,        0.6728515625,       -0.1362304688,        0.5035400391,        0.2288818359,       -1.4953613281
1489456241.0564420223,1489456241.0588600636,       -0.2304687500,        0.6728515625,       -0.1362304688,        0.3967285156,        0.2441406250,       -1.2969970703
1489456241.0591421127,1489456241.0615460873,       -0.2304687500,        0.6728515625,       -0.1362304688,        0.3967285156,        0.2441406250,       -1.2969970703
1489456241.0618259907,1489456241.0642230511,       -0.2275390625,        0.6787109375,       -0.1425781250,        0.7019042969,        0.3356933594,       -1.4190673828
1489456241.0645039082,1489456241.0669889450,       -0.2275390625,        0.6787109375,       -0.1425781250,        0.7019042969,        0.3356933594,       -1.4190673828
1489456241.0672719479,1489456241.0700159073,       -0.2275390625,        0.6787109375,       -0.1425781250,        0.2593994141,        0.5035400391,       -1.0833740234
1489456241.0702989101,1489456241.0727050304,       -0.2275390625,        0.6787109375,       -0.1313476562,        0.2593994141,        0.5035400391,       -1.0833740234
1489456241.0729880333,1489456241.0753860474,       -0.2285156250,        0.6713867188,       -0.1313476562,        0.5340576172,        0.4425048828,       -1.3580322266
1489456241.0756669044,1489456241.0780670643,       -0.2285156250,        0.6713867188,       -0.1313476562,        0.5340576172,        0.4425048828,       -1.3580322266
1489456241.0783479214,1489456241.0807349682,       -0.2285156250,        0.6713867188,       -0.1313476562,        0.9613037109,        0.3967285156,       -1.7242431641
1489456241.0810151100,1489456241.0833959579,       -0.2285156250,        0.6831054688,       -0.1342773438,        0.9613037109,        0.3967285156,       -1.7242431641
1489456241.0836749077,1489456241.0860550404,       -0.2250976562,        0.6831054688,       -0.1342773438,        0.9765625000,        0.3814697266,       -1.0375976562
1489456241.0863339901,1489456241.0887169838,       -0.2250976562,        0.6831054688,       -0.1342773438,        0.9765625000,        0.3814697266,       -1.0375976562
1489456241.0890600681,1489456241.0914731026,       -0.2250976562,        0.6831054688,       -0.1342773438,        0.5950927734,        0.1678466797,       -0.9918212891
1489456241.0917539597,1489456241.0941679478,       -0.2329101562,        0.6733398438,       -0.1293945312,        0.5950927734,        0.1678466797,       -0.9918212891
1489456241.0944480896,1489456241.0968649387,       -0.2329101562,        0.6733398438,       -0.1293945312,        0.5340576172,        0.0610351562,       -1.2359619141
1489456241.0971479416,1489456241.0995249748,       -0.2329101562,        0.6733398438,       -0.1293945312,        0.5340576172,        0.0610351562,       -1.2359619141
1489456241.0998010635,1489456241.1020929813,       -0.2329101562,        0.6733398438,       -0.1293945312,        0.4882812500,        0.0762939453,       -1.2817382812
1489456241.1023669243,1489456241.1046569347,       -0.2275390625,        0.6787109375,       -0.1445312500,        0.4882812500,        0.0762939453,       -1.2817382812
1489456241.1049311161,1489456241.1072208881,       -0.2275390625,        0.6787109375,       -0.1445312500,        0.4882812500,        0.1068115234,       -0.9460449219
1489456241.1074960232,1489456241.1098361015,       -0.2275390625,        0.6787109375,       -0.1445312500,        0.2746582031,        0.1068115234,       -0.9460449219
1489456241.1101100445,1489456241.1124019623,       -0.2275390625,        0.6787109375,       -0.1445312500,        0.2746582031,        0.1068115234,       -1.0833740234
1489456241.1126759052,1489456241.1149630547,       -0.2329101562,        0.6752929688,       -0.1352539062,        0.2136230469,        0.0457763672,       -1.0833740234
1489456241.1152379513,1489456241.1175239086,       -0.2329101562,        0.6752929688,       -0.1352539062,        0.2136230469,        0.0457763672,       -1.4495849609
1489456241.1178979874,1489456241.1203238964,       -0.2329101562,        0.6752929688,       -0.1352539062,        0.5798339844,        0.2746582031,       -1.4495849609
1489456241.1205980778,1489456241.1228868961,       -0.2329101562,        0.6752929688,       -0.1450195312,        0.5798339844,        0.2746582031,       -1.1901855469
1489456241.1231610775,1489456241.1254539490,       -0.2314453125,        0.6762695312,       -0.1450195312,        0.4730224609,        0.1220703125,       -1.1901855469
1489456241.1257300377,1489456241.1280200481,       -0.2314453125,        0.6762695312,       -0.1450195312,        0.4730224609,        0.1220703125,       -1.1901855469
1489456241.1282949448,1489456241.1307849884,       -0.2314453125,        0.6762695312,       -0.1450195312,        0.3051757812,       -0.0610351562,       -0.9002685547
1489456241.1310670376,1489456241.1334800720,       -0.2314453125,        0.6821289062,       -0.1289062500,        0.3051757812,       -0.0610351562,       -0.9002685547
1489456241.1337618828,1489456241.1361770630,       -0.2407226562,        0.6821289062,       -0.1289062500,        0.5035400391,        0.0305175781,       -0.9765625000
1489456241.1364591122,1489456241.1388831139,       -0.2407226562,        0.6821289062,       -0.1289062500,        0.5035400391,        0.0305175781,       -0.9765625000
1489456241.1391661167,1489456241.1415839195,       -0.2407226562,        0.6821289062,       -0.1289062500,        0.7171630859,        0.1678466797,       -1.2359619141
1489456241.1418669224,1489456241.1442809105,       -0.2363281250,        0.6752929688,       -0.1391601562,        0.7171630859,        0.1678466797,       -1.2359619141
1489456241.1445620060,1489456241.1469709873,       -0.2363281250,        0.6752929688,       -0.1391601562,        0.8850097656,        0.3356933594,       -1.2207031250
1489456241.1472530365,1489456241.1496360302,       -0.2363281250,        0.6752929688,       -0.1391601562,        0.8850097656,        0.3356933594,       -1.2207031250
1489456241.1499099731,1489456241.1522030830,       -0.2363281250,        0.6752929688,       -0.1391601562,        1.0833740234,        0.3509521484,       -1.2664794922
1489456241.1524760723,1489456241.1547698975,       -0.2377929688,        0.6757812500,       -0.1396484375,        1.0833740234,        0.3509521484,       -1.2664794922
1489456241.1550428867,1489456241.1573290825,       -0.2377929688,        0.6757812500,       -0.1396484375,        0.6866455078,        0.5187988281,       -1.1444091797
1489456241.1576030254,1489456241.1599628925,       -0.2377929688,        0.6757812500,       -0.1396484375,        0.6866455078,        0.5187988281,       -1.1444091797
1489456241.1602439880,1489456241.1626629829,       -0.2377929688,        0.6757812500,       -0.1396484375,        0.5950927734,        0.5340576172,       -0.8239746094
1489456241.1629428864,1489456241.1653530598,       -0.2377929688,        0.6816406250,       -0.1406250000,        0.5950927734,        0.5340576172,       -0.8239746094
1489456241.1656339169,1489456241.1680479050,       -0.2377929688,        0.6816406250,       -0.1406250000,        0.8087158203,        0.3814697266,       -0.7781982422
1489456241.1683299541,1489456241.1707580090,       -0.2377929688,        0.6816406250,       -0.1406250000,        0.8087158203,        0.3814697266,       -0.7781982422
1489456241.1710400581,1489456241.1734559536,       -0.2377929688,        0.6816406250,       -0.1372070312,        0.3814697266,        0.5645751953,       -0.8544921875
1489456241.1737380028,1489456241.1761529446,       -0.2377929688,        0.6752929688,       -0.1372070312,        0.3814697266,        0.5645751953,       -0.8544921875
1489456241.1764369011,1489456241.1788530350,       -0.2377929688,        0.6752929688,       -0.1372070312,        0.2746582031,        0.3814697266,       -1.0070800781
1489456241.1791350842,1489456241.1815490723,       -0.2377929688,        0.6752929688,       -0.1372070312,        0.2746582031,        0.3814697266,       -1.0070800781
1489456241.1818299294,1489456241.1842420101,       -0.2377929688,        0.6767578125,       -0.1323242188,        0.6866455078,        0.2136230469,       -0.9460449219
1489456241.1846289635,1489456241.1871750355,       -0.2392578125,        0.6767578125,       -0.1323242188,        0.6866455078,        0.2136230469,       -0.9460449219
1489456241.1874580383,1489456241.1900379658,       -0.2392578125,        0.6767578125,       -0.1323242188,        0.2288818359,        0.4577636719,       -0.7324218750
1489456241.1903231144,1489456241.1927421093,       -0.2392578125,        0.6767578125,       -0.1323242188,        0.2288818359,        0.4577636719,       -0.7324218750
1489456241.1930229664,1489456241.1954400539,       -0.2368164062,        0.6723632812,       -0.1357421875,        0.3662109375,        0.2899169922,       -1.1138916016
1489456241.1957199574,1489456241.1981289387,       -0.2368164062,        0.6723632812,       -0.1357421875,        0.3662109375,        0.2899169922,       -1.1138916016
1489456241.1984100342,1489456241.2007329464,       -0.2368164062,        0.6723632812,       -0.1357421875,        0.0152587891,        0.3356933594,       -0.7476806641
1489456241.2010099888,1489456241.2033059597,       -0.2368164062,        0.6723632812,       -0.1357421875,        0.0152587891,        0.3356933594,       -0.7476806641
1489456241.2035820484,1489456241.2058730125,       -0.2382812500,        0.6801757812,       -0.1386718750,       -0.5950927734,        0.5035400391,       -0.7629394531
1489456241.2061469555,1489456241.2084341049,       -0.2382812500,        0.6801757812,       -0.1386718750,       -0.5950927734,        0.5035400391,       -0.7629394531
1489456241.2087080479,1489456241.2111248970,       -0.2382812500,        0.6801757812,       -0.1386718750,       -0.3814697266,        0.9307861328,       -0.8239746094
1489456241.2114090919,1489456241.2138230801,       -0.2382812500,        0.6801757812,       -0.1435546875,       -0.3814697266,        0.9307861328,       -0.8239746094
1489456241.2141048908,1489456241.2165200710,       -0.2275390625,        0.6762695312,       -0.1435546875,       -0.0152587891,        0.9155273438,       -1.1901855469
1489456241.2168009281,1489456241.2192099094,       -0.2275390625,        0.6762695312,       -0.1435546875,       -0.0152587891,        0.9155273438,       -1.1901855469
1489456241.2194850445,1489456241.2217779160,       -0.2275390625,        0.6762695312,       -0.1435546875,       -0.1220703125,        0.6256103516,       -0.9002685547
1489456241.2220540047,1489456241.2243459225,       -0.2275390625,        0.6777343750,       -0.1342773438,       -0.1220703125,        0.6256103516,       -0.9002685547
1489456241.2246220112,1489456241.2269110680,       -0.2407226562,        0.6777343750,       -0.1342773438,        3.7841796875,        0.4730224609,       -0.5187988281
1489456241.2271850109,1489456241.2294819355,       -0.2407226562,        0.6777343750,       -0.1342773438,        0.0457763672,        0.4730224609,       -0.5187988281
1489456241.2297570705,1489456241.2320508957,       -0.2407226562,        0.6777343750,       -0.1342773438,        0.0457763672,        0.4730224609,       -0.6408691406
1489456241.2323269844,1489456241.2346179485,       -0.2407226562,        0.6713867188,       -0.1420898438,       -0.1220703125,        0.5187988281,       -0.6408691406
1489456241.2348930836,1489456241.2371869087,       -0.2373046875,        0.6713867188,       -0.1420898438,       -0.1220703125,        0.5187988281,       -0.6713867188
1489456241.2374598980,1489456241.2399230003,       -0.2373046875,        0.6713867188,       -0.1420898438,        0.1068115234,        0.6866455078,       -0.6713867188
1489456241.2401978970,1489456241.2424900532,       -0.2373046875,        0.6713867188,       -0.1420898438,        0.1068115234,        0.6866455078,       -0.6713867188
1489456241.2427649498,1489456241.2450659275,       -0.2363281250,        0.6816406250,       -0.1347656250,       -0.0457763672,        0.8392333984,       -0.8087158203
1489456241.2453410625,1489456241.2476329803,       -0.2363281250,        0.6816406250,       -0.1347656250,       -0.0457763672,        0.8392333984,       -0.8087158203
1489456241.2480139732,1489456241.2504649162,       -0.2363281250,        0.6816406250,       -0.1347656250,        0.0152587891,        0.9307861328,       -1.1444091797
1489456241.2507400513,1489456241.2530350685,       -0.2363281250,        0.6816406250,       -0.1347656250,        0.0152587891,        0.9307861328,       -1.1444091797
1489456241.2533071041,1489456241.2555930614,       -0.2290039062,        0.6743164062,       -0.1376953125,        0.0610351562,        1.1901855469,       -1.0681152344
1489456241.2558670044,1489456241.2581579685,       -0.2290039062,        0.6743164062,       -0.1376953125,        0.0610351562,        1.1901855469,       -1.0681152344
1489456241.2584319115,1489456241.2608671188,       -0.2290039062,        0.6743164062,       -0.1376953125,       -0.6713867188,        1.3580322266,       -0.5798339844
1489456241.2611470222,1489456241.2635641098,       -0.2290039062,        0.6743164062,       -0.1376953125,       -0.6713867188,        1.3580322266,       -0.5798339844
1489456241.2638449669,1489456241.2662620544,       -0.2304687500,        0.6757812500,       -0.1323242188,       -0.2136230469,        0.9918212891,       -0.8697509766
1489456241.2665450573,1489456241.2689609528,       -0.2304687500,        0.6757812500,       -0.1323242188,       -0.2136230469,        0.9918212891,       -0.8697509766
1489456241.2692420483,1489456241.2716579437,       -0.2304687500,        0.6757812500,       -0.1323242188,        0.0000000000,        0.9307861328,       -0.9307861328
1489456241.2719390392,1489456241.2743499279,       -0.2304687500,        0.6757812500,       -0.1411132812,        0.0000000000,        0.9307861328,       -0.9307861328
1489456241.2746329308,1489456241.2770481110,       -0.2265625000,        0.6767578125,       -0.1411132812,        0.1068115234,        0.9155273438,       -0.7934570312
1489456241.2773311138,1489456241.2797489166,       -0.2265625000,        0.6767578125,       -0.1411132812,        0.1068115234,        0.9155273438,       -0.7934570312
1489456241.2800319195,1489456241.2824480534,       -0.2265625000,        0.6767578125,       -0.1411132812,        0.1678466797,        0.6866455078,       -0.8087158203
1489456241.2827279568,1489456241.2851409912,       -0.2265625000,        0.6723632812,       -0.1396484375,        0.1678466797,        0.6866455078,       -0.8087158203
1489456241.2854220867,1489456241.2878410816,       -0.2294921875,        0.6723632812,       -0.1396484375,        0.1068115234,        0.9155273438,       -0.8392333984
1489456241.2881240845,1489456241.2904679775,       -0.2294921875,        0.6723632812,       -0.1396484375,        0.1068115234,        0.9155273438,       -0.8392333984
1489456241.2907440662,1489456241.2930390835,       -0.2294921875,        0.6723632812,       -0.1396484375,        0.1678466797,        0.6408691406,       -0.5950927734
1489456241.2933139801,1489456241.2956008911,       -0.2299804688,        0.6757812500,       -0.1445312500,        0.1678466797,        0.6408691406,       -0.5950927734
1489456241.2958760262,1489456241.2981650829,       -0.2299804688,        0.6757812500,       -0.1445312500,        0.3814697266,        0.2136230469,       -0.8239746094
1489456241.2984390259,1489456241.3007700443,       -0.2299804688,        0.6757812500,       -0.1445312500,        0.3814697266,        0.2136230469,       -0.8239746094
1489456241.3010449409,1489456241.3033339977,       -0.2299804688,        0.6757812500,       -0.1445312500,        0.1068115234,        0.5035400391,       -0.9002685547
1489456241.3036079407,1489456241.3060820103,       -0.2265625000,        0.6772460938,       -0.1420898438,        0.1068115234,        0.5035400391,       -0.9002685547
1489456241.3063580990,1489456241.3086509705,       -0.2265625000,        0.6772460938,       -0.1420898438,       -3.7994384766,        0.6408691406,       -0.9155273438
1489456241.3093049526,1489456241.3115940094,       -0.2265625000,        0.6772460938,       -0.1420898438,       -0.1220703125,        0.6408691406,       -0.9155273438
1489456241.3119890690,1489456241.3142769337,       -0.2265625000,        0.6772460938,       -0.1420898438,        0.1068115234,        0.7781982422,       -1.1138916016
1489456241.3145539761,1489456241.3168420792,       -0.2368164062,        0.6728515625,       -0.1323242188,        0.1068115234,        0.7781982422,       -1.1138916016
1489456241.3171160221,1489456241.3194739819,       -0.2368164062,        0.6728515625,       -0.1323242188,        0.1068115234,        0.5645751953,       -1.0681152344
1489456241.3197500706,1489456241.3220350742,       -0.2368164062,        0.6728515625,       -0.1323242188,        0.3814697266,        0.5645751953,       -1.0681152344
1489456241.3223090172,1489456241.3245980740,       -0.2368164062,        0.6728515625,       -0.1323242188,        0.3814697266,        0.5645751953,       -0.8697509766
1489456241.3248710632,1489456241.3271579742,       -0.2299804688,        0.6767578125,       -0.1386718750,        0.2441406250,        0.7324218750,       -0.8697509766
1489456241.3274319172,1489456241.3297250271,       -0.2299804688,        0.6767578125,       -0.1386718750,        0.2441406250,        0.7324218750,       -1.2207031250
1489456241.3299980164,1489456241.3322880268,       -0.2299804688,        0.6767578125,       -0.1386718750,        0.7171630859,        0.4425048828,       -1.2207031250
1489456241.3325610161,1489456241.3348538876,       -0.2299804688,        0.6767578125,       -0.1386718750,        0.7171630859,        0.4425048828,       -1.2207031250
1489456241.3351271152,1489456241.3374149799,       -0.2338867188,        0.6821289062,       -0.1386718750,        0.5645751953,        0.2136230469,       -1.0070800781
1489456241.3376901150,1489456241.3400239944,       -0.2338867188,        0.6821289062,       -0.1386718750,        0.5645751953,        0.2136230469,       -1.0070800781
1489456241.3402979374,1489456241.3425879478,       -0.2338867188,        0.6821289062,       -0.1386718750,        0.3967285156,        0.2899169922,       -0.8239746094
1489456241.3428630829,1489456241.3451480865,       -0.2338867188,        0.6821289062,       -0.1367187500,        0.3967285156,        0.2899169922,       -0.8239746094
1489456241.3454229832,1489456241.3477120399,       -0.2329101562,        0.6733398438,       -0.1367187500,       -0.0762939453,        0.4425048828,       -0.6713867188
1489456241.3479890823,1489456241.3502840996,       -0.2329101562,        0.6733398438,       -0.1367187500,       -0.0762939453,        0.4425048828,       -0.6713867188
1489456241.3505620956,1489456241.3528439999,       -0.2329101562,        0.6733398438,       -0.1367187500,        0.1678466797,        0.4577636719,       -1.0681152344
1489456241.3531188965,1489456241.3554069996,       -0.2329101562,        0.6733398438,       -0.1494140625,        0.1678466797,        0.4577636719,       -1.0681152344
1489456241.3556799889,1489456241.3579709530,       -0.2343750000,        0.6772460938,       -0.1494140625,        0.4730224609,        0.4425048828,       -0.8850097656
1489456241.3582448959,1489456241.3606989384,       -0.2343750000,        0.6772460938,       -0.1494140625,        0.4730224609,        0.4425048828,       -0.8850097656
1489456241.3609728813,1489456241.3632709980,       -0.2343750000,        0.6772460938,       -0.1494140625,        0.8544921875,        0.3814697266,       -1.1291503906
1489456241.3635430336,1489456241.3658380508,       -0.2343750000,        0.6752929688,       -0.1396484375,        0.8544921875,        0.3814697266,       -1.1291503906
1489456241.3661100864,1489456241.3684039116,       -0.2314453125,        0.6752929688,       -0.1396484375,        0.8544921875,        0.4119873047,       -1.2054443359
1489456241.3686780930,1489456241.3711740971,       -0.2314453125,        0.6752929688,       -0.1396484375,        0.9765625000,        0.4119873047,       -1.2054443359
1489456241.3714559078,1489456241.3738720417,       -0.2314453125,        0.6752929688,       -0.1396484375,        0.9765625000,        0.3356933594,       -1.1749267578
1489456241.3742609024,1489456241.3766760826,       -0.2329101562,        0.6713867188,       -0.1376953125,        0.7934570312,        0.3356933594,       -1.1749267578
1489456241.3769578934,1489456241.3794329166,       -0.2329101562,        0.6713867188,       -0.1376953125,        0.7934570312,        0.3204345703,       -1.2207031250
1489456241.3797080517,1489456241.3820099831,       -0.2329101562,        0.6713867188,       -0.1376953125,        0.5493164062,        0.3204345703,       -1.2207031250
1489456241.3822839260,1489456241.3845789433,       -0.2329101562,        0.6713867188,       -0.1376953125,        0.5493164062,        0.3204345703,       -0.9307861328
1489456241.3848540783,1489456241.3871428967,       -0.2343750000,        0.6723632812,       -0.1323242188,        0.4119873047,        0.3814697266,       -0.9307861328
1489456241.3874180317,1489456241.3898470402,       -0.2343750000,        0.6723632812,       -0.1323242188,        0.4119873047,        0.3814697266,       -0.6713867188
1489456241.3901228905,1489456241.3924169540,       -0.2343750000,        0.6723632812,       -0.1323242188,        0.7781982422,        0.4272460938,       -0.6713867188
1489456241.3926908970,1489456241.3953390121,       -0.2343750000,        0.6723632812,       -0.1323242188,        0.7781982422,        0.4272460938,       -0.7171630859
1489456241.3956160545,1489456241.3979089260,       -0.2392578125,        0.6772460938,       -0.1357421875,        0.5340576172,        0.4730224609,       -0.7171630859
1489456241.3981840611,1489456241.4004790783,       -0.2392578125,        0.6772460938,       -0.1357421875,        0.5340576172,        0.4730224609,       -0.8850097656
1489456241.4007539749,1489456241.4030449390,       -0.2392578125,        0.6772460938,       -0.1357421875,        0.4272460938,        0.4577636719,       -0.8850097656
1489456241.4033179283,1489456241.4056060314,       -0.2392578125,        0.6772460938,       -0.1386718750,        0.4272460938,        0.4577636719,       -0.8850097656
1489456241.4058790207,1489456241.4081640244,       -0.2373046875,        0.6718750000,       -0.1386718750,        0.5798339844,        0.3814697266,       -0.9155273438
1489456241.4084401131,1489456241.4107749462,       -0.2373046875,        0.6718750000,       -0.1386718750,        0.5798339844,        0.3814697266,       -0.9155273438
1489456241.4110500813,1489456241.4133360386,       -0.2373046875,        0.6718750000,       -0.1386718750,        0.2441406250,        0.1831054688,       -0.8697509766
1489456241.4136090279,1489456241.4159040451,       -0.2373046875,        0.6718750000,       -0.1406250000,        0.2441406250,        0.1831054688,       -0.8697509766
1489456241.4161779881,1489456241.4184670448,       -0.2280273438,        0.6728515625,       -0.1406250000,        0.4119873047,        0.3967285156,       -1.2054443359
1489456241.4187409878,1489456241.4210400581,       -0.2280273438,        0.6728515625,       -0.1406250000,        0.4119873047,        0.3967285156,       -1.2054443359
1489456241.4213140011,1489456241.4236121178,       -0.2280273438,        0.6728515625,       -0.1406250000,        0.7019042969,        0.1525878906,       -1.1291503906
1489456241.4238851070,1489456241.4261710644,       -0.2280273438,        0.6767578125,       -0.1381835938,        0.7019042969,        0.1525878906,       -1.1291503906
1489456241.4264459610,1489456241.4287290573,       -0.2348632812,        0.6767578125,       -0.1381835938,        0.3051757812,        0.5187988281,       -0.9002685547
1489456241.4290559292,1489456241.4313499928,       -0.2348632812,        0.6767578125,       -0.1381835938,        0.3051757812,        0.5187988281,       -0.9002685547
1489456241.4316239357,1489456241.4339079857,       -0.2348632812,        0.6767578125,       -0.1381835938,       -0.0457763672,        0.6103515625,       -0.9155273438
1489456241.4341840744,1489456241.4364969730,       -0.2348632812,        0.6757812500,       -0.1401367188,       -0.0457763672,        0.6103515625,       -0.9155273438
1489456241.4368820190,1489456241.4393670559,       -0.2368164062,        0.6757812500,       -0.1401367188,       -0.0457763672,        0.7781982422,       -1.0375976562
1489456241.4396440983,1489456241.4419329166,       -0.2368164062,        0.6757812500,       -0.1401367188,       -0.4272460938,        0.7781982422,       -1.0375976562
1489456241.4422070980,1489456241.4445021152,       -0.2368164062,        0.6757812500,       -0.1401367188,       -0.4272460938,        0.5187988281,       -0.8087158203
1489456241.4447760582,1489456241.4470610619,       -0.2421875000,        0.6767578125,       -0.1303710938,        0.1525878906,        0.5187988281,       -0.8087158203
1489456241.4473350048,1489456241.4497470856,       -0.2421875000,        0.6767578125,       -0.1303710938,        0.1525878906,        0.5187988281,       -0.8850097656
1489456241.4500200748,1489456241.4523160458,       -0.2421875000,        0.6767578125,       -0.1303710938,        0.2441406250,        0.0915527344,       -0.8850097656
1489456241.4525899887,1489456241.4548768997,       -0.2421875000,        0.6767578125,       -0.1303710938,        0.2441406250,        0.0915527344,       -1.0681152344
1489456241.4551520348,1489456241.4574348927,       -0.2319335938,        0.6743164062,       -0.1298828125,        0.2746582031,        0.2746582031,       -1.0681152344
1489456241.4577100277,1489456241.4600229263,       -0.2319335938,        0.6743164062,       -0.1298828125,        0.2746582031,        0.2746582031,       -1.0681152344
1489456241.4602990150,1489456241.4625880718,       -0.2319335938,        0.6743164062,       -0.1298828125,        0.4425048828,        0.1983642578,       -0.7629394531
1489456241.4628620148,1489456241.4651520252,       -0.2319335938,        0.6743164062,       -0.1298828125,        0.4425048828,        0.1983642578,       -0.7629394531
1489456241.4654250145,1489456241.4677169323,       -0.2270507812,        0.6713867188,       -0.1425781250,        0.0610351562,        0.6256103516,       -0.8544921875
1489456241.4679920673,1489456241.4702839851,       -0.2270507812,        0.6713867188,       -0.1425781250,        0.0610351562,        0.6256103516,       -0.8544921875
1489456241.4705588818,1489456241.4728500843,       -0.2270507812,        0.6713867188,       -0.1425781250,        0.3967285156,        0.3967285156,       -0.9002685547
1489456241.4731230736,1489456241.4754118919,       -0.2270507812,        0.6713867188,       -0.1425781250,        0.3967285156,        0.3967285156,       -0.9002685547
1489456241.4756870270,1489456241.4779779911,       -0.2353515625,        0.6733398438,       -0.1391601562,        0.4425048828,        0.0457763672,       -0.9613037109
1489456241.4782528877,1489456241.4807059765,       -0.2353515625,        0.6733398438,       -0.1391601562,        0.4425048828,        0.0457763672,       -0.9613037109
1489456241.4809880257,1489456241.4834051132,       -0.2353515625,        0.6733398438,       -0.1391601562,        0.0305175781,        0.2746582031,       -0.8239746094
1489456241.4836881161,1489456241.4861090183,       -0.2353515625,        0.6733398438,       -0.1391601562,        0.0305175781,        0.2746582031,       -0.8239746094
1489456241.4863920212,1489456241.4888501167,       -0.2309570312,        0.6762695312,       -0.1533203125,        0.2441406250,        0.3967285156,       -0.8087158203
1489456241.4891250134,1489456241.4914169312,       -0.2309570312,        0.6762695312,       -0.1533203125,        0.2441406250,        0.3967285156,       -0.8087158203
1489456241.4916911125,1489456241.4939889908,       -0.2309570312,        0.6762695312,       -0.1533203125,        0.4425048828,        0.3509521484,       -0.9460449219
1489456241.4942629337,1489456241.4965569973,       -0.2309570312,        0.6762695312,       -0.1401367188,        0.4425048828,        0.3509521484,       -0.9460449219
1489456241.4968309402,1489456241.4991900921,       -0.2299804688,        0.6826171875,       -0.1401367188,        0.4425048828,        0.1983642578,       -1.0223388672
1489456241.4995789528,1489456241.5020039082,       -0.2299804688,        0.6826171875,       -0.1401367188,        0.8087158203,        0.1983642578,       -1.0223388672
1489456241.5022869110,1489456241.5047059059,       -0.2299804688,        0.6826171875,       -0.1401367188,        0.8087158203,        0.0915527344,       -1.2969970703
1489456241.5050671101,1489456241.5076210499,       -0.2299804688,        0.6801757812,       -0.1469726562,        0.7171630859,        0.0915527344,       -1.2969970703
1489456241.5079030991,1489456241.5105130672,       -0.2216796875,        0.6801757812,       -0.1469726562,        0.1983642578,        0.0000000000,       -1.0528564453
1489456241.5107951164,1489456241.5132169724,       -0.2216796875,        0.6801757812,       -0.1469726562,        0.1983642578,        0.0000000000,       -1.0528564453
1489456241.5134990215,1489456241.5159130096,       -0.2216796875,        0.6801757812,       -0.1469726562,        0.1068115234,        0.2899169922,       -0.7476806641
1489456241.5161960125,1489456241.5186100006,       -0.2294921875,        0.6791992188,       -0.1416015625,        0.1068115234,        0.2899169922,       -0.7476806641
1489456241.5189020634,1489456241.5213210583,       -0.2294921875,        0.6791992188,       -0.1416015625,        0.5340576172,        0.2288818359,       -0.7171630859
1489456241.5216009617,1489456241.5240149498,       -0.2294921875,        0.6791992188,       -0.1416015625,        0.5340576172,        0.2288818359,       -0.7171630859
1489456241.5242950916,1489456241.5267119408,       -0.2294921875,        0.6791992188,       -0.1416015625,        0.1678466797,        0.6103515625,       -0.5493164062
1489456241.5269949436,1489456241.5294599533,       -0.2343750000,        0.6777343750,       -0.1381835938,        0.1678466797,        0.6103515625,       -0.5493164062
1489456241.5297420025,1489456241.5321578979,       -0.2343750000,        0.6777343750,       -0.1381835938,        0.0305175781,        0.2593994141,       -0.6713867188
1489456241.5324399471,1489456241.5348579884,       -0.2343750000,        0.6777343750,       -0.1381835938,        0.0305175781,        0.2593994141,       -0.6713867188
1489456241.5351390839,1489456241.5375549793,       -0.2343750000,        0.6816406250,       -0.1484375000,        0.2899169922,       -0.1220703125,       -0.7629394531
1489456241.5378370285,1489456241.5401918888,       -0.2338867188,        0.6816406250,       -0.1484375000,        0.2899169922,       -0.1220703125,       -0.7629394531
1489456241.5404689312,1489456241.5427649021,       -0.2338867188,        0.6816406250,       -0.1484375000,        0.2899169922,        0.3967285156,       -0.7171630859
1489456241.5430390835,1489456241.5453319550,       -0.2338867188,        0.6816406250,       -0.1484375000,        0.4425048828,        0.3967285156,       -0.7171630859
1489456241.5456080437,1489456241.5478980541,       -0.2333984375,        0.6757812500,       -0.1450195312,        0.4425048828,        0.4119873047,       -0.8544921875
1489456241.5481719971,1489456241.5504770279,       -0.2333984375,        0.6757812500,       -0.1450195312,        0.8697509766,        0.4119873047,       -0.8544921875
1489456241.5507509708,1489456241.5530409813,       -0.2333984375,        0.6757812500,       -0.1450195312,        0.8697509766,        0.4119873047,       -0.7171630859
1489456241.5533139706,1489456241.5556080341,       -0.2333984375,        0.6757812500,       -0.1450195312,        0.9307861328,        0.4272460938,       -0.7171630859
1489456241.5558819771,1489456241.5581700802,       -0.2402343750,        0.6738281250,       -0.1420898438,        0.9307861328,        0.4272460938,       -0.7171630859
1489456241.5584449768,1489456241.5608839989,       -0.2402343750,        0.6738281250,       -0.1420898438,        0.3509521484,        0.4119873047,       -0.6561279297
1489456241.5611588955,1489456241.5634539127,       -0.2402343750,        0.6738281250,       -0.1420898438,        0.3509521484,        0.4119873047,       -0.6561279297
1489456241.5638360977,1489456241.5661299229,       -0.2402343750,        0.6738281250,       -0.1420898438,        0.4577636719,        0.1525878906,       -0.9002685547
1489456241.5664060116,1489456241.5686950684,       -0.2363281250,        0.6767578125,       -0.1401367188,        0.4577636719,        0.1525878906,       -0.9002685547
1489456241.5690240860,1489456241.5714569092,       -0.2363281250,        0.6767578125,       -0.1401367188,        0.3509521484,        0.1373291016,       -0.7171630859
1489456241.5717399120,1489456241.5741560459,       -0.2363281250,        0.6767578125,       -0.1401367188,        0.3509521484,        0.1373291016,       -0.7171630859
1489456241.5744369030,1489456241.5768499374,       -0.2363281250,        0.6767578125,       -0.1401367188,        0.4425048828,        0.2441406250,       -0.6561279297
1489456241.5771310329,1489456241.5795500278,       -0.2338867188,        0.6704101562,       -0.1455078125,        0.4425048828,        0.2441406250,       -0.6561279297
1489456241.5798330307,1489456241.5822420120,       -0.2338867188,        0.6704101562,       -0.1455078125,        0.5645751953,        0.2136230469,       -0.5798339844
1489456241.5825240612,1489456241.5849399567,       -0.2338867188,        0.6704101562,       -0.1455078125,        0.5645751953,        0.2136230469,       -0.5798339844
1489456241.5852200985,1489456241.5876340866,       -0.2338867188,        0.6704101562,       -0.1411132812,        0.1525878906,        0.2441406250,       -0.4882812500
1489456241.5879149437,1489456241.5902729034,       -0.2387695312,        0.6728515625,       -0.1411132812,        0.1525878906,        0.2441406250,       -0.4882812500
1489456241.5905489922,1489456241.5928440094,       -0.2387695312,        0.6728515625,       -0.1411132812,        0.1678466797,        0.2593994141,       -0.3662109375
1489456241.5931189060,1489456241.5954039097,       -0.2387695312,        0.6728515625,       -0.1411132812,        0.1678466797,        0.2593994141,       -0.3662109375
1489456241.5956768990,1489456241.5979650021,       -0.2387695312,        0.6728515625,       -0.1459960938,        0.0915527344,        0.3509521484,       -0.5187988281
1489456241.5982420444,1489456241.6006689072,       -0.2275390625,        0.6728515625,       -0.1459960938,        0.0915527344,        0.3509521484,       -0.5187988281
1489456241.6009519100,1489456241.6033630371,       -0.2275390625,        0.6728515625,       -0.1459960938,       -0.2441406250,        0.3662109375,       -0.8544921875
1489456241.6036429405,1489456241.6060628891,       -0.2275390625,        0.6728515625,       -0.1459960938,       -0.2441406250,        0.3662109375,       -0.8544921875
1489456241.6063430309,1489456241.6087529659,       -0.2363281250,        0.6748046875,       -0.1455078125,        0.3204345703,       -0.0915527344,       -0.8087158203
1489456241.6090879440,1489456241.6115000248,       -0.2363281250,        0.6748046875,       -0.1455078125,        0.3204345703,       -0.0915527344,       -0.8087158203
1489456241.6117830276,1489456241.6142039299,       -0.2363281250,        0.6748046875,       -0.1455078125,        0.2899169922,       -0.0762939453,       -0.7629394531
1489456241.6144850254,1489456241.6168980598,       -0.2363281250,        0.6748046875,       -0.1455078125,        0.2899169922,       -0.0762939453,       -0.7629394531
1489456241.6171789169,1489456241.6196420193,       -0.2387695312,        0.6738281250,       -0.1474609375,        0.0610351562,        0.1831054688,       -0.5340576172
1489456241.6199240685,1489456241.6223399639,       -0.2387695312,        0.6738281250,       -0.1474609375,        0.0610351562,        0.1831054688,       -0.5340576172
1489456241.6226210594,1489456241.6251039505,       -0.2387695312,        0.6738281250,       -0.1474609375,        0.1373291016,        0.2136230469,       -0.7934570312
1489456241.6255381107,1489456241.6279449463,       -0.2387695312,        0.6738281250,       -0.1362304688,        0.1373291016,        0.2136230469,       -0.7934570312
1489456241.6287150383,1489456241.6311480999,       -0.2329101562,        0.6767578125,       -0.1362304688,        0.2593994141,        0.2746582031,       -0.6866455078
1489456241.6314299107,1489456241.6338529587,       -0.2329101562,        0.6767578125,       -0.1362304688,        0.2593994141,        0.2746582031,       -0.6866455078
1489456241.6341369152,1489456241.6365540028,       -0.2329101562,        0.6767578125,       -0.1362304688,        0.0152587891,        0.1525878906,       -0.7019042969
1489456241.6368370056,1489456241.6392428875,       -0.2343750000,        0.6738281250,       -0.1435546875,        0.0152587891,        0.1525878906,       -0.7019042969
1489456241.6395170689,1489456241.6418139935,       -0.2343750000,        0.6738281250,       -0.1435546875,        0.6408691406,       -0.3204345703,       -0.8850097656
1489456241.6420879364,1489456241.6443839073,       -0.2343750000,        0.6738281250,       -0.1435546875,        0.6408691406,       -0.3204345703,       -0.8850097656
1489456241.6446580887,1489456241.6469509602,       -0.2343750000,        0.6738281250,       -0.1435546875,        0.5340576172,        0.0457763672,       -1.0528564453
1489456241.6472260952,1489456241.6495749950,       -0.2377929688,        0.6757812500,       -0.1362304688,        0.5340576172,        0.0457763672,       -1.0528564453
1489456241.6498570442,1489456241.6522700787,       -0.2377929688,        0.6757812500,       -0.1362304688,        0.2746582031,       -0.3509521484,       -0.9460449219
1489456241.6525530815,1489456241.6549730301,       -0.2377929688,        0.6757812500,       -0.1362304688,        0.2746582031,       -0.3509521484,       -0.9460449219
1489456241.6552550793,1489456241.6576659679,       -0.2377929688,        0.6757812500,       -0.1362304688,        0.0152587891,       -0.3204345703,       -0.8850097656
1489456241.6579480171,1489456241.6602840424,       -0.2363281250,        0.6772460938,       -0.1396484375,        0.0152587891,       -0.3204345703,       -0.8850097656
1489456241.6605589390,1489456241.6628611088,       -0.2363281250,        0.6772460938,       -0.1396484375,       -0.2136230469,       -0.1678466797,       -0.5645751953
1489456241.6631340981,1489456241.6654269695,       -0.2363281250,        0.6772460938,       -0.1396484375,       -0.2136230469,       -0.1678466797,       -0.5645751953
1489456241.6656999588,1489456241.6679880619,       -0.2363281250,        0.6772460938,       -0.1499023438,        0.1525878906,       -0.4577636719,       -0.7019042969
1489456241.6682629585,1489456241.6707029343,       -0.2363281250,        0.6748046875,       -0.1499023438,        0.1525878906,       -0.4577636719,       -0.7019042969
1489456241.6709790230,1489456241.6732668877,       -0.2363281250,        0.6748046875,       -0.1499023438,        0.1525878906,       -0.9307861328,       -0.8544921875
1489456241.6735401154,1489456241.6758320332,       -0.2363281250,        0.6748046875,       -0.1499023438,        0.4577636719,       -0.9307861328,       -0.8544921875
1489456241.6761069298,1489456241.6783959866,       -0.2363281250,        0.6748046875,       -0.1440429688,        0.4577636719,       -0.9307861328,       -0.7476806641
1489456241.6786720753,1489456241.6811919212,       -0.2353515625,        0.6728515625,       -0.1440429688,        0.1678466797,       -0.7476806641,       -0.7476806641
1489456241.6814720631,1489456241.6838929653,       -0.2353515625,        0.6728515625,       -0.1440429688,        0.1678466797,       -0.7476806641,       -0.7629394531
1489456241.6841731071,1489456241.6865880489,       -0.2353515625,        0.6728515625,       -0.1440429688,       -0.0610351562,       -0.4425048828,       -0.7629394531
1489456241.6868689060,1489456241.6892778873,       -0.2260742188,        0.6762695312,       -0.1489257812,       -0.0610351562,       -0.4425048828,       -0.9765625000
1489456241.6895530224,1489456241.6918540001,       -0.2260742188,        0.6762695312,       -0.1489257812,       -0.1068115234,       -0.5645751953,       -0.9765625000
1489456241.6922349930,1489456241.6945230961,       -0.2260742188,        0.6762695312,       -0.1489257812,       -0.1068115234,       -0.5645751953,       -0.6256103516
1489456241.6947989464,1489456241.6970899105,       -0.2260742188,        0.6762695312,       -0.1489257812,       -0.0610351562,       -0.5493164062,       -0.6256103516
1489456241.6973650455,1489456241.6997160912,       -0.2368164062,        0.6743164062,       -0.1513671875,       -0.0610351562,       -0.5493164062,       -0.6256103516
1489456241.6999979019,1489456241.7024109364,       -0.2368164062,        0.6743164062,       -0.1513671875,       -0.1525878906,       -0.5340576172,       -0.8850097656
1489456241.7026920319,1489456241.7051100731,       -0.2368164062,        0.6743164062,       -0.1513671875,       -0.1525878906,       -0.5340576172,       -0.8850097656
1489456241.7053918839,1489456241.7078049183,       -0.2368164062,        0.6743164062,       -0.1513671875,        0.1068115234,       -0.6256103516,       -1.0223388672
1489456241.7080869675,1489456241.7105159760,       -0.2416992188,        0.6772460938,       -0.1411132812,        0.1068115234,       -0.6256103516,       -1.0223388672
1489456241.7107989788,1489456241.7132198811,       -0.2416992188,        0.6772460938,       -0.1411132812,       -0.0915527344,       -0.6103515625,       -0.9307861328
1489456241.7135028839,1489456241.7159149647,       -0.2416992188,        0.6772460938,       -0.1411132812,       -0.0915527344,       -0.6103515625,       -0.9307861328
1489456241.7161970139,1489456241.7186160088,       -0.2416992188,        0.6772460938,       -0.1464843750,       -0.4577636719,       -0.1525878906,       -0.7476806641
1489456241.7189080715,1489456241.7213249207,       -0.2412109375,        0.6728515625,       -0.1464843750,       -0.4577636719,       -0.1525878906,       -0.7476806641
1489456241.7216060162,1489456241.7240190506,       -0.2412109375,        0.6728515625,       -0.1464843750,       -0.3356933594,       -0.1678466797,       -0.5950927734
1489456241.7242999077,1489456241.7267150879,       -0.2412109375,        0.6728515625,       -0.1464843750,       -0.3356933594,       -0.1678466797,       -0.5950927734
1489456241.7269968987,1489456241.7294518948,       -0.2412109375,        0.6762695312,       -0.1445312500,       -0.4730224609,       -0.3356933594,       -0.5187988281
1489456241.7297339439,1489456241.7321538925,       -0.2338867188,        0.6762695312,       -0.1445312500,       -0.4730224609,       -0.3356933594,       -0.5187988281
1489456241.7324359417,1489456241.7348549366,       -0.2338867188,        0.6762695312,       -0.1445312500,       -0.2746582031,       -0.3051757812,       -0.8239746094
1489456241.7353639603,1489456241.7377738953,       -0.2338867188,        0.6762695312,       -0.1445312500,       -0.2746582031,       -0.3051757812,       -0.8239746094
1489456241.7380549908,1489456241.7405679226,       -0.2319335938,        0.6752929688,       -0.1352539062,       -0.0152587891,       -0.4577636719,       -0.8850097656
1489456241.7408471107,1489456241.7431380749,       -0.2319335938,        0.6752929688,       -0.1352539062,       -0.0152587891,       -0.4577636719,       -0.8850097656
1489456241.7434151173,1489456241.7456998825,       -0.2319335938,        0.6752929688,       -0.1352539062,       -0.0610351562,       -0.7629394531,       -0.4882812500
1489456241.7459740639,1489456241.7482709885,       -0.2319335938,        0.6752929688,       -0.1352539062,       -0.0610351562,       -0.7629394531,       -0.4882812500
1489456241.7485458851,1489456241.7508420944,       -0.2333984375,        0.6762695312,       -0.1391601562,        0.1678466797,       -0.6103515625,       -0.5645751953
1489456241.7511169910,1489456241.7534079552,       -0.2333984375,        0.6762695312,       -0.1391601562,        0.1678466797,       -0.6103515625,       -0.5645751953
1489456241.7536818981,1489456241.7559800148,       -0.2333984375,        0.6762695312,       -0.1391601562,        0.6256103516,       -0.9918212891,       -0.7781982422
1489456241.7563550472,1489456241.7586410046,       -0.2333984375,        0.6762695312,       -0.1391601562,        0.6256103516,       -0.9918212891,       -0.7781982422
1489456241.7589139938,1489456241.7612109184,       -0.2368164062,        0.6743164062,       -0.1381835938,        0.0457763672,       -1.1444091797,       -0.8392333984
1489456241.7614850998,1489456241.7637751102,       -0.2368164062,        0.6743164062,       -0.1381835938,        0.0457763672,       -1.1444091797,       -0.8392333984
1489456241.7640480995,1489456241.7663381100,       -0.2368164062,        0.6743164062,       -0.1381835938,       -0.1068115234,       -0.6866455078,       -0.9765625000
1489456241.7666120529,1489456241.7690210342,       -0.2368164062,        0.6743164062,       -0.1381835938,       -0.1068115234,       -0.6866455078,       -0.9765625000
1489456241.7693130970,1489456241.7716059685,       -0.2397460938,        0.6772460938,       -0.1406250000,        0.1220703125,       -0.7781982422,       -0.7019042969
1489456241.7718830109,1489456241.7741720676,       -0.2397460938,        0.6772460938,       -0.1406250000,        0.1220703125,       -0.7781982422,       -0.7019042969
1489456241.7744500637,1489456241.7767360210,       -0.2397460938,        0.6772460938,       -0.1406250000,       -3.7841796875,       -0.3814697266,       -0.3814697266
1489456241.7770099640,1489456241.7793018818,       -0.2397460938,        0.6772460938,       -0.1508789062,       -0.2593994141,       -0.3814697266,       -0.3814697266
1489456241.7795760632,1489456241.7818720341,       -0.2324218750,        0.6762695312,       -0.1508789062,       -0.2593994141,       -0.3814697266,       -0.3356933594
1489456241.7821459770,1489456241.7844328880,       -0.2324218750,        0.6762695312,       -0.1508789062,       -0.3356933594,       -0.6103515625,       -0.3356933594
1489456241.7847070694,1489456241.7869949341,       -0.2324218750,        0.6762695312,       -0.1508789062,       -0.3356933594,       -0.6103515625,       -0.2593994141
1489456241.7872679234,1489456241.7900969982,       -0.2324218750,        0.6762695312,       -0.1494140625,       -0.3662109375,       -0.4425048828,       -0.2593994141
1489456241.7903740406,1489456241.7933230400,       -0.2333984375,        0.6767578125,       -0.1494140625,        0.0762939453,       -0.5035400391,       -0.3662109375
1489456241.7936019897,1489456241.7958850861,       -0.2333984375,        0.6767578125,       -0.1494140625,        0.0762939453,       -0.5035400391,       -0.3662109375
1489456241.7961590290,1489456241.7984459400,       -0.2333984375,        0.6767578125,       -0.1494140625,       -3.8299560547,       -0.3967285156,       -0.6408691406
1489456241.7987189293,1489456241.8010959625,       -0.2392578125,        0.6757812500,       -0.1333007812,       -0.4730224609,       -0.3967285156,       -0.6408691406
1489456241.8013689518,1489456241.8036539555,       -0.2392578125,        0.6757812500,       -0.1333007812,       -0.4730224609,       -0.3967285156,       -0.4730224609
1489456241.8039269447,1489456241.8062100410,       -0.2392578125,        0.6757812500,       -0.1333007812,       -0.7324218750,       -0.5035400391,       -0.4730224609
1489456241.8064830303,1489456241.8087680340,       -0.2392578125,        0.6757812500,       -0.1333007812,       -0.7324218750,       -0.5035400391,       -0.4272460938
1489456241.8090980053,1489456241.8113861084,       -0.2373046875,        0.6757812500,       -0.1479492188,       -0.6103515625,       -0.3662109375,       -0.4272460938
1489456241.8116590977,1489456241.8139450550,       -0.2373046875,        0.6757812500,       -0.1479492188,       -0.6103515625,       -0.3662109375,       -0.4272460938
1489456241.8142180443,1489456241.8165049553,       -0.2373046875,        0.6757812500,       -0.1479492188,       -0.2441406250,       -0.2593994141,       -0.3662109375
1489456241.8167788982,1489456241.8190720081,       -0.2373046875,        0.6757812500,       -0.1479492188,       -0.2441406250,       -0.2593994141,       -0.3662109375
1489456241.8193459511,1489456241.8216331005,       -0.2324218750,        0.6772460938,       -0.1440429688,       -0.3967285156,       -0.4882812500,       -0.2288818359
1489456241.8220140934,1489456241.8242990971,       -0.2324218750,        0.6772460938,       -0.1440429688,       -0.3967285156,       -0.4882812500,       -0.2288818359
1489456241.8245739937,1489456241.8268599510,       -0.2324218750,        0.6772460938,       -0.1440429688,       -0.4882812500,       -0.6256103516,       -0.3814697266
1489456241.8271360397,1489456241.8294649124,       -0.2324218750,        0.6772460938,       -0.1440429688,       -0.4882812500,       -0.6256103516,       -0.3814697266
1489456241.8297390938,1489456241.8320269585,       -0.2294921875,        0.6777343750,       -0.1484375000,       -0.4272460938,       -0.5187988281,       -0.5798339844
1489456241.8323009014,1489456241.8345880508,       -0.2294921875,        0.6777343750,       -0.1484375000,       -0.4272460938,       -0.5187988281,       -0.5798339844
1489456241.8348610401,1489456241.8371500969,       -0.2294921875,        0.6777343750,       -0.1484375000,       -0.6866455078,       -0.6256103516,       -0.4730224609
1489456241.8374218941,1489456241.8398098946,       -0.2294921875,        0.6777343750,       -0.1440429688,       -0.6866455078,       -0.6256103516,       -0.4730224609
1489456241.8400850296,1489456241.8423759937,       -0.2324218750,        0.6743164062,       -0.1440429688,       -0.8087158203,       -0.5645751953,       -0.2593994141
1489456241.8426499367,1489456241.8449339867,       -0.2324218750,        0.6743164062,       -0.1440429688,       -0.8087158203,       -0.5645751953,       -0.2593994141
1489456241.8452079296,1489456241.8474969864,       -0.2324218750,        0.6743164062,       -0.1440429688,       -0.8087158203,       -0.4425048828,       -0.0762939453
1489456241.8477718830,1489456241.8501551151,       -0.2324218750,        0.6743164062,       -0.1401367188,       -0.8697509766,       -0.4425048828,       -0.0762939453
1489456241.8504309654,1489456241.8527219296,       -0.2348632812,        0.6757812500,       -0.1401367188,       -0.8697509766,       -0.3356933594,        0.1831054688
1489456241.8529970646,1489456241.8552789688,       -0.2348632812,        0.6757812500,       -0.1401367188,       -0.5798339844,       -0.3356933594,        0.1831054688
1489456241.8555541039,1489456241.8578391075,       -0.2348632812,        0.6757812500,       -0.1401367188,       -0.5798339844,       -0.3356933594,       -0.1373291016
1489456241.8581130505,1489456241.8603999615,       -0.2348632812,        0.6826171875,       -0.1416015625,       -0.5187988281,       -0.3662109375,       -0.1373291016
1489456241.8606760502,1489456241.8629629612,       -0.2324218750,        0.6826171875,       -0.1416015625,       -0.5187988281,       -0.3662109375,       -0.1373291016
1489456241.8632380962,1489456241.8655240536,       -0.2324218750,        0.6826171875,       -0.1416015625,       -0.5645751953,       -0.5035400391,       -0.3509521484
1489456241.8657960892,1489456241.8680799007,       -0.2324218750,        0.6826171875,       -0.1416015625,       -0.5645751953,       -0.5035400391,       -0.3509521484
1489456241.8683519363,1489456241.8707609177,       -0.2324218750,        0.6733398438,       -0.1396484375,       -0.1678466797,       -0.9155273438,       -0.5340576172
1489456241.8710350990,1489456241.8733210564,       -0.2368164062,        0.6733398438,       -0.1396484375,       -0.1678466797,       -0.9155273438,       -0.5340576172
1489456241.8735940456,1489456241.8758780956,       -0.2368164062,        0.6733398438,       -0.1396484375,       -0.5493164062,       -1.1596679688,       -0.4577636719
1489456241.8761529922,1489456241.8784420490,       -0.2368164062,        0.6733398438,       -0.1396484375,       -0.5493164062,       -1.1596679688,       -0.4577636719
1489456241.8787150383,1489456241.8810029030,       -0.2338867188,        0.6811523438,       -0.1411132812,       -0.6866455078,       -0.8392333984,       -0.5340576172
1489456241.8812770844,1489456241.8835630417,       -0.2338867188,        0.6811523438,       -0.1411132812,       -0.6866455078,       -0.8392333984,       -0.5340576172
1489456241.8839490414,1489456241.8862318993,       -0.2338867188,        0.6811523438,       -0.1411132812,       -0.5493164062,       -0.7324218750,       -0.4272460938
1489456241.8865079880,1489456241.8888540268,       -0.2338867188,        0.6811523438,       -0.1411132812,       -0.5493164062,       -0.7324218750,       -0.4272460938
1489456241.8891279697,1489456241.8914139271,       -0.2358398438,        0.6699218750,       -0.1357421875,       -0.7781982422,       -0.7324218750,       -0.4425048828
1489456241.8916869164,1489456241.8939690590,       -0.2358398438,        0.6699218750,       -0.1357421875,       -0.7781982422,       -0.7324218750,       -0.4425048828
1489456241.8942439556,1489456241.8965299129,       -0.2358398438,        0.6699218750,       -0.1357421875,       -0.7781982422,       -0.9307861328,       -0.6256103516
1489456241.8968029022,1489456241.8992109299,       -0.2358398438,        0.6699218750,       -0.1357421875,       -0.5340576172,       -0.9307861328,       -0.6256103516
