time_stamp before, time_stamp after, Acceleration x, Acceleration y, Acceleration z, Gyro x, Gyro y, Gyro z
1489455820.0219390392,1489455820.0334329605,       -0.7363281250,        0.2500000000,       -0.0966796875,       13.2446289062,       -1.7089843750,        9.8419189453
1489455820.0337369442,1489455820.0362460613,       -0.7363281250,        0.2500000000,       -0.0966796875,       12.0391845703,       -1.1444091797,        9.8419189453
1489455820.0365331173,1489455820.0388970375,       -0.7363281250,        0.2500000000,       -0.0888671875,        8.1329345703,       -0.8850097656,       10.9863281250
1489455820.0391829014,1489455820.0415790081,       -0.7343750000,        0.2607421875,       -0.0888671875,       11.5051269531,       -0.8850097656,       10.9863281250
1489455820.0418639183,1489455820.0442659855,       -0.7343750000,        0.2607421875,       -0.0888671875,       11.5051269531,       -0.5187988281,       12.1612548828
1489455820.0445520878,1489455820.0469501019,       -0.7343750000,        0.2607421875,       -0.0888671875,       10.8032226562,       -0.5187988281,       12.1612548828
1489455820.0472340584,1489455820.0497729778,       -0.8593750000,        0.2563476562,       -0.0712890625,       10.8032226562,        0.4577636719,       12.9089355469
1489455820.0500600338,1489455820.0524361134,       -0.7622070312,        0.2563476562,       -0.0712890625,        7.7056884766,        0.4577636719,       12.9089355469
1489455820.0527200699,1489455820.0552349091,       -0.7622070312,        0.2563476562,       -0.0712890625,        7.7056884766,        1.6479492188,       13.5650634766
1489455820.0555179119,1489455820.0579218864,       -0.7622070312,        0.2563476562,       -0.0712890625,        3.6315917969,        1.6479492188,       13.5650634766
1489455820.0582048893,1489455820.0606510639,       -0.7753906250,        0.2709960938,       -0.0488281250,        3.6315917969,        2.3956298828,       15.0604248047
1489455820.0609340668,1489455820.0633280277,       -0.7753906250,        0.2709960938,       -0.0488281250,        1.6479492188,        2.3956298828,       15.0604248047
1489455820.0636088848,1489455820.0660068989,       -0.7753906250,        0.2709960938,       -0.0488281250,        1.6479492188,        2.9602050781,       16.9830322266
1489455820.0662879944,1489455820.0686819553,       -0.7753906250,        0.2709960938,       -0.0488281250,        0.0000000000,        2.9602050781,       16.9830322266
1489455820.0689649582,1489455820.0712559223,       -0.7558593750,        0.2807617188,       -0.0366210938,        0.0000000000,        6.8664550781,       19.1192626953
1489455820.0715301037,1489455820.0738539696,       -0.7558593750,        0.2807617188,       -0.0366210938,       -0.8087158203,        4.4555664062,       19.1192626953
1489455820.0741319656,1489455820.0764210224,       -0.7558593750,        0.2807617188,       -0.0366210938,       -0.8087158203,        4.4555664062,       21.3623046875
1489455820.0766990185,1489455820.0791020393,       -0.7558593750,        0.2807617188,       -0.0366210938,       -1.8920898438,        5.0811767578,       21.3623046875
1489455820.0793859959,1489455820.0817720890,       -0.7709960938,        0.2646484375,       -0.0083007812,       -1.8920898438,        5.0811767578,       23.1018066406
1489455820.0820560455,1489455820.0844430923,       -0.7709960938,        0.2646484375,       -0.0083007812,       -3.4027099609,        4.8217773438,       23.1018066406
1489455820.0847270489,1489455820.0871129036,       -0.7709960938,        0.2646484375,       -0.0083007812,       -3.4027099609,        4.8217773438,       27.0080566406
1489455820.0873980522,1489455820.0897989273,       -0.7709960938,        0.2744140625,        0.0175781250,       -3.6468505859,        4.8522949219,       24.9481201172
1489455820.0900790691,1489455820.0923709869,       -0.7817382812,        0.2744140625,        0.0175781250,       -3.6468505859,        4.8522949219,       24.9481201172
1489455820.0926499367,1489455820.0949420929,       -0.7817382812,        0.2744140625,        0.0175781250,       -3.0517578125,        4.5776367188,       27.1301269531
1489455820.0953860283,1489455820.0976819992,       -0.7817382812,        0.2744140625,        0.0175781250,       -3.0517578125,        4.5776367188,       27.1301269531
1489455820.0979599953,1489455820.1003689766,       -0.7802734375,        0.2832031250,        0.0249023438,       -1.9531250000,        4.2266845703,       28.9611816406
1489455820.1006479263,1489455820.1030509472,       -0.7802734375,        0.2832031250,        0.0249023438,       -1.9531250000,        4.2266845703,       28.9611816406
1489455820.1033480167,1489455820.1056509018,       -0.7802734375,        0.2832031250,        0.0249023438,       -0.1678466797,        3.2196044922,       30.5480957031
1489455820.1059300900,1489455820.1082229614,       -0.7802734375,        0.2832031250,        0.0249023438,       -0.1678466797,        3.2196044922,       30.5480957031
1489455820.1085019112,1489455820.1108870506,       -0.7773437500,        0.2861328125,        0.0366210938,        1.6174316406,        2.0599365234,       31.5704345703
1489455820.1111669540,1489455820.1134650707,       -0.7773437500,        0.2861328125,        0.0366210938,        1.6174316406,        2.0599365234,       31.5704345703
1489455820.1137421131,1489455820.1160340309,       -0.7773437500,        0.2861328125,        0.0366210938,        4.0740966797,        1.3885498047,       32.4707031250
1489455820.1163120270,1489455820.1186029911,       -0.7773437500,        0.2861328125,        0.0366210938,        4.0740966797,        1.3885498047,       32.4707031250
1489455820.1189770699,1489455820.1212780476,       -0.7841796875,        0.2768554688,        0.0488281250,        7.0343017578,        0.4119873047,       33.4472656250
1489455820.1215569973,1489455820.1238460541,       -0.7841796875,        0.2768554688,        0.0488281250,        7.0343017578,        0.4119873047,       33.4472656250
1489455820.1242210865,1489455820.1265161037,       -0.7841796875,        0.2768554688,        0.0488281250,        9.6130371094,       -0.7934570312,       33.9660644531
1489455820.1267960072,1489455820.1299040318,       -0.7841796875,        0.2768554688,        0.0488281250,        9.6130371094,       -0.7934570312,       33.9660644531
1489455820.1301939487,1489455820.1326200962,       -0.7983398438,        0.2709960938,        0.0517578125,       11.6882324219,       -1.6174316406,       33.9508056641
1489455820.1329109669,1489455820.1353321075,       -0.7983398438,        0.2709960938,        0.0517578125,       11.6882324219,       -1.6174316406,       33.9508056641
1489455820.1356201172,1489455820.1380400658,       -0.7983398438,        0.2709960938,        0.0517578125,       14.5721435547,       -2.9602050781,       34.5153808594
1489455820.1383280754,1489455820.1407558918,       -0.7836914062,        0.2612304688,        0.0405273438,       14.5721435547,       -2.9602050781,       34.5153808594
1489455820.1410460472,1489455820.1434609890,       -0.7836914062,        0.2612304688,        0.0405273438,       16.8609619141,       -4.5928955078,       34.4390869141
1489455820.1437520981,1489455820.1461679935,       -0.7836914062,        0.2612304688,        0.0405273438,       16.8609619141,       -4.5928955078,       34.4390869141
1489455820.1464591026,1489455820.1488950253,       -0.7836914062,        0.2612304688,        0.0405273438,       18.7377929688,       -6.0729980469,       34.0728759766
1489455820.1491820812,1489455820.1516020298,       -0.7456054688,        0.2416992188,        0.0058593750,       18.7377929688,       -6.0729980469,       34.0728759766
1489455820.1518929005,1489455820.1543059349,       -0.7456054688,        0.2416992188,        0.0058593750,       20.9197998047,       -7.8582763672,       33.3404541016
1489455820.1545960903,1489455820.1570150852,       -0.7456054688,        0.2416992188,        0.0058593750,       20.9197998047,       -7.8582763672,       33.3404541016
1489455820.1573030949,1489455820.1596939564,       -0.7456054688,        0.2416992188,        0.0058593750,       23.8189697266,       -8.9874267578,       30.2429199219
1489455820.1600880623,1489455820.1623818874,       -0.6997070312,        0.1328125000,        0.0000000000,       23.8189697266,       -8.9874267578,       30.2429199219
1489455820.1626629829,1489455820.1649560928,       -0.6997070312,        0.1328125000,        0.0000000000,       26.0925292969,      -10.3302001953,       25.8789062500
1489455820.1652400494,1489455820.1675341129,       -0.6997070312,        0.1328125000,        0.0000000000,       26.0925292969,      -10.3302001953,       25.8789062500
1489455820.1678190231,1489455820.1701569557,       -0.6997070312,        0.1328125000,        0.0068359375,       25.6042480469,      -12.4664306641,       20.9197998047
1489455820.1704430580,1489455820.1727340221,       -0.6713867188,       -0.0180664062,        0.0068359375,       25.6042480469,      -12.4664306641,       20.9197998047
1489455820.1730189323,1489455820.1753089428,       -0.6713867188,       -0.0180664062,        0.0068359375,       23.2238769531,      -14.9688720703,       15.9149169922
1489455820.1755940914,1489455820.1778941154,       -0.6713867188,       -0.0180664062,        0.0068359375,       23.2238769531,      -14.9688720703,       15.9149169922
1489455820.1781799793,1489455820.1804990768,       -0.6713867188,       -0.0341796875,       -0.0029296875,       19.3176269531,      -16.8151855469,       12.3443603516
1489455820.1807858944,1489455820.1830859184,       -0.6533203125,       -0.0341796875,       -0.0029296875,       19.0277099609,      -16.8151855469,       12.3443603516
1489455820.1833701134,1489455820.1856620312,       -0.6533203125,       -0.0341796875,       -0.0029296875,       19.0277099609,      -18.2952880859,        9.5214843750
1489455820.1859428883,1489455820.1882350445,       -0.6533203125,       -0.0341796875,       -0.0029296875,       12.8173828125,      -18.2952880859,        9.5214843750
1489455820.1885159016,1489455820.1910369396,       -0.6533203125,       -0.0092773438,        0.0205078125,       12.8173828125,      -22.2015380859,        6.4086914062
1489455820.1913280487,1489455820.1937301159,       -0.6508789062,       -0.0092773438,        0.0205078125,        5.9967041016,      -20.0653076172,        6.4086914062
1489455820.1940159798,1489455820.1964159012,       -0.6508789062,       -0.0092773438,        0.0205078125,        5.9967041016,      -20.0653076172,        3.1127929688
1489455820.1967010498,1489455820.1991150379,       -0.6508789062,       -0.0092773438,        0.0205078125,        0.3204345703,      -21.7895507812,        3.1127929688
1489455820.1994318962,1489455820.2018499374,       -0.6665039062,       -0.0405273438,        0.0258789062,        0.3204345703,      -25.6958007812,        0.1068115234
1489455820.2021360397,1489455820.2045519352,       -0.6665039062,       -0.0405273438,        0.0258789062,       -4.5928955078,      -23.4985351562,        0.1068115234
1489455820.2048399448,1489455820.2071700096,       -0.6665039062,       -0.0405273438,        0.0258789062,       -4.5928955078,      -23.4985351562,       -2.8533935547
1489455820.2074499130,1489455820.2099869251,       -0.6665039062,       -0.0405273438,        0.0258789062,       -8.5144042969,      -24.5513916016,       -2.8533935547
1489455820.2102720737,1489455820.2126569748,       -0.6840820312,       -0.0234375000,        0.0156250000,       -8.5144042969,      -24.5513916016,       -5.3863525391
1489455820.2129430771,1489455820.2156429291,       -0.6840820312,       -0.0234375000,        0.0156250000,      -11.2152099609,      -25.2532958984,       -5.3863525391
1489455820.2159280777,1489455820.2182199955,       -0.6840820312,       -0.0234375000,        0.0156250000,      -11.2152099609,      -25.2532958984,       -8.3618164062
1489455820.2185020447,1489455820.2208778858,       -0.6840820312,        0.0068359375,       -0.0087890625,      -12.1765136719,      -26.1535644531,       -8.3618164062
1489455820.2211608887,1489455820.2234480381,       -0.6767578125,        0.0068359375,       -0.0087890625,      -12.1765136719,      -26.1535644531,      -11.5966796875
1489455820.2238500118,1489455820.2261369228,       -0.6767578125,        0.0068359375,       -0.0087890625,      -11.0626220703,      -27.2064208984,      -11.5966796875
1489455820.2264230251,1489455820.2287108898,       -0.6767578125,        0.0068359375,       -0.0087890625,      -11.0626220703,      -27.2064208984,      -14.6026611328
1489455820.2290539742,1489455820.2313408852,       -0.6767578125,        0.0200195312,       -0.0288085938,       -8.6212158203,      -27.7099609375,      -14.6026611328
1489455820.2316219807,1489455820.2339079380,       -0.6679687500,        0.0200195312,       -0.0288085938,       -8.6212158203,      -27.7099609375,      -14.6026611328
1489455820.2341890335,1489455820.2364749908,       -0.6679687500,        0.0200195312,       -0.0288085938,       -5.3558349609,      -27.6489257812,      -18.3715820312
1489455820.2367579937,1489455820.2390680313,       -0.6679687500,        0.0200195312,       -0.0288085938,       -5.3558349609,      -27.6489257812,      -18.3715820312
1489455820.2393479347,1489455820.2416388988,       -0.6772460938,        0.0229492188,       -0.0434570312,       -2.0446777344,      -26.9927978516,      -22.3846435547
1489455820.2419190407,1489455820.2442109585,       -0.6772460938,        0.0229492188,       -0.0434570312,       -2.0446777344,      -26.9927978516,      -22.3846435547
1489455820.2444920540,1489455820.2467839718,       -0.6772460938,        0.0229492188,       -0.0434570312,        0.3967285156,      -27.1759033203,      -26.1993408203
1489455820.2470650673,1489455820.2494139671,       -0.6772460938,        0.0229492188,       -0.0434570312,        0.3967285156,      -27.1759033203,      -26.1993408203
1489455820.2496950626,1489455820.2519850731,       -0.6821289062,        0.0380859375,       -0.0634765625,        2.5787353516,      -27.6336669922,      -30.0903320312
1489455820.2522668839,1489455820.2545580864,       -0.6821289062,        0.0380859375,       -0.0634765625,        2.5787353516,      -27.6336669922,      -30.0903320312
1489455820.2548410892,1489455820.2571299076,       -0.6821289062,        0.0380859375,       -0.0634765625,        5.5541992188,      -27.4047851562,      -33.8745117188
1489455820.2574119568,1489455820.2597529888,       -0.6821289062,        0.0380859375,       -0.0634765625,        5.5541992188,      -27.4047851562,      -33.8745117188
1489455820.2600350380,1489455820.2623260021,       -0.6835937500,        0.0234375000,       -0.0703125000,        7.7209472656,      -26.9927978516,      -36.9720458984
1489455820.2626080513,1489455820.2648980618,       -0.6835937500,        0.0234375000,       -0.0703125000,        7.7209472656,      -26.9927978516,      -36.9720458984
1489455820.2651801109,1489455820.2674660683,       -0.6835937500,        0.0234375000,       -0.0703125000,       11.6271972656,      -26.8249511719,      -40.6036376953
1489455820.2677500248,1489455820.2701790333,       -0.6835937500,        0.0234375000,       -0.0703125000,        9.0332031250,      -26.8249511719,      -40.6036376953
1489455820.2704629898,1489455820.2727489471,       -0.6904296875,        0.0141601562,       -0.0795898438,        9.0332031250,      -26.7181396484,      -44.3267822266
1489455820.2730309963,1489455820.2753190994,       -0.6904296875,        0.0141601562,       -0.0795898438,        9.8571777344,      -26.7181396484,      -44.3267822266
1489455820.2756009102,1489455820.2778909206,       -0.6904296875,        0.0141601562,       -0.0795898438,        9.8571777344,      -26.7181396484,      -47.9431152344
1489455820.2781720161,1489455820.2805590630,       -0.6904296875,        0.0141601562,       -0.0795898438,       10.8489990234,      -26.7028808594,      -47.9431152344
1489455820.2808520794,1489455820.2832679749,       -0.6943359375,        0.0131835938,       -0.0927734375,       10.8489990234,      -26.7028808594,      -51.3610839844
1489455820.2835600376,1489455820.2859768867,       -0.6943359375,        0.0131835938,       -0.0927734375,       11.3067626953,      -27.0690917969,      -51.3610839844
1489455820.2863779068,1489455820.2888400555,       -0.6943359375,        0.0131835938,       -0.0927734375,       11.3067626953,      -27.0690917969,      -54.7943115234
1489455820.2891330719,1489455820.2915511131,       -0.6943359375,        0.0131835938,       -0.1040039062,       11.5051269531,      -26.9927978516,      -54.7943115234
1489455820.2918438911,1489455820.2942581177,       -0.6977539062,        0.0097656250,       -0.1040039062,       11.5051269531,      -26.9927978516,      -58.1817626953
1489455820.2945520878,1489455820.2969670296,       -0.6977539062,        0.0097656250,       -0.1040039062,       11.9781494141,      -26.6571044922,      -58.1817626953
1489455820.2972600460,1489455820.2996890545,       -0.6977539062,        0.0097656250,       -0.1040039062,       11.9781494141,      -26.6571044922,      -61.3098144531
1489455820.2999830246,1489455820.3024010658,       -0.7133789062,        0.0205078125,       -0.1049804688,       11.0015869141,      -26.4129638672,      -61.3098144531
1489455820.3026959896,1489455820.3051140308,       -0.7133789062,        0.0205078125,       -0.1049804688,       11.0015869141,      -26.4129638672,      -64.1784667969
1489455820.3054070473,1489455820.3079431057,       -0.7133789062,        0.0205078125,       -0.1049804688,       10.2233886719,      -26.6723632812,      -64.1784667969
1489455820.3082320690,1489455820.3107581139,       -0.7133789062,        0.0205078125,       -0.1049804688,       10.2233886719,      -26.6723632812,      -67.1234130859
1489455820.3110499382,1489455820.3134338856,       -0.7324218750,        0.0439453125,       -0.1137695312,        9.7961425781,      -26.3519287109,      -67.1234130859
1489455820.3137230873,1489455820.3163208961,       -0.7324218750,        0.0439453125,       -0.1137695312,        9.7961425781,      -26.1535644531,      -69.3511962891
1489455820.3166069984,1489455820.3190000057,       -0.7324218750,        0.0439453125,       -0.1137695312,        9.1857910156,      -26.1535644531,      -69.3511962891
1489455820.3193020821,1489455820.3215980530,       -0.7324218750,        0.0439453125,       -0.1108398438,        9.1857910156,      -26.1535644531,      -72.0367431641
1489455820.3218820095,1489455820.3241789341,       -0.7524414062,        0.0512695312,       -0.1108398438,        8.4228515625,      -26.1535644531,      -72.0367431641
1489455820.3244609833,1489455820.3267540932,       -0.7524414062,        0.0512695312,       -0.1108398438,        8.4228515625,      -26.1535644531,      -74.7680664062
1489455820.3270359039,1489455820.3293330669,       -0.7524414062,        0.0512695312,       -0.1108398438,        7.3242187500,      -25.9552001953,      -74.7680664062
1489455820.3296151161,1489455820.3319129944,       -0.7524414062,        0.0405273438,       -0.1079101562,        7.3242187500,      -25.9552001953,      -74.7680664062
1489455820.3321959972,1489455820.3344819546,       -0.7636718750,        0.0405273438,       -0.1079101562,        5.2490234375,      -25.8941650391,      -77.3773193359
1489455820.3347649574,1489455820.3370590210,       -0.7636718750,        0.0405273438,       -0.1079101562,        5.2490234375,      -25.8941650391,      -77.3773193359
1489455820.3373410702,1489455820.3396389484,       -0.7636718750,        0.0405273438,       -0.1079101562,        4.2724609375,      -25.4058837891,      -79.3609619141
1489455820.3399219513,1489455820.3422100544,       -0.7636718750,        0.0488281250,       -0.1162109375,        4.2724609375,      -25.4058837891,      -79.3609619141
1489455820.3424930573,1489455820.3447918892,       -0.7817382812,        0.0488281250,       -0.1162109375,        3.0059814453,      -25.1617431641,      -81.0699462891
1489455820.3450748920,1489455820.3473629951,       -0.7817382812,        0.0488281250,       -0.1162109375,        3.0059814453,      -25.1617431641,      -81.0699462891
1489455820.3476459980,1489455820.3499989510,       -0.7817382812,        0.0488281250,       -0.1162109375,        0.3356933594,      -24.5208740234,      -82.9467773438
1489455820.3503959179,1489455820.3526899815,       -0.7973632812,        0.0585937500,       -0.1152343750,        0.3356933594,      -24.5208740234,      -82.9467773438
1489455820.3529720306,1489455820.3552629948,       -0.7973632812,        0.0585937500,       -0.1152343750,       -1.8310546875,      -23.7579345703,      -84.3353271484
1489455820.3555459976,1489455820.3578391075,       -0.7973632812,        0.0585937500,       -0.1152343750,       -1.8310546875,      -23.7579345703,      -84.3353271484
1489455820.3581209183,1489455820.3605189323,       -0.7973632812,        0.0585937500,       -0.1152343750,       -3.9215087891,      -23.2086181641,      -85.4949951172
1489455820.3608050346,1489455820.3630890846,       -0.8144531250,        0.0786132812,       -0.1215820312,       -3.9215087891,      -23.2086181641,      -85.4949951172
1489455820.3633720875,1489455820.3656671047,       -0.8144531250,        0.0786132812,       -0.1215820312,       -6.0272216797,      -23.5443115234,      -87.1429443359
1489455820.3659489155,1489455820.3682351112,       -0.8144531250,        0.0786132812,       -0.1215820312,       -6.0272216797,      -23.5443115234,      -87.1429443359
1489455820.3685159683,1489455820.3709449768,       -0.8144531250,        0.0786132812,       -0.1215820312,       -9.9334716797,      -22.9492187500,      -88.4094238281
1489455820.3712289333,1489455820.3735239506,       -0.8120117188,        0.0815429688,       -0.1137695312,       -8.6517333984,      -22.9492187500,      -88.4094238281
1489455820.3738079071,1489455820.3760941029,       -0.8120117188,        0.0815429688,       -0.1137695312,       -8.6517333984,      -22.9492187500,      -88.7756347656
1489455820.3763759136,1489455820.3786649704,       -0.8120117188,        0.0815429688,       -0.1137695312,      -11.9018554688,      -21.9726562500,      -88.7756347656
1489455820.3789560795,1489455820.3813769817,       -0.8120117188,        0.0815429688,       -0.1137695312,      -11.9018554688,      -21.9726562500,      -89.1876220703
1489455820.3816680908,1489455820.3840870857,       -0.8178710938,        0.0981445312,       -0.1293945312,      -15.8386230469,      -21.1334228516,      -89.1876220703
1489455820.3843820095,1489455820.3868000507,       -0.8178710938,        0.0981445312,       -0.1293945312,      -15.8386230469,      -21.1334228516,      -89.7521972656
1489455820.3870930672,1489455820.3895208836,       -0.8178710938,        0.0981445312,       -0.1293945312,      -18.6614990234,      -19.9432373047,      -89.7521972656
1489455820.3898139000,1489455820.3922269344,       -0.8178710938,        0.0981445312,       -0.1171875000,      -18.6614990234,      -19.9432373047,      -90.4998779297
1489455820.3925209045,1489455820.3949420452,       -0.8076171875,        0.1289062500,       -0.1171875000,      -20.3552246094,      -19.2413330078,      -90.4998779297
1489455820.3952341080,1489455820.3976531029,       -0.8076171875,        0.1289062500,       -0.1171875000,      -20.3552246094,      -19.2413330078,      -91.1254882812
1489455820.3979480267,1489455820.4003739357,       -0.8076171875,        0.1289062500,       -0.1171875000,      -21.3165283203,      -18.2342529297,      -91.1254882812
1489455820.4006650448,1489455820.4030799866,       -0.8076171875,        0.1054687500,       -0.1166992188,      -21.3165283203,      -18.2342529297,      -91.6137695312
1489455820.4033720493,1489455820.4057850838,       -0.8051757812,        0.1054687500,       -0.1166992188,      -23.0865478516,      -17.7001953125,      -91.6137695312
1489455820.4060781002,1489455820.4084970951,       -0.8051757812,        0.1054687500,       -0.1166992188,      -23.0865478516,      -17.7001953125,      -92.4682617188
1489455820.4088459015,1489455820.4113910198,       -0.8051757812,        0.1054687500,       -0.1166992188,      -25.9857177734,      -16.7236328125,      -92.4682617188
1489455820.4116840363,1489455820.4141020775,       -0.7973632812,        0.0820312500,       -0.1250000000,      -25.9857177734,      -12.8173828125,      -93.1243896484
1489455820.4144949913,1489455820.4169158936,       -0.7973632812,        0.0820312500,       -0.1250000000,      -28.6865234375,      -15.6097412109,      -93.1243896484
1489455820.4172089100,1489455820.4196410179,       -0.7973632812,        0.0820312500,       -0.1250000000,      -28.6865234375,      -15.6097412109,      -93.5974121094
1489455820.4199340343,1489455820.4223499298,       -0.7973632812,        0.0820312500,       -0.1235351562,      -30.8227539062,      -14.1296386719,      -93.5974121094
1489455820.4226419926,1489455820.4251439571,       -0.8012695312,        0.0795898438,       -0.1235351562,      -30.8227539062,      -14.1296386719,      -94.6655273438
1489455820.4254279137,1489455820.4278390408,       -0.8012695312,        0.0795898438,       -0.1235351562,      -32.4401855469,      -13.2141113281,      -94.6655273438
1489455820.4281320572,1489455820.4313371181,       -0.8012695312,        0.0795898438,       -0.1235351562,      -34.5764160156,      -12.5427246094,      -95.8709716797
1489455820.4316248894,1489455820.4339110851,       -0.8051757812,        0.0917968750,       -0.1206054688,      -34.5764160156,      -12.5427246094,      -95.8709716797
1489455820.4341979027,1489455820.4364879131,       -0.8051757812,        0.0917968750,       -0.1206054688,      -35.4156494141,      -11.4288330078,      -96.7102050781
1489455820.4367740154,1489455820.4390969276,       -0.8051757812,        0.0917968750,       -0.1206054688,      -35.4156494141,      -11.4288330078,      -96.7102050781
1489455820.4393839836,1489455820.4416670799,       -0.8051757812,        0.0917968750,       -0.1206054688,      -35.4156494141,      -10.4064941406,      -97.5952148438
1489455820.4419519901,1489455820.4442460537,       -0.8071289062,        0.1015625000,       -0.1176757812,      -36.0107421875,      -10.4064941406,      -97.5952148438
1489455820.4445309639,1489455820.4468200207,       -0.8071289062,        0.1015625000,       -0.1176757812,      -36.0107421875,      -10.4064941406,      -98.2818603516
1489455820.4471049309,1489455820.4494409561,       -0.8071289062,        0.1015625000,       -0.1176757812,      -36.6210937500,       -9.6740722656,      -98.2818603516
1489455820.4497249126,1489455820.4520089626,       -0.8071289062,        0.1015625000,       -0.1176757812,      -36.6210937500,       -9.6740722656,      -99.3194580078
1489455820.4522919655,1489455820.4545829296,       -0.8222656250,        0.1049804688,       -0.0981445312,      -37.7044677734,       -8.2855224609,      -99.3194580078
1489455820.4548659325,1489455820.4571580887,       -0.8222656250,        0.1049804688,       -0.0981445312,      -37.7044677734,       -8.2855224609,      -99.3194580078
1489455820.4574398994,1489455820.4597790241,       -0.8222656250,        0.1049804688,       -0.0981445312,      -39.6270751953,       -7.0648193359,      -99.8077392578
1489455820.4600610733,1489455820.4623470306,       -0.8222656250,        0.1049804688,       -0.0981445312,      -39.6270751953,       -7.0648193359,      -99.8077392578
1489455820.4626278877,1489455820.4649229050,       -0.8261718750,        0.1079101562,       -0.0947265625,      -41.8090820312,       -5.7830810547,     -100.3417968750
1489455820.4652059078,1489455820.4674930573,       -0.8261718750,        0.1079101562,       -0.0947265625,      -41.8090820312,       -5.7830810547,     -100.3417968750
1489455820.4677751064,1489455820.4700820446,       -0.8261718750,        0.1079101562,       -0.0947265625,      -43.5028076172,       -4.3029785156,     -100.5401611328
1489455820.4703640938,1489455820.4726490974,       -0.8261718750,        0.1079101562,       -0.0947265625,      -43.5028076172,       -4.3029785156,     -100.5401611328
1489455820.4729299545,1489455820.4752180576,       -0.8217773438,        0.1318359375,       -0.0869140625,      -45.9747314453,       -2.7618408203,      -99.7772216797
1489455820.4755020142,1489455820.4777948856,       -0.8217773438,        0.1318359375,       -0.0869140625,      -45.9747314453,       -2.7618408203,      -99.7772216797
1489455820.4780778885,1489455820.4805259705,       -0.8217773438,        0.1318359375,       -0.0869140625,      -48.6907958984,       -0.9765625000,      -98.7548828125
1489455820.4809169769,1489455820.4832139015,       -0.8217773438,        0.1318359375,       -0.0786132812,      -48.6907958984,       -0.9765625000,      -98.7548828125
1489455820.4834959507,1489455820.4857978821,       -0.8139648438,        0.1577148438,       -0.0786132812,      -49.6826171875,       -0.3662109375,      -97.8546142578
1489455820.4860808849,1489455820.4883759022,       -0.8139648438,        0.1577148438,       -0.0786132812,      -49.6826171875,       -0.3662109375,      -97.8546142578
1489455820.4886579514,1489455820.4911921024,       -0.8139648438,        0.1577148438,       -0.0786132812,      -49.5605468750,        0.5340576172,      -97.0611572266
1489455820.4914820194,1489455820.4938941002,       -0.8139648438,        0.1635742188,       -0.0688476562,      -49.5605468750,        0.5340576172,      -97.0611572266
1489455820.4941830635,1489455820.4965999126,       -0.8115234375,        0.1635742188,       -0.0688476562,      -49.1333007812,        1.5869140625,      -96.6949462891
1489455820.4968900681,1489455820.4993259907,       -0.8115234375,        0.1635742188,       -0.0688476562,      -49.1333007812,        1.5869140625,      -96.6949462891
1489455820.4996159077,1489455820.5020339489,       -0.8115234375,        0.1635742188,       -0.0688476562,      -49.1027832031,        2.3345947266,      -96.5423583984
1489455820.5023250580,1489455820.5047419071,       -0.8090820312,        0.1586914062,       -0.0600585938,      -49.1027832031,        2.3345947266,      -96.5423583984
1489455820.5050330162,1489455820.5074510574,       -0.8090820312,        0.1586914062,       -0.0600585938,      -48.4466552734,        3.2348632812,      -95.7946777344
1489455820.5077409744,1489455820.5100929737,       -0.8090820312,        0.1586914062,       -0.0600585938,      -48.4466552734,        3.2348632812,      -95.7946777344
1489455820.5103759766,1489455820.5126709938,       -0.8090820312,        0.1586914062,       -0.0600585938,      -47.8668212891,        3.4942626953,      -94.9249267578
1489455820.5129530430,1489455820.5152480602,       -0.8037109375,        0.1435546875,       -0.0556640625,      -47.8668212891,        3.4942626953,      -94.9249267578
1489455820.5155301094,1489455820.5178229809,       -0.8037109375,        0.1435546875,       -0.0556640625,      -43.9605712891,        4.4250488281,      -94.1925048828
1489455820.5181050301,1489455820.5205109119,       -0.8037109375,        0.1435546875,       -0.0556640625,      -46.7987060547,        4.4250488281,      -94.1925048828
1489455820.5207989216,1489455820.5232110023,       -0.8037109375,        0.1435546875,       -0.0556640625,      -46.7987060547,        5.2642822266,      -93.2769775391
1489455820.5235021114,1489455820.5259139538,       -0.7998046875,        0.1455078125,       -0.0532226562,      -45.6695556641,        5.2642822266,      -93.2769775391
1489455820.5262029171,1489455820.5286240578,       -0.7998046875,        0.1455078125,       -0.0532226562,      -45.6695556641,        5.8593750000,      -92.3614501953
1489455820.5289199352,1489455820.5313370228,       -0.7998046875,        0.1455078125,       -0.0532226562,      -44.4793701172,        5.8593750000,      -92.3614501953
1489455820.5316269398,1489455820.5340490341,       -0.7998046875,        0.1450195312,       -0.0566406250,      -44.4793701172,        6.4544677734,      -91.3848876953
1489455820.5343379974,1489455820.5367529392,       -0.8012695312,        0.1450195312,       -0.0566406250,      -42.8009033203,        6.4544677734,      -91.3848876953
1489455820.5370440483,1489455820.5394740105,       -0.8012695312,        0.1450195312,       -0.0566406250,      -42.8009033203,        6.4544677734,      -90.5761718750
1489455820.5397639275,1489455820.5421850681,       -0.8012695312,        0.1450195312,       -0.0566406250,      -40.6646728516,        7.4615478516,      -90.5761718750
1489455820.5424740314,1489455820.5449008942,       -0.8032226562,        0.1425781250,       -0.0332031250,      -40.6646728516,       11.3677978516,      -89.4012451172
1489455820.5453169346,1489455820.5477430820,       -0.8032226562,        0.1425781250,       -0.0332031250,      -38.7268066406,        7.8125000000,      -89.4012451172
1489455820.5480360985,1489455820.5508639812,       -0.8032226562,        0.1425781250,       -0.0332031250,      -36.1328125000,        8.1176757812,      -87.8753662109
1489455820.5511579514,1489455820.5535809994,       -0.8032226562,        0.1425781250,       -0.0332031250,      -36.1328125000,        8.1176757812,      -87.8753662109
1489455820.5538721085,1489455820.5562889576,       -0.7978515625,        0.1572265625,       -0.0336914062,      -33.4014892578,        8.5296630859,      -86.3952636719
1489455820.5565779209,1489455820.5590319633,       -0.7978515625,        0.1572265625,       -0.0336914062,      -33.4014892578,        8.5296630859,      -86.3952636719
1489455820.5593149662,1489455820.5616099834,       -0.7978515625,        0.1572265625,       -0.0336914062,      -31.7382812500,        8.6517333984,      -84.5794677734
1489455820.5618910789,1489455820.5641849041,       -0.7978515625,        0.1562500000,       -0.0205078125,      -31.7382812500,        8.6517333984,      -84.5794677734
1489455820.5644679070,1489455820.5667569637,       -0.7875976562,        0.1562500000,       -0.0205078125,      -31.7382812500,        8.6517333984,      -83.1909179688
1489455820.5670399666,1489455820.5693709850,       -0.7875976562,        0.1562500000,       -0.0205078125,      -30.7769775391,        8.6517333984,      -83.1909179688
1489455820.5696609020,1489455820.5720779896,       -0.7875976562,        0.1562500000,       -0.0205078125,      -30.7769775391,        8.6517333984,      -80.8715820312
1489455820.5723690987,1489455820.5747809410,       -0.7773437500,        0.1772460938,       -0.0151367188,      -30.1513671875,        9.2163085938,      -80.8715820312
1489455820.5750710964,1489455820.5774939060,       -0.7773437500,        0.1772460938,       -0.0151367188,      -30.1513671875,        9.2163085938,      -78.0029296875
1489455820.5777850151,1489455820.5801730156,       -0.7773437500,        0.1772460938,       -0.0151367188,      -28.0303955078,        9.2315673828,      -78.0029296875
1489455820.5804560184,1489455820.5827479362,       -0.7773437500,        0.1772460938,       -0.0151367188,      -28.0303955078,        9.2315673828,      -74.8138427734
1489455820.5830318928,1489455820.5853300095,       -0.7670898438,        0.1992187500,       -0.0126953125,      -26.3214111328,        9.1400146484,      -74.8138427734
1489455820.5856130123,1489455820.5879049301,       -0.7670898438,        0.1992187500,       -0.0126953125,      -26.3214111328,        9.1400146484,      -70.9075927734
1489455820.5881869793,1489455820.5904889107,       -0.7670898438,        0.1992187500,       -0.0126953125,      -24.7192382812,        9.5825195312,      -72.0672607422
1489455820.5907719135,1489455820.5930619240,       -0.7670898438,        0.1992187500,       -0.0126953125,      -24.7192382812,        9.5825195312,      -72.0672607422
1489455820.5933449268,1489455820.5956370831,       -0.7500000000,        0.2026367188,       -0.0126953125,      -23.4832763672,        9.5672607422,      -68.7866210938
1489455820.5959188938,1489455820.5982139111,       -0.7500000000,        0.2026367188,       -0.0126953125,      -23.4832763672,        9.5672607422,      -68.7866210938
1489455820.5984959602,1489455820.6008729935,       -0.7500000000,        0.2026367188,       -0.0126953125,      -22.7813720703,        9.2926025391,      -65.7806396484
1489455820.6011579037,1489455820.6034460068,       -0.7500000000,        0.2026367188,       -0.0126953125,      -22.7813720703,        9.2926025391,      -65.7806396484
1489455820.6037299633,1489455820.6060240269,       -0.7329101562,        0.1889648438,       -0.0024414062,      -21.5911865234,        8.9263916016,      -62.5610351562
1489455820.6063060760,1489455820.6085970402,       -0.7329101562,        0.1889648438,       -0.0024414062,      -21.5911865234,        8.9263916016,      -62.5610351562
1489455820.6091609001,1489455820.6114590168,       -0.7329101562,        0.1889648438,       -0.0024414062,      -20.2789306641,        9.0026855469,      -59.4177246094
1489455820.6117439270,1489455820.6140370369,       -0.7329101562,        0.1889648438,        0.1225585938,      -20.2789306641,        9.0026855469,      -59.4177246094
1489455820.6143178940,1489455820.6166090965,       -0.7329101562,        0.1967773438,        0.0185546875,      -18.5241699219,        8.2092285156,      -56.3049316406
1489455820.6168909073,1489455820.6192550659,       -0.7329101562,        0.1967773438,        0.0185546875,      -18.5241699219,        8.2092285156,      -56.3049316406
1489455820.6195459366,1489455820.6219630241,       -0.7329101562,        0.1967773438,        0.0185546875,      -16.6168212891,        7.8582763672,      -53.4973144531
1489455820.6222519875,1489455820.6246700287,       -0.7329101562,        0.1967773438,        0.0234375000,      -16.6168212891,        7.8582763672,      -53.4973144531
1489455820.6249589920,1489455820.6273798943,       -0.7441406250,        0.1879882812,        0.0234375000,      -14.8620605469,        6.9274902344,      -50.7202148438
1489455820.6276690960,1489455820.6301000118,       -0.7441406250,        0.1879882812,        0.0234375000,      -14.8620605469,        6.9274902344,      -50.7202148438
1489455820.6303899288,1489455820.6328029633,       -0.7441406250,        0.1879882812,        0.0234375000,      -13.3056640625,        5.7678222656,      -47.4700927734
1489455820.6330931187,1489455820.6355080605,       -0.7358398438,        0.1811523438,        0.0112304688,      -13.3056640625,        5.7678222656,      -47.4700927734
1489455820.6357960701,1489455820.6382129192,       -0.7358398438,        0.1811523438,        0.0112304688,      -12.2222900391,        5.0506591797,      -43.9605712891
1489455820.6385009289,1489455820.6408329010,       -0.7358398438,        0.1811523438,        0.0112304688,      -12.2222900391,        5.0506591797,      -43.9605712891
1489455820.6411139965,1489455820.6434059143,       -0.7358398438,        0.1811523438,        0.0112304688,      -10.8184814453,        4.5623779297,      -40.7257080078
1489455820.6436870098,1489455820.6459779739,       -0.7133789062,        0.1694335938,        0.0146484375,      -10.8184814453,        4.5623779297,      -40.7257080078
1489455820.6462609768,1489455820.6485550404,       -0.7133789062,        0.1694335938,        0.0146484375,      -10.8184814453,        3.9062500000,      -37.3992919922
1489455820.6488740444,1489455820.6512858868,       -0.7133789062,        0.1694335938,        0.0146484375,       -9.7045898438,        3.9062500000,      -37.3992919922
1489455820.6515729427,1489455820.6539978981,       -0.7133789062,        0.1694335938,        0.0146484375,       -9.7045898438,        2.9907226562,      -34.3017578125
1489455820.6542849541,1489455820.6566979885,       -0.7050781250,        0.1718750000,        0.0229492188,       -9.0637207031,        2.9907226562,      -34.3017578125
1489455820.6569828987,1489455820.6593999863,       -0.7050781250,        0.1718750000,        0.0229492188,       -9.0637207031,        2.5634765625,      -30.5938720703
1489455820.6596779823,1489455820.6619729996,       -0.7050781250,        0.1718750000,        0.0229492188,       -8.0718994141,        2.5634765625,      -30.5938720703
1489455820.6622500420,1489455820.6645429134,       -0.7050781250,        0.1718750000,        0.0229492188,       -8.0718994141,        2.5634765625,      -27.1911621094
1489455820.6648669243,1489455820.6673030853,       -0.7011718750,        0.1801757812,        0.0200195312,       -6.7138671875,        2.1362304688,      -27.1911621094
1489455820.6675839424,1489455820.6702780724,       -0.7011718750,        0.1801757812,        0.0200195312,       -6.7138671875,        2.1514892578,      -22.9949951172
1489455820.6705660820,1489455820.6729838848,       -0.7011718750,        0.1801757812,        0.0200195312,       -5.4779052734,        2.1514892578,      -22.9949951172
1489455820.6733810902,1489455820.6758069992,       -0.6801757812,        0.2109375000,        0.0156250000,       -1.5716552734,        2.1057128906,      -18.2952880859
1489455820.6760919094,1489455820.6785089970,       -0.6801757812,        0.2109375000,        0.0156250000,       -3.7689208984,        2.1057128906,      -18.2952880859
1489455820.6788370609,1489455820.6812629700,       -0.6801757812,        0.2109375000,        0.0156250000,       -3.7689208984,        1.8310546875,      -13.7481689453
1489455820.6815490723,1489455820.6839659214,       -0.6801757812,        0.2109375000,        0.0156250000,       -2.3956298828,        1.8310546875,      -13.7481689453
1489455820.6842510700,1489455820.6866650581,       -0.6806640625,        0.2192382812,        0.0141601562,       -2.3956298828,        1.8463134766,      -10.2844238281
1489455820.6869499683,1489455820.6893699169,       -0.6806640625,        0.2192382812,        0.0141601562,       -1.0528564453,        1.8463134766,      -10.2844238281
1489455820.6896550655,1489455820.6920731068,       -0.6806640625,        0.2192382812,        0.0141601562,        2.8533935547,        1.0681152344,       -6.0729980469
1489455820.6923570633,1489455820.6947689056,       -0.6806640625,        0.2192382812,        0.0141601562,        0.1220703125,        1.0681152344,       -6.0729980469
1489455820.6950500011,1489455820.6974720955,       -0.6787109375,        0.2187500000,        0.0244140625,        0.1220703125,        0.2288818359,       -2.1514892578
1489455820.6977529526,1489455820.7001008987,       -0.6787109375,        0.2187500000,        0.0244140625,        1.3275146484,        0.2288818359,       -2.1514892578
1489455820.7003750801,1489455820.7026729584,       -0.6787109375,        0.2187500000,        0.0244140625,        1.3275146484,       -3.6773681641,        0.7781982422
1489455820.7029459476,1489455820.7052431107,       -0.6787109375,        0.2187500000,        0.0322265625,        3.0212402344,       -0.2899169922,        0.7781982422
1489455820.7055180073,1489455820.7078089714,       -0.6806640625,        0.2187500000,        0.0322265625,        3.0212402344,       -0.2899169922,        3.2958984375
1489455820.7080819607,1489455820.7104079723,       -0.6806640625,        0.2187500000,        0.0322265625,        5.5694580078,       -0.6866455078,        3.2958984375
1489455820.7106819153,1489455820.7129731178,       -0.6806640625,        0.2187500000,        0.0322265625,        5.5694580078,       -0.6866455078,        7.2021484375
1489455820.7132470608,1489455820.7155399323,       -0.6806640625,        0.2065429688,        0.0356445312,        7.7362060547,       -1.3580322266,        6.0424804688
1489455820.7158129215,1489455820.7181088924,       -0.6943359375,        0.2065429688,        0.0356445312,        7.7362060547,       -1.3580322266,        6.0424804688
1489455820.7183830738,1489455820.7207200527,       -0.6943359375,        0.2065429688,        0.0356445312,        8.8958740234,       -1.5411376953,        8.7432861328
1489455820.7209959030,1489455820.7232909203,       -0.6943359375,        0.2065429688,        0.0356445312,        8.8958740234,       -1.5411376953,        8.7432861328
1489455820.7235651016,1489455820.7258570194,       -0.6943359375,        0.1860351562,        0.0375976562,        9.8114013672,       -1.3427734375,       11.1846923828
1489455820.7261340618,1489455820.7284240723,       -0.6909179688,        0.1860351562,        0.0375976562,        9.8114013672,       -1.3427734375,       11.1846923828
1489455820.7287011147,1489455820.7312059402,       -0.6909179688,        0.1860351562,        0.0375976562,       10.1776123047,       -1.0681152344,       13.8397216797
1489455820.7314960957,1489455820.7339129448,       -0.6909179688,        0.1860351562,        0.0375976562,       10.1776123047,       -1.0681152344,       13.8397216797
1489455820.7342019081,1489455820.7366120815,       -0.6894531250,        0.1787109375,        0.0356445312,       10.8184814453,       -0.9918212891,       16.5863037109
1489455820.7370109558,1489455820.7394421101,       -0.6894531250,        0.1787109375,        0.0356445312,       10.8184814453,       -0.9918212891,       16.5863037109
1489455820.7397310734,1489455820.7421429157,       -0.6894531250,        0.1787109375,        0.0356445312,       10.9252929688,       -0.9613037109,       20.1110839844
1489455820.7424309254,1489455820.7448480129,       -0.6894531250,        0.1787109375,        0.0356445312,       10.9252929688,       -0.9613037109,       20.1110839844
1489455820.7451369762,1489455820.7475509644,       -0.6796875000,        0.1713867188,        0.0400390625,       10.4980468750,       -1.0528564453,       23.1170654297
1489455820.7478430271,1489455820.7502660751,       -0.6796875000,        0.1713867188,        0.0400390625,       10.4980468750,       -1.0528564453,       23.1170654297
1489455820.7505550385,1489455820.7529699802,       -0.6796875000,        0.1713867188,        0.0400390625,        9.4146728516,       -1.3732910156,       26.2756347656
1489455820.7532539368,1489455820.7556669712,       -0.6796875000,        0.1713867188,        0.0615234375,        9.4146728516,       -1.3732910156,       26.2756347656
1489455820.7559518814,1489455820.7583649158,       -0.6840820312,        0.1508789062,        0.0615234375,        7.9193115234,       -2.1362304688,       30.0598144531
1489455820.7586510181,1489455820.7609670162,       -0.6840820312,        0.1508789062,        0.0615234375,        7.9193115234,       -2.1362304688,       30.0598144531
1489455820.7612469196,1489455820.7635309696,       -0.6840820312,        0.1508789062,        0.0615234375,        6.8511962891,       -2.5024414062,       30.5175781250
1489455820.7638080120,1489455820.7661039829,       -0.6840820312,        0.1503906250,        0.0107421875,        6.8511962891,       -2.5024414062,       30.5175781250
1489455820.7663819790,1489455820.7686750889,       -0.7397460938,        0.1503906250,        0.0107421875,        2.6702880859,       -1.8463134766,       34.6069335938
1489455820.7689599991,1489455820.7713770866,       -0.7397460938,        0.1503906250,        0.0107421875,        2.6702880859,       -1.8463134766,       34.6069335938
1489455820.7716639042,1489455820.7740828991,       -0.7397460938,        0.1503906250,        0.0107421875,       -2.4108886719,       -2.0751953125,       41.0156250000
1489455820.7743690014,1489455820.7767889500,       -0.6894531250,        0.2099609375,       -0.0039062500,       -2.4108886719,       -2.0751953125,       41.0156250000
1489455820.7770769596,1489455820.7795031071,       -0.6894531250,        0.2099609375,       -0.0039062500,       -6.8054199219,       -2.8686523438,       44.7998046875
1489455820.7797899246,1489455820.7822120190,       -0.6894531250,        0.2099609375,       -0.0039062500,       -6.8054199219,       -2.8686523438,       44.7998046875
1489455820.7824969292,1489455820.7849330902,       -0.6894531250,        0.2099609375,       -0.0039062500,      -14.1906738281,       -3.5705566406,       46.1883544922
1489455820.7852931023,1489455820.7877080441,       -0.7241210938,        0.0917968750,        0.0727539062,      -14.1906738281,       -3.5705566406,       46.1883544922
1489455820.7880001068,1489455820.7908470631,       -0.7241210938,        0.0917968750,        0.0727539062,      -17.8985595703,       -3.3111572266,       46.0510253906
1489455820.7911388874,1489455820.7935569286,       -0.7241210938,        0.0917968750,        0.0727539062,      -17.8985595703,       -3.3111572266,       46.0510253906
1489455820.7938449383,1489455820.7962648869,       -0.7241210938,       -0.1582031250,        0.0844726562,      -20.6298828125,       -2.9754638672,       46.6003417969
1489455820.7965550423,1489455820.7989690304,       -0.8295898438,       -0.1938476562,        0.0844726562,      -20.6298828125,       -2.9754638672,       46.6003417969
1489455820.7992520332,1489455820.8015539646,       -0.8295898438,       -0.1938476562,        0.0844726562,      -24.4598388672,       -3.4179687500,       47.3175048828
1489455820.8019449711,1489455820.8042340279,       -0.8295898438,       -0.1938476562,        0.0844726562,      -24.4598388672,       -3.4179687500,       47.3175048828
1489455820.8045170307,1489455820.8068089485,       -0.8852539062,       -0.3476562500,        0.0351562500,      -28.5797119141,       -4.0740966797,       49.9114990234
1489455820.8070909977,1489455820.8094820976,       -0.8852539062,       -0.3476562500,        0.0351562500,      -28.5797119141,       -4.0740966797,       49.9114990234
1489455820.8097720146,1489455820.8121910095,       -0.8852539062,       -0.3476562500,        0.0351562500,      -31.5246582031,       -5.1422119141,       52.9632568359
1489455820.8124799728,1489455820.8148930073,       -0.8852539062,       -0.3476562500,        0.0351562500,      -31.5246582031,       -5.1422119141,       52.9632568359
1489455820.8151829243,1489455820.8175981045,       -0.9038085938,       -0.2250976562,       -0.0493164062,      -31.9519042969,       -4.9133300781,       56.8389892578
1489455820.8178889751,1489455820.8202409744,       -0.9038085938,       -0.2250976562,       -0.0493164062,      -31.9519042969,       -4.9133300781,       56.8389892578
1489455820.8205239773,1489455820.8228180408,       -0.9038085938,       -0.2250976562,       -0.0493164062,      -32.5012207031,       -4.0893554688,       61.6912841797
1489455820.8231000900,1489455820.8253870010,       -0.9038085938,       -0.2250976562,       -0.0493164062,      -32.5012207031,       -4.0893554688,       61.6912841797
1489455820.8256690502,1489455820.8279631138,       -0.8862304688,       -0.0288085938,       -0.0825195312,      -32.5012207031,       -4.1503906250,       66.3757324219
1489455820.8282449245,1489455820.8305959702,       -0.8862304688,       -0.0288085938,       -0.0825195312,      -34.2864990234,       -4.1503906250,       66.3757324219
1489455820.8308780193,1489455820.8331670761,       -0.8862304688,       -0.0288085938,       -0.0825195312,      -34.2864990234,       -4.1503906250,       70.5566406250
1489455820.8334479332,1489455820.8357360363,       -0.8862304688,       -0.0288085938,       -0.0825195312,      -37.0788574219,       -4.3640136719,       70.5566406250
1489455820.8360168934,1489455820.8383159637,       -0.8686523438,        0.0917968750,       -0.0625000000,      -37.0788574219,       -4.3640136719,       74.4628906250
1489455820.8385970592,1489455820.8410758972,       -0.8686523438,        0.0917968750,       -0.0625000000,      -39.3371582031,       -5.3253173828,       74.8901367188
1489455820.8413610458,1489455820.8436510563,       -0.8686523438,        0.0917968750,       -0.0625000000,      -39.3371582031,       -5.3253173828,       78.7963867188
1489455820.8439340591,1489455820.8462231159,       -0.8686523438,        0.0917968750,       -0.0625000000,      -41.4733886719,       -7.4157714844,       78.8726806641
1489455820.8465061188,1489455820.8489460945,       -0.8476562500,        0.1372070312,       -0.0043945312,      -41.4733886719,       -7.4157714844,       78.8726806641
1489455820.8492300510,1489455820.8515229225,       -0.8476562500,        0.1372070312,       -0.0043945312,      -41.0156250000,       -9.5672607422,       81.7260742188
1489455820.8518071175,1489455820.8540980816,       -0.8476562500,        0.1372070312,       -0.0043945312,      -41.0156250000,       -9.5672607422,       81.7260742188
1489455820.8543810844,1489455820.8566679955,       -0.8476562500,        0.1372070312,       -0.0195312500,      -38.1011962891,      -12.2528076172,       83.4960937500
1489455820.8569529057,1489455820.8592679501,       -0.8085937500,        0.1406250000,       -0.0195312500,      -38.1011962891,      -12.2528076172,       83.4960937500
1489455820.8595519066,1489455820.8618450165,       -0.8085937500,        0.1406250000,       -0.0195312500,      -33.2946777344,      -13.4124755859,       83.1604003906
1489455820.8621299267,1489455820.8644230366,       -0.8085937500,        0.1406250000,       -0.0195312500,      -33.2946777344,      -13.4124755859,       83.1604003906
1489455820.8648231030,1489455820.8671159744,       -0.8085937500,        0.1333007812,       -0.0708007812,      -28.2440185547,      -13.6871337891,       82.0617675781
1489455820.8674030304,1489455820.8696999550,       -0.7661132812,        0.1333007812,       -0.0708007812,      -28.2440185547,      -13.6871337891,       82.0617675781
1489455820.8699879646,1489455820.8722820282,       -0.7661132812,        0.1333007812,       -0.0708007812,      -24.0936279297,      -14.5874023438,       79.9255371094
1489455820.8725678921,1489455820.8748559952,       -0.7661132812,        0.1333007812,       -0.0708007812,      -24.0936279297,      -14.5874023438,       79.9255371094
1489455820.8751399517,1489455820.8774290085,       -0.6411132812,        0.1157226562,       -0.0859375000,      -21.5454101562,      -15.2587890625,       76.9348144531
1489455820.8777151108,1489455820.8800919056,       -0.7221679688,        0.1157226562,       -0.0859375000,      -21.5454101562,      -15.2587890625,       76.9348144531
1489455820.8803839684,1489455820.8828060627,       -0.7221679688,        0.1157226562,       -0.0859375000,      -19.2565917969,      -16.2506103516,       73.6846923828
1489455820.8830969334,1489455820.8855159283,       -0.7221679688,        0.1157226562,       -0.0859375000,      -19.2565917969,      -16.2506103516,       73.6846923828
1489455820.8858089447,1489455820.8882279396,       -0.7001953125,        0.1152343750,       -0.0546875000,      -17.1051025391,      -16.7999267578,       70.7397460938
1489455820.8885209560,1489455820.8909640312,       -0.7001953125,        0.1152343750,       -0.0546875000,      -17.1051025391,      -16.7999267578,       70.7397460938
1489455820.8912489414,1489455820.8935461044,       -0.7001953125,        0.1152343750,       -0.0546875000,      -13.1988525391,      -17.4255371094,       67.6574707031
1489455820.8938310146,1489455820.8961250782,       -0.7001953125,        0.1152343750,       -0.0546875000,      -14.5874023438,      -17.4255371094,       67.6574707031
1489455820.8964109421,1489455820.8987009525,       -0.7138671875,        0.1699218750,       -0.0239257812,      -14.5874023438,      -18.1579589844,       65.5822753906
1489455820.8990459442,1489455820.9013481140,       -0.7138671875,        0.1699218750,       -0.0239257812,      -10.0860595703,      -18.1579589844,       65.5822753906
1489455820.9016349316,1489455820.9039258957,       -0.7138671875,        0.1699218750,       -0.0239257812,      -10.0860595703,      -18.1579589844,       68.4661865234
1489455820.9042119980,1489455820.9066760540,       -0.7138671875,        0.1699218750,       -0.0239257812,       -2.4108886719,      -18.6767578125,       68.4661865234
1489455820.9069609642,1489455820.9095110893,       -0.7841796875,        0.4189453125,       -0.0039062500,       -2.4108886719,      -18.6767578125,       70.3430175781
1489455820.9098029137,1489455820.9122200012,       -0.7841796875,        0.4189453125,       -0.0039062500,        2.0446777344,      -19.9584960938,       70.3430175781
1489455820.9125099182,1489455820.9149320126,       -0.7841796875,        0.4189453125,       -0.0039062500,        2.0446777344,      -19.9584960938,       65.5822753906
1489455820.9152209759,1489455820.9176359177,       -0.7841796875,        0.2924804688,        0.0195312500,        4.5928955078,      -21.1029052734,       65.5822753906
1489455820.9179260731,1489455820.9202830791,       -0.7260742188,        0.2924804688,        0.0195312500,        4.5928955078,      -21.1029052734,       59.3872070312
1489455820.9205660820,1489455820.9240679741,       -0.7260742188,        0.2924804688,        0.0195312500,        7.7667236328,      -21.9421386719,       59.3872070312
1489455820.9244179726,1489455820.9268651009,       -0.7260742188,        0.2924804688,        0.0195312500,       10.5438232422,      -21.5454101562,       55.8776855469
1489455820.9271540642,1489455820.9294629097,       -0.7382812500,        0.1401367188,        0.0063476562,       10.5438232422,      -21.5454101562,       55.8776855469
1489455820.9298579693,1489455820.9321529865,       -0.7382812500,        0.1401367188,        0.0063476562,        9.0026855469,      -21.0723876953,       53.3142089844
1489455820.9324369431,1489455820.9347250462,       -0.7382812500,        0.1401367188,        0.0063476562,        9.0026855469,      -21.0723876953,       53.3142089844
1489455820.9350080490,1489455820.9372909069,       -0.7382812500,        0.1401367188,       -0.0449218750,        2.7618408203,      -21.0571289062,       51.9409179688
1489455820.9375729561,1489455820.9399480820,       -0.7275390625,        0.0937500000,       -0.0449218750,        2.7618408203,      -21.0571289062,       51.9409179688
1489455820.9402329922,1489455820.9425160885,       -0.7275390625,        0.0937500000,       -0.0449218750,       -1.1444091797,      -20.9960937500,       51.1932373047
1489455820.9427969456,1489455820.9450819492,       -0.7275390625,        0.0937500000,       -0.0449218750,       -2.3193359375,      -20.9960937500,       51.1932373047
1489455820.9453630447,1489455820.9476499557,       -0.7275390625,        0.1264648438,       -0.0195312500,       -2.3193359375,      -20.9960937500,       50.3234863281
1489455820.9479320049,1489455820.9502229691,       -0.7255859375,        0.1264648438,       -0.0195312500,       -4.8675537109,      -21.4385986328,       50.3234863281
1489455820.9505059719,1489455820.9527950287,       -0.7255859375,        0.1264648438,       -0.0195312500,       -4.8675537109,      -21.4385986328,       49.3774414062
1489455820.9530758858,1489455820.9553630352,       -0.7255859375,        0.1264648438,       -0.0195312500,       -8.2244873047,      -21.3317871094,       49.3774414062
1489455820.9556450844,1489455820.9579300880,       -0.7255859375,        0.1357421875,        0.0327148438,       -8.2244873047,      -21.3317871094,       49.3774414062
1489455820.9582130909,1489455820.9605479240,       -0.7128906250,        0.1357421875,        0.0327148438,      -10.9252929688,      -21.9116210938,       47.6379394531
1489455820.9608330727,1489455820.9631218910,       -0.7128906250,        0.1357421875,        0.0327148438,      -10.9252929688,      -21.9116210938,       47.6379394531
1489455820.9634048939,1489455820.9656949043,       -0.7128906250,        0.1357421875,        0.0327148438,       -9.3383789062,      -22.1710205078,       45.8679199219
1489455820.9659769535,1489455820.9682641029,       -0.7128906250,        0.1318359375,        0.0473632812,       -9.3383789062,      -22.1710205078,       45.8679199219
1489455820.9685459137,1489455820.9709119797,       -0.7070312500,        0.1318359375,        0.0473632812,       -5.4779052734,      -21.9116210938,       43.9758300781
1489455820.9711949825,1489455820.9734809399,       -0.7070312500,        0.1318359375,        0.0473632812,       -5.4779052734,      -21.9116210938,       43.9758300781
1489455820.9737639427,1489455820.9760489464,       -0.7070312500,        0.1318359375,        0.0473632812,       -2.9144287109,      -21.2097167969,       41.4276123047
1489455820.9763329029,1489455820.9786200523,       -0.7143554688,        0.1684570312,        0.0112304688,       -2.9144287109,      -21.2097167969,       41.4276123047
1489455820.9789910316,1489455820.9812979698,       -0.7143554688,        0.1684570312,        0.0112304688,       -0.2899169922,      -20.3552246094,       39.8101806641
1489455820.9815809727,1489455820.9838669300,       -0.7143554688,        0.1684570312,        0.0112304688,       -0.2899169922,      -20.3552246094,       39.8101806641
1489455820.9841489792,1489455820.9864408970,       -0.7143554688,        0.1684570312,        0.0112304688,        4.9438476562,      -20.8740234375,       36.9720458984
1489455820.9867210388,1489455820.9890511036,       -0.7114257812,        0.1811523438,        0.0131835938,        4.9438476562,      -20.8740234375,       36.9720458984
1489455820.9893319607,1489455820.9916210175,       -0.7114257812,        0.1811523438,        0.0131835938,       11.7034912109,      -21.2249755859,       33.1573486328
1489455820.9920139313,1489455820.9942989349,       -0.7114257812,        0.1811523438,        0.0131835938,       11.7034912109,      -21.2249755859,       33.1573486328
1489455820.9945840836,1489455820.9968700409,       -0.7114257812,        0.1811523438,        0.0131835938,       15.6097412109,      -20.5078125000,       29.4952392578
1489455820.9971539974,1489455820.9994490147,       -0.7543945312,        0.1542968750,       -0.0117187500,       14.8162841797,      -20.5078125000,       29.4952392578
1489455820.9997351170,1489455821.0020198822,       -0.7543945312,        0.1542968750,       -0.0117187500,       14.8162841797,      -20.5078125000,       27.2064208984
1489455821.0023078918,1489455821.0045928955,       -0.7543945312,        0.1542968750,       -0.0117187500,       14.1296386719,      -20.1873779297,       27.2064208984
1489455821.0048789978,1489455821.0071699619,       -0.7543945312,        0.1542968750,       -0.0117187500,       14.1296386719,      -20.1873779297,       25.6347656250
1489455821.0074551105,1489455821.0098218918,       -0.7446289062,        0.1279296875,        0.0087890625,       12.5885009766,      -19.7601318359,       25.6347656250
1489455821.0101079941,1489455821.0124011040,       -0.7446289062,        0.1279296875,        0.0087890625,       12.5885009766,      -19.7601318359,       25.6347656250
1489455821.0126860142,1489455821.0149741173,       -0.7446289062,        0.1279296875,        0.0087890625,       12.3748779297,      -19.1192626953,       24.5971679688
1489455821.0152590275,1489455821.0175530910,       -0.7446289062,        0.1279296875,        0.0087890625,       12.3748779297,      -19.1192626953,       24.5971679688
1489455821.0178380013,1489455821.0202639103,       -0.7446289062,        0.1440429688,        0.0166015625,       11.5051269531,      -18.7072753906,       23.7579345703
1489455821.0205569267,1489455821.0229759216,       -0.7446289062,        0.1440429688,        0.0166015625,       11.5051269531,      -18.7072753906,       23.7579345703
1489455821.0232679844,1489455821.0256819725,       -0.7446289062,        0.1440429688,        0.0166015625,       10.2386474609,      -18.9361572266,       22.4914550781
1489455821.0259768963,1489455821.0283920765,       -0.7446289062,        0.1440429688,        0.0146484375,       10.2386474609,      -18.9361572266,       22.4914550781
1489455821.0286850929,1489455821.0311110020,       -0.7226562500,        0.1591796875,        0.0146484375,        8.3618164062,      -18.7835693359,       22.2473144531
1489455821.0314009190,1489455821.0338120461,       -0.7226562500,        0.1591796875,        0.0146484375,        8.3618164062,      -18.7835693359,       22.2473144531
1489455821.0341019630,1489455821.0366361141,       -0.7226562500,        0.1591796875,        0.0146484375,        6.6070556641,      -18.3715820312,       21.7437744141
1489455821.0369288921,1489455821.0393440723,       -0.7280273438,        0.1274414062,        0.0151367188,        6.6070556641,      -18.3715820312,       21.7437744141
1489455821.0400590897,1489455821.0424730778,       -0.7280273438,        0.1274414062,        0.0151367188,        4.3640136719,      -17.6086425781,       21.3928222656
1489455821.0427629948,1489455821.0451779366,       -0.7280273438,        0.1274414062,        0.0151367188,        4.3640136719,      -17.6086425781,       21.3928222656
1489455821.0454690456,1489455821.0478858948,       -0.7280273438,        0.1274414062,        0.0151367188,        2.5787353516,      -17.5476074219,       21.0571289062
1489455821.0481760502,1489455821.0505409241,       -0.7202148438,        0.1303710938,        0.0224609375,        2.5787353516,      -17.5476074219,       21.0571289062
1489455821.0508251190,1489455821.0531198978,       -0.7202148438,        0.1303710938,        0.0224609375,       -0.2136230469,      -16.9525146484,       21.0113525391
1489455821.0534029007,1489455821.0556979179,       -0.7202148438,        0.1303710938,        0.0224609375,       -0.2136230469,      -16.9525146484,       21.0113525391
1489455821.0560929775,1489455821.0583870411,       -0.7202148438,        0.1303710938,        0.0332031250,       -2.5787353516,      -16.2200927734,       20.5993652344
1489455821.0586690903,1489455821.0610859394,       -0.7309570312,        0.1347656250,        0.0332031250,       -2.5787353516,      -16.2200927734,       20.5993652344
1489455821.0613739491,1489455821.0637900829,       -0.7309570312,        0.1347656250,        0.0332031250,       -4.3945312500,      -15.6250000000,       20.5841064453
1489455821.0640790462,1489455821.0664920807,       -0.7309570312,        0.1347656250,        0.0332031250,       -4.3945312500,      -15.6250000000,       20.5841064453
1489455821.0667800903,1489455821.0692250729,       -0.7309570312,        0.1313476562,        0.0307617188,       -5.5084228516,      -14.8468017578,       20.3857421875
1489455821.0695080757,1489455821.0717990398,       -0.7260742188,        0.1313476562,        0.0307617188,       -5.5084228516,      -14.8468017578,       20.3857421875
1489455821.0720789433,1489455821.0743720531,       -0.7260742188,        0.1313476562,        0.0307617188,       -6.3323974609,      -14.0228271484,       20.5993652344
1489455821.0746541023,1489455821.0769510269,       -0.7260742188,        0.1313476562,        0.0307617188,       -6.3323974609,      -14.0228271484,       20.5993652344
1489455821.0772330761,1489455821.0795390606,       -0.7333984375,        0.1376953125,        0.0405273438,       -6.3629150391,      -13.5345458984,       20.4925537109
1489455821.0798220634,1489455821.0821120739,       -0.7333984375,        0.1376953125,        0.0405273438,       -6.3629150391,      -13.5345458984,       20.4925537109
1489455821.0823938847,1489455821.0846838951,       -0.7333984375,        0.1376953125,        0.0405273438,       -4.9438476562,      -13.0004882812,       20.1873779297
1489455821.0849659443,1489455821.0872609615,       -0.7333984375,        0.1376953125,        0.0405273438,       -4.9438476562,      -13.0004882812,       20.1873779297
1489455821.0875411034,1489455821.0899751186,       -0.7309570312,        0.1401367188,        0.0595703125,       -2.7008056641,      -11.9781494141,       19.3634033203
1489455821.0902578831,1489455821.0925478935,       -0.7309570312,        0.1401367188,        0.0595703125,       -2.7008056641,      -11.9781494141,       19.3634033203
1489455821.0928299427,1489455821.0951220989,       -0.7309570312,        0.1401367188,        0.0595703125,        0.2441406250,      -11.5661621094,       19.0582275391
1489455821.0954020023,1489455821.0976929665,       -0.7309570312,        0.1401367188,        0.0595703125,        0.2441406250,      -11.5661621094,       19.0582275391
1489455821.0979750156,1489455821.1003649235,       -0.7265625000,        0.1459960938,        0.0810546875,        0.2441406250,      -11.6424560547,       18.2037353516
1489455821.1006491184,1489455821.1029379368,       -0.7265625000,        0.1459960938,        0.0810546875,        2.7313232422,      -11.6424560547,       18.2037353516
1489455821.1032209396,1489455821.1055130959,       -0.7265625000,        0.1459960938,        0.0810546875,        2.7313232422,      -15.5487060547,       17.7764892578
1489455821.1057949066,1489455821.1080880165,       -0.7265625000,        0.1459960938,        0.0810546875,        5.2947998047,      -11.7645263672,       17.7764892578
1489455821.1083700657,1489455821.1107730865,       -0.7294921875,        0.1352539062,        0.0649414062,        5.2947998047,      -11.7645263672,       17.4255371094
1489455821.1110630035,1489455821.1134750843,       -0.7294921875,        0.1352539062,        0.0649414062,        7.1411132812,      -11.4593505859,       17.4255371094
1489455821.1137640476,1489455821.1161830425,       -0.7294921875,        0.1352539062,        0.0649414062,        7.1411132812,      -11.4593505859,       17.3339843750
1489455821.1164710522,1489455821.1188950539,       -0.7294921875,        0.1352539062,        0.0522460938,        7.7667236328,      -11.0778808594,       17.3339843750
1489455821.1192860603,1489455821.1216969490,       -0.7353515625,        0.1416015625,        0.0522460938,        7.7667236328,      -11.0778808594,       17.4102783203
1489455821.1219859123,1489455821.1243989468,       -0.7353515625,        0.1416015625,        0.0522460938,        7.2326660156,      -10.6201171875,       17.4102783203
1489455821.1246860027,1489455821.1271100044,       -0.7353515625,        0.1416015625,        0.0522460938,        7.2326660156,      -10.6201171875,       17.8680419922
1489455821.1273920536,1489455821.1298100948,       -0.7353515625,        0.1391601562,        0.0498046875,        6.2255859375,       -9.3383789062,       17.8680419922
1489455821.1300950050,1489455821.1324799061,       -0.7338867188,        0.1391601562,        0.0498046875,        6.2255859375,       -9.3383789062,       18.9819335938
1489455821.1327650547,1489455821.1360359192,       -0.7338867188,        0.1391601562,        0.0498046875,        4.4555664062,       -7.7056884766,       18.9819335938
1489455821.1363179684,1489455821.1386029720,       -0.7338867188,        0.1391601562,        0.0498046875,        4.1351318359,       -6.8054199219,       19.6838378906
1489455821.1388850212,1489455821.1411759853,       -0.7197265625,        0.1440429688,        0.0561523438,        4.1351318359,       -6.8054199219,       19.6838378906
1489455821.1414530277,1489455821.1437420845,       -0.7197265625,        0.1440429688,        0.0561523438,        4.1351318359,       -6.3629150391,       19.9127197266
1489455821.1440200806,1489455821.1463069916,       -0.7197265625,        0.1440429688,        0.0561523438,        3.9215087891,       -6.3629150391,       19.9127197266
1489455821.1465830803,1489455821.1488831043,       -0.7197265625,        0.1440429688,        0.0561523438,        3.9215087891,       -6.3629150391,       20.2331542969
1489455821.1491599083,1489455821.1514439583,       -0.7275390625,        0.1606445312,        0.0566406250,        4.2114257812,       -6.4239501953,       20.2331542969
1489455821.1517241001,1489455821.1540141106,       -0.7275390625,        0.1606445312,        0.0566406250,        4.2114257812,       -6.4239501953,       20.2331542969
1489455821.1542949677,1489455821.1565821171,       -0.7275390625,        0.1606445312,        0.0566406250,        4.9133300781,       -6.2408447266,       20.5383300781
1489455821.1568601131,1489455821.1591520309,       -0.7275390625,        0.1606445312,        0.0566406250,        4.9133300781,       -6.2408447266,       20.5383300781
1489455821.1594300270,1489455821.1617209911,       -0.7250976562,        0.1455078125,        0.0522460938,        6.5155029297,       -6.0119628906,       20.5841064453
1489455821.1619989872,1489455821.1642880440,       -0.7250976562,        0.1455078125,        0.0522460938,        6.5155029297,       -6.0119628906,       20.5841064453
1489455821.1645660400,1489455821.1668488979,       -0.7250976562,        0.1455078125,        0.0522460938,        7.3699951172,       -6.0577392578,       21.1944580078
1489455821.1671280861,1489455821.1694719791,       -0.7250976562,        0.1455078125,        0.0473632812,        7.3699951172,       -6.0577392578,       21.1944580078
1489455821.1697490215,1489455821.1720390320,       -0.7309570312,        0.1528320312,        0.0473632812,        7.2784423828,       -6.3018798828,       21.5301513672
1489455821.1723170280,1489455821.1746029854,       -0.7309570312,        0.1528320312,        0.0473632812,        7.2784423828,       -6.3018798828,       21.5301513672
1489455821.1748800278,1489455821.1771728992,       -0.7309570312,        0.1528320312,        0.0473632812,        6.6680908203,       -6.5002441406,       21.4385986328
1489455821.1774508953,1489455821.1799230576,       -0.7309570312,        0.1528320312,        0.0537109375,        6.6680908203,       -6.5002441406,       21.4385986328
1489455821.1802020073,1489455821.1824939251,       -0.7104492188,        0.1684570312,        0.0537109375,        7.2021484375,       -6.7138671875,       20.9960937500
1489455821.1827731133,1489455821.1850690842,       -0.7104492188,        0.1684570312,        0.0537109375,        7.2021484375,       -6.7138671875,       20.9960937500
1489455821.1854619980,1489455821.1877601147,       -0.7104492188,        0.1684570312,        0.0537109375,        7.2631835938,       -6.6375732422,       21.1486816406
1489455821.1880390644,1489455821.1904730797,       -0.7104492188,        0.1704101562,        0.0449218750,        7.2631835938,       -6.6375732422,       21.1486816406
1489455821.1907498837,1489455821.1930480003,       -0.7172851562,        0.1704101562,        0.0449218750,        7.8735351562,       -6.3323974609,       20.3247070312
1489455821.1933250427,1489455821.1956210136,       -0.7172851562,        0.1704101562,        0.0449218750,        7.8735351562,       -6.3323974609,       20.3247070312
1489455821.1958980560,1489455821.1981918812,       -0.7172851562,        0.1704101562,        0.0449218750,        7.8735351562,       -6.8054199219,       19.7296142578
1489455821.1984701157,1489455821.2007889748,       -0.7163085938,        0.1826171875,        0.0444335938,        8.6059570312,       -6.8054199219,       19.7296142578
1489455821.2010700703,1489455821.2033569813,       -0.7163085938,        0.1826171875,        0.0444335938,        8.6059570312,       -6.8054199219,       19.5159912109
1489455821.2036368847,1489455821.2059259415,       -0.7163085938,        0.1826171875,        0.0444335938,        8.9721679688,       -7.5836181641,       19.5159912109
1489455821.2062048912,1489455821.2084920406,       -0.7163085938,        0.1826171875,        0.0444335938,        8.9721679688,       -7.5836181641,       19.1345214844
1489455821.2087709904,1489455821.2111499310,       -0.7231445312,        0.1728515625,        0.0317382812,        9.9945068359,       -7.7056884766,       19.1345214844
1489455821.2114300728,1489455821.2137138844,       -0.7231445312,        0.1728515625,        0.0317382812,        9.9945068359,       -7.7056884766,       19.1345214844
1489455821.2139940262,1489455821.2162768841,       -0.7231445312,        0.1728515625,        0.0317382812,       11.0321044922,       -8.2244873047,       19.3481445312
1489455821.2165589333,1489455821.2188830376,       -0.7231445312,        0.1728515625,        0.0317382812,       11.0321044922,       -8.2244873047,       19.3481445312
1489455821.2191650867,1489455821.2214550972,       -0.7319335938,        0.1591796875,        0.0424804688,       11.0778808594,       -8.3007812500,       19.1040039062
1489455821.2217381001,1489455821.2240231037,       -0.7319335938,        0.1591796875,        0.0424804688,       11.0778808594,       -8.3007812500,       19.1040039062
1489455821.2243049145,1489455821.2265939713,       -0.7319335938,        0.1591796875,        0.0424804688,       11.3677978516,       -8.7432861328,       19.5922851562
1489455821.2268760204,1489455821.2293028831,       -0.7319335938,        0.1591796875,        0.0424804688,       11.3677978516,       -8.7432861328,       19.5922851562
1489455821.2295870781,1489455821.2318849564,       -0.7221679688,        0.1679687500,        0.0239257812,       11.8408203125,       -8.5449218750,       19.9584960938
1489455821.2321670055,1489455821.2344489098,       -0.7221679688,        0.1679687500,        0.0239257812,       11.8408203125,       -8.5449218750,       19.9584960938
1489455821.2347319126,1489455821.2370190620,       -0.7221679688,        0.1679687500,        0.0239257812,       11.0168457031,       -8.9263916016,       19.6380615234
1489455821.2373011112,1489455821.2398149967,       -0.7221679688,        0.1679687500,        0.0239257812,       11.0168457031,       -8.9263916016,       19.6380615234
1489455821.2401049137,1489455821.2424869537,       -0.7202148438,        0.1840820312,        0.0361328125,       10.4064941406,       -8.9263916016,       19.7906494141
1489455821.2427749634,1489455821.2458119392,       -0.7202148438,        0.1840820312,        0.0361328125,       10.4064941406,       -8.9263916016,       19.7906494141
1489455821.2460970879,1489455821.2483859062,       -0.7202148438,        0.1840820312,        0.0361328125,       10.4675292969,       -9.4299316406,       19.9737548828
1489455821.2487769127,1489455821.2511329651,       -0.7143554688,        0.1943359375,        0.0444335938,       10.4675292969,       -9.4299316406,       19.9737548828
1489455821.2514159679,1489455821.2537119389,       -0.7143554688,        0.1943359375,        0.0444335938,       10.8489990234,       -9.0942382812,       20.0805664062
1489455821.2539939880,1489455821.2562839985,       -0.7143554688,        0.1943359375,        0.0444335938,       10.8489990234,       -9.0942382812,       20.0805664062
1489455821.2565650940,1489455821.2588860989,       -0.7143554688,        0.1943359375,        0.0444335938,       10.3302001953,       -8.7127685547,       19.8822021484
1489455821.2591669559,1489455821.2614591122,       -0.7070312500,        0.1811523438,        0.0600585938,       10.3302001953,       -8.7127685547,       19.8822021484
1489455821.2617421150,1489455821.2640309334,       -0.7070312500,        0.1811523438,        0.0600585938,       10.2539062500,       -8.4686279297,       20.3552246094
1489455821.2643139362,1489455821.2666020393,       -0.7070312500,        0.1811523438,        0.0600585938,       10.2539062500,       -8.4686279297,       20.3552246094
1489455821.2668840885,1489455821.2692239285,       -0.7070312500,        0.1811523438,        0.0600585938,       10.2386474609,       -7.9498291016,       20.9045410156
1489455821.2695059776,1489455821.2717959881,       -0.7055664062,        0.1933593750,        0.0673828125,       10.2386474609,       -7.9498291016,       20.9045410156
1489455821.2720770836,1489455821.2743709087,       -0.7055664062,        0.1933593750,        0.0673828125,       10.2386474609,       -7.2631835938,       20.9045410156
1489455821.2746529579,1489455821.2769401073,       -0.7055664062,        0.1933593750,        0.0673828125,        9.5977783203,       -7.2631835938,       20.9045410156
1489455821.2772200108,1489455821.2795128822,       -0.7055664062,        0.1933593750,        0.0673828125,        9.5977783203,       -7.2631835938,       21.5454101562
1489455821.2797920704,1489455821.2820920944,       -0.7104492188,        0.1840820312,        0.0708007812,        9.1400146484,       -6.2103271484,       21.5454101562
1489455821.2823688984,1489455821.2846579552,       -0.7104492188,        0.1840820312,        0.0708007812,        9.1400146484,       -6.2103271484,       21.5454101562
1489455821.2849349976,1489455821.2872309685,       -0.7104492188,        0.1840820312,        0.0708007812,        9.0179443359,       -5.6457519531,       22.2778320312
1489455821.2875111103,1489455821.2899448872,       -0.7104492188,        0.1840820312,        0.0708007812,        9.0179443359,       -5.6457519531,       22.2778320312
1489455821.2902278900,1489455821.2925190926,       -0.7114257812,        0.1904296875,        0.0634765625,        7.9345703125,       -4.5318603516,       22.7966308594
1489455821.2927970886,1489455821.2950949669,       -0.7114257812,        0.1904296875,        0.0634765625,        7.9345703125,       -4.5318603516,       22.7966308594
1489455821.2953720093,1489455821.2976651192,       -0.7114257812,        0.1904296875,        0.0634765625,        7.6293945312,       -4.3182373047,       23.4222412109
1489455821.2979419231,1489455821.3003389835,       -0.7114257812,        0.1904296875,        0.0634765625,        7.6293945312,       -4.3182373047,       23.4222412109
1489455821.3006169796,1489455821.3029139042,       -0.7089843750,        0.1889648438,        0.0566406250,        7.8735351562,       -4.0130615234,       23.8342285156
1489455821.3031919003,1489455821.3054809570,       -0.7089843750,        0.1889648438,        0.0566406250,        7.8735351562,       -4.0130615234,       23.8342285156
1489455821.3057599068,1489455821.3080511093,       -0.7089843750,        0.1889648438,        0.0566406250,        7.0495605469,       -3.5705566406,       24.5361328125
1489455821.3083279133,1489455821.3107330799,       -0.7089843750,        0.1889648438,        0.0546875000,        7.0495605469,       -3.5705566406,       24.5361328125
1489455821.3111341000,1489455821.3135468960,       -0.7177734375,        0.1928710938,        0.0546875000,        7.0495605469,       -3.3264160156,       24.7039794922
1489455821.3138329983,1489455821.3163239956,       -0.7177734375,        0.1928710938,        0.0546875000,        7.0495605469,       -3.3264160156,       24.7039794922
1489455821.3166089058,1489455821.3190250397,       -0.7177734375,        0.1928710938,        0.0546875000,        6.5917968750,       -3.1433105469,       25.0549316406
1489455821.3197019100,1489455821.3221249580,       -0.7163085938,        0.1884765625,        0.0488281250,        6.5917968750,       -3.1433105469,       25.0549316406
1489455821.3224129677,1489455821.3248300552,       -0.7163085938,        0.1884765625,        0.0488281250,        6.3323974609,       -3.2958984375,       25.1922607422
1489455821.3251149654,1489455821.3275289536,       -0.7163085938,        0.1884765625,        0.0488281250,        6.3323974609,       -3.2958984375,       25.1922607422
1489455821.3278129101,1489455821.3302459717,       -0.7163085938,        0.1884765625,        0.0488281250,        5.4321289062,       -3.2806396484,       25.2685546875
1489455821.3305299282,1489455821.3329489231,       -0.7099609375,        0.2231445312,        0.0458984375,        5.4321289062,       -3.2806396484,       25.2685546875
1489455821.3332331181,1489455821.3356480598,       -0.7099609375,        0.2231445312,        0.0458984375,        5.0506591797,       -3.4332275391,       25.0091552734
1489455821.3359339237,1489455821.3383560181,       -0.7099609375,        0.2231445312,        0.0458984375,        5.0506591797,       -3.4332275391,       25.0091552734
1489455821.3386418819,1489455821.3410689831,       -0.7099609375,        0.2231445312,        0.0522460938,        5.3863525391,       -3.4332275391,       24.3530273438
1489455821.3413538933,1489455821.3437759876,       -0.6962890625,        0.2402343750,        0.0522460938,        5.3863525391,       -3.4332275391,       24.3530273438
1489455821.3440608978,1489455821.3464748859,       -0.6962890625,        0.2402343750,        0.0522460938,        5.5389404297,       -3.4942626953,       23.7121582031
1489455821.3467600346,1489455821.3492100239,       -0.6962890625,        0.2402343750,        0.0522460938,        5.5389404297,       -3.4942626953,       23.7121582031
1489455821.3494870663,1489455821.3517789841,       -0.6962890625,        0.2392578125,        0.0468750000,        5.5999755859,       -3.7384033203,       22.8729248047
1489455821.3520560265,1489455821.3543450832,       -0.6977539062,        0.2392578125,        0.0468750000,        5.5999755859,       -3.7384033203,       22.8729248047
1489455821.3546230793,1489455821.3569109440,       -0.6977539062,        0.2392578125,        0.0468750000,        5.7983398438,       -4.1351318359,       22.0794677734
1489455821.3571889400,1489455821.3594980240,       -0.6977539062,        0.2392578125,        0.0468750000,        5.7983398438,       -4.1351318359,       22.0794677734
1489455821.3597760201,1489455821.3620719910,       -0.7026367188,        0.2529296875,        0.0493164062,        6.4544677734,       -4.1656494141,       20.9655761719
1489455821.3623509407,1489455821.3646490574,       -0.7026367188,        0.2529296875,        0.0493164062,        6.4544677734,       -4.1656494141,       20.9655761719
1489455821.3649260998,1489455821.3672180176,       -0.7026367188,        0.2529296875,        0.0493164062,        7.3394775391,       -3.9367675781,       20.1263427734
1489455821.3674950600,1489455821.3699378967,       -0.7026367188,        0.2529296875,        0.0493164062,        7.3394775391,       -3.9367675781,       20.1263427734
1489455821.3702158928,1489455821.3725149632,       -0.7041015625,        0.2382812500,        0.0346679688,        7.3394775391,       -3.8604736328,       19.6380615234
1489455821.3727929592,1489455821.3750839233,       -0.7041015625,        0.2382812500,        0.0346679688,        7.2021484375,       -3.8604736328,       19.6380615234
1489455821.3754720688,1489455821.3777589798,       -0.7041015625,        0.2382812500,        0.0346679688,        7.2021484375,       -3.4332275391,       19.8516845703
1489455821.3780360222,1489455821.3805580139,       -0.7041015625,        0.2382812500,        0.0346679688,        6.2255859375,       -3.4332275391,       19.8516845703
1489455821.3808450699,1489455821.3832600117,       -0.6977539062,        0.2285156250,        0.0473632812,        6.2255859375,       -2.8839111328,       19.5465087891
1489455821.3835439682,1489455821.3859610558,       -0.6977539062,        0.2285156250,        0.0473632812,        5.5389404297,       -2.8839111328,       19.5465087891
1489455821.3862469196,1489455821.3886590004,       -0.6977539062,        0.2285156250,        0.0473632812,        5.5389404297,       -2.0446777344,       19.4549560547
1489455821.3889539242,1489455821.3913760185,       -0.6977539062,        0.2285156250,        0.0473632812,        5.4473876953,       -2.0446777344,       19.4549560547
1489455821.3916599751,1489455821.3940820694,       -0.6962890625,        0.2402343750,        0.0576171875,        5.4473876953,       -2.2277832031,       19.2260742188
1489455821.3943688869,1489455821.3967819214,       -0.6962890625,        0.2402343750,        0.0576171875,        5.4779052734,       -2.2277832031,       19.2260742188
1489455821.3970670700,1489455821.3994600773,       -0.6962890625,        0.2402343750,        0.0576171875,        5.4779052734,       -2.2277832031,       18.7988281250
1489455821.3997380733,1489455821.4020340443,       -0.6962890625,        0.2407226562,        0.0610351562,        5.8746337891,       -2.1057128906,       18.7988281250
1489455821.4023129940,1489455821.4046039581,       -0.6987304688,        0.2407226562,        0.0610351562,        5.8746337891,       -2.1057128906,       18.6004638672
1489455821.4048819542,1489455821.4071719646,       -0.6987304688,        0.2407226562,        0.0610351562,        6.0424804688,       -2.3040771484,       18.6004638672
1489455821.4074499607,1489455821.4098560810,       -0.6987304688,        0.2407226562,        0.0610351562,        6.0424804688,       -2.3040771484,       18.6004638672
1489455821.4101419449,1489455821.4125609398,       -0.6987304688,        0.2373046875,        0.0634765625,        6.2103271484,       -1.9683837891,       18.4631347656
1489455821.4128470421,1489455821.4152610302,       -0.7041015625,        0.2373046875,        0.0634765625,        6.2103271484,       -1.9683837891,       18.4631347656
1489455821.4155459404,1489455821.4179630280,       -0.7041015625,        0.2373046875,        0.0634765625,        6.8359375000,       -2.0141601562,       18.5394287109
1489455821.4182488918,1489455821.4206779003,       -0.7041015625,        0.2373046875,        0.0634765625,        6.8359375000,       -2.0141601562,       18.5394287109
1489455821.4209630489,1489455821.4233860970,       -0.7124023438,        0.2299804688,        0.0590820312,        6.6833496094,       -1.8615722656,       18.9056396484
1489455821.4236710072,1489455821.4260859489,       -0.7124023438,        0.2299804688,        0.0590820312,        6.6833496094,       -1.8615722656,       18.9056396484
1489455821.4263720512,1489455821.4288299084,       -0.7124023438,        0.2299804688,        0.0590820312,        6.9274902344,       -1.6937255859,       19.3176269531
1489455821.4291150570,1489455821.4315340519,       -0.7124023438,        0.2299804688,        0.0590820312,        6.9274902344,       -1.6937255859,       23.2238769531
1489455821.4318189621,1489455821.4342329502,       -0.7070312500,        0.2382812500,        0.0493164062,        7.2631835938,       -2.1820068359,       19.6228027344
1489455821.4345180988,1489455821.4369909763,       -0.7070312500,        0.2382812500,        0.0493164062,        7.2631835938,       -2.1820068359,       19.6228027344
1489455821.4372780323,1489455821.4398241043,       -0.7070312500,        0.2382812500,        0.0493164062,        7.1563720703,       -2.3651123047,       19.8822021484
1489455821.4402370453,1489455821.4425439835,       -0.7070312500,        0.2348632812,        0.0537109375,        7.1563720703,       -2.3651123047,       20.1416015625
1489455821.4428260326,1489455821.4451150894,       -0.7075195312,        0.2348632812,        0.0537109375,        7.7667236328,       -2.2583007812,       20.1416015625
1489455821.4453949928,1489455821.4476850033,       -0.7075195312,        0.2348632812,        0.0537109375,        7.7667236328,       -2.2583007812,       20.1416015625
1489455821.4479639530,1489455821.4503479004,       -0.7075195312,        0.2348632812,        0.0537109375,        7.9345703125,       -1.8768310547,       20.6756591797
1489455821.4506340027,1489455821.4530520439,       -0.7119140625,        0.2324218750,        0.0502929688,        7.9345703125,       -1.8768310547,       20.6756591797
1489455821.4533360004,1489455821.4557468891,       -0.7119140625,        0.2324218750,        0.0502929688,        7.7209472656,       -1.1291503906,       21.0876464844
1489455821.4560320377,1489455821.4584550858,       -0.7119140625,        0.2324218750,        0.0502929688,        7.7209472656,       -1.1291503906,       21.0876464844
1489455821.4587390423,1489455821.4611508846,       -0.7119140625,        0.2324218750,        0.0502929688,        7.5531005859,       -1.0375976562,       21.1791992188
1489455821.4614379406,1489455821.4638559818,       -0.7060546875,        0.2446289062,        0.0634765625,        7.5531005859,       -1.0375976562,       21.1791992188
1489455821.4641420841,1489455821.4665589333,       -0.7060546875,        0.2446289062,        0.0634765625,        7.8277587891,       -1.0070800781,       21.4843750000
1489455821.4668440819,1489455821.4692509174,       -0.7060546875,        0.2446289062,        0.0634765625,        7.8277587891,       -1.0070800781,       21.4843750000
1489455821.4695270061,1489455821.4718248844,       -0.7060546875,        0.2446289062,        0.0634765625,        7.7972412109,       -1.0375976562,       21.6979980469
1489455821.4721019268,1489455821.4743890762,       -0.7031250000,        0.2578125000,        0.0654296875,        7.7972412109,       -1.0375976562,       21.6979980469
1489455821.4746670723,1489455821.4769570827,       -0.7031250000,        0.2578125000,        0.0654296875,        8.4838867188,       -1.1291503906,       21.3928222656
1489455821.4772338867,1489455821.4795360565,       -0.7031250000,        0.2578125000,        0.0654296875,        8.4838867188,       -1.1291503906,       21.3928222656
1489455821.4798150063,1489455821.4821009636,       -0.7031250000,        0.2578125000,        0.0654296875,        9.0942382812,       -0.7934570312,       21.4538574219
1489455821.4823811054,1489455821.4846749306,       -0.6992187500,        0.2631835938,        0.0561523438,        9.0942382812,       -0.7934570312,       21.4538574219
1489455821.4849560261,1489455821.4872429371,       -0.6992187500,        0.2631835938,        0.0561523438,        9.3994140625,       -0.6103515625,       21.3775634766
1489455821.4875230789,1489455821.4899408817,       -0.6992187500,        0.2631835938,        0.0561523438,        9.3994140625,       -0.6103515625,       21.3775634766
1489455821.4902191162,1489455821.4925150871,       -0.6992187500,        0.2631835938,        0.0605468750,       10.1013183594,       -0.5187988281,       21.2860107422
1489455821.4927980900,1489455821.4950919151,       -0.6982421875,        0.2729492188,        0.0605468750,       10.1013183594,       -0.5187988281,       21.2860107422
1489455821.4953730106,1489455821.4976630211,       -0.6982421875,        0.2729492188,        0.0605468750,       10.1013183594,       -0.4730224609,       21.3165283203
1489455821.4979450703,1489455821.5004079342,       -0.6982421875,        0.2729492188,        0.0605468750,       10.9558105469,       -0.4730224609,       21.3165283203
1489455821.5006990433,1489455821.5031139851,       -0.6982421875,        0.2753906250,        0.0532226562,       10.9558105469,       -0.3204345703,       20.9808349609
1489455821.5035150051,1489455821.5059330463,       -0.6894531250,        0.2753906250,        0.0532226562,       11.1999511719,       -0.3204345703,       20.9808349609
1489455821.5062229633,1489455821.5086379051,       -0.6894531250,        0.2753906250,        0.0532226562,       11.1999511719,       -0.1220703125,       20.7672119141
1489455821.5089380741,1489455821.5113561153,       -0.6894531250,        0.2753906250,        0.0532226562,       11.6424560547,       -0.1220703125,       20.7672119141
1489455821.5116450787,1489455821.5140690804,       -0.6997070312,        0.2690429688,        0.0463867188,       15.5487060547,        0.1525878906,       21.6217041016
1489455821.5143599510,1489455821.5167779922,       -0.6997070312,        0.2690429688,        0.0463867188,       11.8255615234,        0.1525878906,       21.6217041016
1489455821.5170700550,1489455821.5194919109,       -0.6997070312,        0.2690429688,        0.0463867188,       11.8255615234,        0.2899169922,       21.5759277344
1489455821.5197811127,1489455821.5221989155,       -0.6997070312,        0.2690429688,        0.0463867188,       12.1612548828,        0.2899169922,       21.5759277344
1489455821.5224859715,1489455821.5248999596,       -0.7050781250,        0.2597656250,        0.0390625000,       12.1612548828,        0.5798339844,       21.8200683594
1489455821.5251879692,1489455821.5276110172,       -0.7050781250,        0.2597656250,        0.0390625000,       12.7258300781,        0.5798339844,       21.8200683594
1489455821.5279018879,1489455821.5303280354,       -0.7050781250,        0.2597656250,        0.0390625000,       12.7258300781,        0.6256103516,       22.2015380859
1489455821.5306179523,1489455821.5330340862,       -0.7050781250,        0.2597656250,        0.0561523438,       12.6342773438,        0.6256103516,       22.2015380859
1489455821.5333230495,1489455821.5357460976,       -0.7128906250,        0.2597656250,        0.0561523438,       12.6342773438,        0.7476806641,       22.7813720703
1489455821.5360341072,1489455821.5383799076,       -0.7128906250,        0.2597656250,        0.0561523438,       12.1307373047,        0.7476806641,       22.7813720703
1489455821.5386629105,1489455821.5411849022,       -0.7128906250,        0.2597656250,        0.0561523438,       12.1307373047,        0.5340576172,       23.4527587891
1489455821.5414741039,1489455821.5438609123,       -0.7045898438,        0.2607421875,        0.0673828125,       11.7187500000,        0.5340576172,       23.4527587891
1489455821.5447061062,1489455821.5469920635,       -0.7045898438,        0.2607421875,        0.0673828125,       12.0849609375,        0.6103515625,       24.0020751953
1489455821.5472750664,1489455821.5496399403,       -0.7045898438,        0.2607421875,        0.0673828125,       12.0849609375,        0.6103515625,       24.0020751953
1489455821.5499219894,1489455821.5522100925,       -0.7045898438,        0.2607421875,        0.0673828125,       12.6190185547,        0.4730224609,       24.4598388672
1489455821.5524930954,1489455821.5547769070,       -0.6972656250,        0.2729492188,        0.0610351562,       12.6190185547,        0.4730224609,       24.4598388672
1489455821.5550599098,1489455821.5573530197,       -0.6972656250,        0.2729492188,        0.0610351562,       12.6190185547,        0.4577636719,       24.9023437500
1489455821.5576360226,1489455821.5599770546,       -0.6972656250,        0.2729492188,        0.0610351562,       12.4359130859,        0.4577636719,       24.9023437500
1489455821.5602591038,1489455821.5625491142,       -0.6972656250,        0.2729492188,        0.0610351562,       12.4359130859,        0.4577636719,       24.6887207031
1489455821.5628309250,1489455821.5651199818,       -0.6977539062,        0.2680664062,        0.0468750000,       13.1683349609,        0.4425048828,       24.6887207031
1489455821.5654020309,1489455821.5676848888,       -0.6977539062,        0.2680664062,        0.0468750000,       13.1683349609,        0.4425048828,       24.6887207031
1489455821.5680749416,1489455821.5704050064,       -0.6977539062,        0.2680664062,        0.0468750000,       13.6260986328,        0.9613037109,       24.4750976562
1489455821.5706880093,1489455821.5729808807,       -0.6977539062,        0.2680664062,        0.0468750000,       13.6260986328,        0.9613037109,       24.4750976562
1489455821.5732629299,1489455821.5755500793,       -0.6953125000,        0.2778320312,        0.0468750000,       13.9923095703,        0.7781982422,       24.3530273438
1489455821.5758330822,1489455821.5781240463,       -0.6953125000,        0.2778320312,        0.0468750000,       13.9923095703,        0.7781982422,       24.3530273438
1489455821.5784070492,1489455821.5807390213,       -0.6953125000,        0.2778320312,        0.0468750000,       13.6108398438,        0.5645751953,       24.4293212891
1489455821.5810229778,1489455821.5833120346,       -0.6953125000,        0.2778320312,        0.0468750000,       13.6108398438,        0.5645751953,       24.4293212891
1489455821.5835950375,1489455821.5858829021,       -0.7041015625,        0.2885742188,        0.0468750000,       13.8092041016,        0.1220703125,       24.6582031250
1489455821.5861649513,1489455821.5884521008,       -0.7041015625,        0.2885742188,        0.0468750000,       13.8092041016,        0.1220703125,       24.6582031250
1489455821.5887339115,1489455821.5911030769,       -0.7041015625,        0.2885742188,        0.0468750000,       14.7094726562,        0.1373291016,       24.7497558594
1489455821.5913870335,1489455821.5936799049,       -0.7041015625,        0.2885742188,        0.0483398438,       14.7094726562,        0.1373291016,       24.7497558594
1489455821.5939610004,1489455821.5962560177,       -0.6962890625,        0.2978515625,        0.0483398438,       14.9688720703,        0.1831054688,       24.1088867188
1489455821.5965359211,1489455821.5989720821,       -0.6962890625,        0.2978515625,        0.0483398438,       14.9688720703,        0.1831054688,       24.1088867188
1489455821.5992639065,1489455821.6016829014,       -0.6962890625,        0.2978515625,        0.0483398438,       15.1672363281,        0.3051757812,       24.1394042969
1489455821.6019709110,1489455821.6043820381,       -0.6943359375,        0.2983398438,        0.0361328125,       15.1672363281,        0.3051757812,       24.1394042969
1489455821.6046710014,1489455821.6070859432,       -0.6943359375,        0.2983398438,        0.0361328125,       15.7623291016,        0.1831054688,       25.3753662109
1489455821.6073760986,1489455821.6098520756,       -0.6943359375,        0.2983398438,        0.0361328125,       15.7623291016,        0.1831054688,       25.3753662109
1489455821.6101410389,1489455821.6125650406,       -0.6943359375,        0.2983398438,        0.0361328125,       16.3574218750,        0.3509521484,       26.1840820312
1489455821.6128571033,1489455821.6152749062,       -0.6997070312,        0.2919921875,        0.0444335938,       16.3574218750,        0.3509521484,       26.1840820312
1489455821.6155660152,1489455821.6179819107,       -0.6997070312,        0.2919921875,        0.0444335938,       17.1966552734,        0.2441406250,       25.1159667969
1489455821.6182711124,1489455821.6206989288,       -0.6997070312,        0.2919921875,        0.0444335938,       17.1966552734,        0.2441406250,       25.1159667969
1489455821.6209878922,1489455821.6234030724,       -0.6997070312,        0.2919921875,        0.0444335938,       17.2729492188,        0.1678466797,       24.7802734375
1489455821.6236929893,1489455821.6261079311,       -0.7036132812,        0.2978515625,        0.0522460938,       17.2729492188,        0.1678466797,       24.7802734375
1489455821.6263990402,1489455821.6288540363,       -0.7036132812,        0.2978515625,        0.0522460938,       17.5628662109,        0.2746582031,       24.6429443359
1489455821.6291449070,1489455821.6315610409,       -0.7036132812,        0.2978515625,        0.0522460938,       17.5628662109,        0.2746582031,       24.6429443359
1489455821.6319599152,1489455821.6343801022,       -0.7036132812,        0.3051757812,        0.0263671875,       17.7917480469,        0.3662109375,       24.3835449219
1489455821.6346681118,1489455821.6370880604,       -0.7094726562,        0.3051757812,        0.0263671875,       17.7917480469,        0.3662109375,       24.3835449219
1489455821.6373779774,1489455821.6399619579,       -0.7094726562,        0.3051757812,        0.0263671875,       17.8375244141,        0.0915527344,       24.3225097656
1489455821.6402449608,1489455821.6425440311,       -0.7094726562,        0.3051757812,        0.0263671875,       17.8375244141,        0.0915527344,       24.3225097656
1489455821.6428260803,1489455821.6455531120,       -0.7026367188,        0.3242187500,        0.0356445312,       19.2108154297,       -0.1831054688,       24.9786376953
1489455821.6458549500,1489455821.6481630802,       -0.7026367188,        0.3242187500,        0.0356445312,       19.2108154297,       -0.1831054688,       24.9786376953
1489455821.6484479904,1489455821.6508069038,       -0.7026367188,        0.3242187500,        0.0356445312,       20.5841064453,       -0.7019042969,       25.4974365234
1489455821.6510889530,1489455821.6533789635,       -0.7026367188,        0.3242187500,        0.0356445312,       20.5841064453,       -0.7019042969,       25.4974365234
1489455821.6536600590,1489455821.6559519768,       -0.6967773438,        0.3251953125,        0.0322265625,       21.6369628906,       -1.1901855469,       25.1617431641
1489455821.6562321186,1489455821.6585159302,       -0.6967773438,        0.3251953125,        0.0322265625,       21.6369628906,       -1.1901855469,       25.1617431641
1489455821.6588430405,1489455821.6611330509,       -0.6967773438,        0.3251953125,        0.0322265625,       23.1170654297,       -1.1138916016,       25.9399414062
1489455821.6614139080,1489455821.6637010574,       -0.6967773438,        0.3251953125,        0.0322265625,       23.1170654297,       -1.1138916016,       25.9399414062
1489455821.6639819145,1489455821.6662650108,       -0.7177734375,        0.3164062500,        0.0146484375,       23.1170654297,       -0.6408691406,       26.9165039062
1489455821.6665470600,1489455821.6688809395,       -0.7177734375,        0.3164062500,        0.0146484375,       23.6816406250,       -0.6408691406,       26.9165039062
1489455821.6691648960,1489455821.6714498997,       -0.7177734375,        0.3164062500,        0.0146484375,       23.6816406250,       -0.6408691406,       27.7252197266
1489455821.6717309952,1489455821.6740159988,       -0.7177734375,        0.3164062500,        0.0029296875,       22.7203369141,       -0.3509521484,       27.7252197266
1489455821.6742980480,1489455821.6765940189,       -0.7280273438,        0.3027343750,        0.0029296875,       22.7203369141,       -0.3509521484,       29.0069580078
1489455821.6768760681,1489455821.6792109013,       -0.7280273438,        0.3027343750,        0.0029296875,       22.4151611328,        0.2288818359,       29.0069580078
1489455821.6794919968,1489455821.6817839146,       -0.7280273438,        0.3027343750,        0.0029296875,       22.4151611328,        0.2288818359,       29.0069580078
1489455821.6820669174,1489455821.6843559742,       -0.7280273438,        0.3027343750,        0.0234375000,       21.4843750000,        0.6561279297,       30.4412841797
1489455821.6846389771,1489455821.6869258881,       -0.7353515625,        0.2958984375,        0.0234375000,       21.4843750000,        0.6561279297,       30.4412841797
1489455821.6872088909,1489455821.6895699501,       -0.7353515625,        0.2958984375,        0.0234375000,       21.2249755859,        0.5340576172,       30.9295654297
1489455821.6898519993,1489455821.6921501160,       -0.7353515625,        0.2958984375,        0.0234375000,       21.2249755859,        0.5340576172,       30.9295654297
1489455821.6924309731,1489455821.6947240829,       -0.7353515625,        0.3134765625,        0.0351562500,       21.6979980469,        0.6713867188,       31.4025878906
1489455821.6951169968,1489455821.6974120140,       -0.7182617188,        0.3134765625,        0.0351562500,       21.6979980469,        0.6713867188,       31.4025878906
1489455821.6976940632,1489455821.7001879215,       -0.7182617188,        0.3134765625,        0.0351562500,       22.1405029297,        0.9460449219,       31.6162109375
1489455821.7004780769,1489455821.7028961182,       -0.7182617188,        0.3134765625,        0.0351562500,       22.1405029297,        0.9460449219,       31.6162109375
1489455821.7031860352,1489455821.7056050301,       -0.7104492188,        0.3281250000,        0.0332031250,       23.2238769531,        0.8239746094,       32.9742431641
1489455821.7058949471,1489455821.7083089352,       -0.7104492188,        0.3281250000,        0.0332031250,       23.2238769531,        0.8239746094,       32.9742431641
1489455821.7085978985,1489455821.7110579014,       -0.7104492188,        0.3281250000,        0.0332031250,       23.2696533203,        0.6103515625,       34.3475341797
1489455821.7113490105,1489455821.7137660980,       -0.7104492188,        0.3281250000,        0.0332031250,       23.2696533203,        0.6103515625,       34.3475341797
1489455821.7140560150,1489455821.7164700031,       -0.7231445312,        0.3281250000,        0.0361328125,       23.4832763672,        1.1291503906,       35.4766845703
1489455821.7167611122,1489455821.7192258835,       -0.7231445312,        0.3281250000,        0.0361328125,       23.4832763672,        1.1291503906,       35.4766845703
1489455821.7195150852,1489455821.7219278812,       -0.7231445312,        0.3281250000,        0.0361328125,       25.2380371094,        1.6784667969,       35.3546142578
1489455821.7222170830,1489455821.7246398926,       -0.7231445312,        0.3281250000,        0.0327148438,       25.2380371094,        1.6784667969,       35.3546142578
1489455821.7249300480,1489455821.7273418903,       -0.7226562500,        0.3261718750,        0.0327148438,       26.4434814453,        1.8615722656,       36.2548828125
1489455821.7276310921,1489455821.7300589085,       -0.7226562500,        0.3261718750,        0.0327148438,       26.4434814453,        1.8615722656,       36.2548828125
1489455821.7303481102,1489455821.7327671051,       -0.7226562500,        0.3261718750,        0.0327148438,       27.3437500000,        2.6245117188,       37.3229980469
1489455821.7330551147,1489455821.7354719639,       -0.7226562500,        0.3276367188,        0.0356445312,       27.3437500000,        2.6245117188,       37.3229980469
1489455821.7357599735,1489455821.7381770611,       -0.7280273438,        0.3276367188,        0.0356445312,       27.4963378906,        3.7536621094,       38.1774902344
1489455821.7384660244,1489455821.7407960892,       -0.7280273438,        0.3276367188,        0.0356445312,       27.4963378906,        3.7536621094,       38.1774902344
1489455821.7410769463,1489455821.7433650494,       -0.7280273438,        0.3276367188,        0.0356445312,       26.8249511719,        4.8065185547,       39.7644042969
1489455821.7436459064,1489455821.7459459305,       -0.7563476562,        0.3095703125,        0.0336914062,       26.8249511719,        4.8065185547,       39.7644042969
1489455821.7462270260,1489455821.7485170364,       -0.7563476562,        0.3095703125,        0.0336914062,       26.4129638672,        6.4392089844,       40.9851074219
1489455821.7488329411,1489455821.7511260509,       -0.7563476562,        0.3095703125,        0.0336914062,       26.4129638672,        6.4392089844,       40.9851074219
1489455821.7514069080,1489455821.7537059784,       -0.7563476562,        0.3095703125,        0.0336914062,       25.4821777344,        7.4615478516,       42.2058105469
1489455821.7539858818,1489455821.7564470768,       -0.7778320312,        0.3051757812,        0.0522460938,       25.4821777344,        7.4615478516,       42.2058105469
1489455821.7567288876,1489455821.7594590187,       -0.7778320312,        0.3051757812,        0.0522460938,       25.4821777344,        8.6669921875,       44.2199707031
1489455821.7598550320,1489455821.7622749805,       -0.7778320312,        0.3051757812,        0.0522460938,       24.3835449219,        8.6669921875,       44.2199707031
1489455821.7625639439,1489455821.7649729252,       -0.7778320312,        0.3051757812,        0.0571289062,       23.3154296875,        9.5825195312,       45.9747314453
1489455821.7652618885,1489455821.7676870823,       -0.8007812500,        0.3100585938,        0.0571289062,       23.3154296875,        9.5825195312,       45.9747314453
1489455821.7679750919,1489455821.7704410553,       -0.8007812500,        0.3100585938,        0.0571289062,       23.0865478516,        9.7351074219,       48.0194091797
1489455821.7707309723,1489455821.7731540203,       -0.8007812500,        0.3100585938,        0.0571289062,       23.0865478516,        9.7351074219,       48.0194091797
1489455821.7734429836,1489455821.7758569717,       -0.8007812500,        0.3164062500,        0.0639648438,       24.2156982422,        9.5977783203,       50.2319335938
1489455821.7761459351,1489455821.7785589695,       -0.8037109375,        0.3164062500,        0.0639648438,       24.2156982422,        9.5977783203,       50.2319335938
1489455821.7788569927,1489455821.7812778950,       -0.8037109375,        0.3164062500,        0.0639648438,       25.2380371094,        9.3994140625,       52.4597167969
1489455821.7815670967,1489455821.7839870453,       -0.8037109375,        0.3164062500,        0.0639648438,       25.2380371094,        9.3994140625,       52.4597167969
1489455821.7842769623,1489455821.7866959572,       -0.8085937500,        0.3095703125,        0.0649414062,       25.3906250000,        8.3770751953,       53.8482666016
1489455821.7869870663,1489455821.7894198895,       -0.8085937500,        0.3095703125,        0.0649414062,       25.3906250000,        8.3770751953,       53.8482666016
1489455821.7897019386,1489455821.7919950485,       -0.8085937500,        0.3095703125,        0.0649414062,       25.8941650391,        7.7362060547,       55.5572509766
1489455821.7922759056,1489455821.7945680618,       -0.8085937500,        0.3095703125,        0.0649414062,       25.8941650391,        7.7362060547,       55.5572509766
1489455821.7948489189,1489455821.7971420288,       -0.8286132812,        0.3125000000,        0.0361328125,       26.7486572266,        7.7362060547,       57.4493408203
1489455821.7974228859,1489455821.7997229099,       -0.8286132812,        0.3125000000,        0.0361328125,       26.7486572266,        7.7362060547,       57.4493408203
1489455821.8000030518,1489455821.8023018837,       -0.8286132812,        0.3125000000,        0.0361328125,       26.7486572266,        7.0190429688,       59.5550537109
1489455821.8025829792,1489455821.8048748970,       -0.8286132812,        0.3125000000,        0.0361328125,       26.6723632812,        7.0190429688,       59.5550537109
1489455821.8051550388,1489455821.8074479103,       -0.8452148438,        0.3154296875,        0.0180664062,       26.6723632812,        7.0190429688,       61.9964599609
1489455821.8077299595,1489455821.8101699352,       -0.8452148438,        0.3154296875,        0.0180664062,       27.4505615234,        6.5612792969,       61.9964599609
1489455821.8104529381,1489455821.8127470016,       -0.8452148438,        0.3154296875,        0.0180664062,       27.4505615234,        6.5612792969,       63.8122558594
1489455821.8130300045,1489455821.8153240681,       -0.8452148438,        0.3154296875,        0.0180664062,       27.6794433594,        5.6304931641,       63.8122558594
1489455821.8156070709,1489455821.8179020882,       -0.8750000000,        0.2949218750,        0.0229492188,       27.6794433594,        5.6304931641,       63.8122558594
1489455821.8181819916,1489455821.8205919266,       -0.8750000000,        0.2949218750,        0.0229492188,       27.9235839844,        4.2114257812,       65.6127929688
1489455821.8208820820,1489455821.8233029842,       -0.8750000000,        0.2949218750,        0.0229492188,       27.9235839844,        4.2114257812,       65.6127929688
1489455821.8235919476,1489455821.8260018826,       -0.8750000000,        0.2949218750,        0.0200195312,       28.8085937500,        2.6855468750,       67.8558349609
1489455821.8264050484,1489455821.8288319111,       -0.8940429688,        0.2910156250,        0.0200195312,       28.8085937500,        2.6855468750,       67.8558349609
1489455821.8291170597,1489455821.8314108849,       -0.8940429688,        0.2910156250,        0.0200195312,       29.0679931641,        1.4648437500,       70.2209472656
1489455821.8316950798,1489455821.8339850903,       -0.8940429688,        0.2910156250,        0.0200195312,       29.0679931641,        1.4648437500,       70.2209472656
1489455821.8342659473,1489455821.8365609646,       -0.9067382812,        0.3208007812,        0.0039062500,       29.3273925781,        0.2288818359,       72.4487304688
1489455821.8368439674,1489455821.8391408920,       -0.9067382812,        0.3208007812,        0.0039062500,       29.3273925781,        0.2288818359,       72.4487304688
1489455821.8394238949,1489455821.8417110443,       -0.9067382812,        0.3208007812,        0.0039062500,       30.3039550781,       -0.6103515625,       74.3255615234
1489455821.8419940472,1489455821.8444390297,       -0.9067382812,        0.3208007812,        0.0039062500,       30.3039550781,       -0.6103515625,       74.3255615234
1489455821.8447248936,1489455821.8470098972,       -0.9199218750,        0.3222656250,       -0.0043945312,       31.8908691406,       -1.6479492188,       75.8056640625
1489455821.8472929001,1489455821.8497850895,       -0.9199218750,        0.3222656250,       -0.0043945312,       31.8908691406,       -1.6479492188,       75.8056640625
1489455821.8500680923,1489455821.8523590565,       -0.9199218750,        0.3222656250,       -0.0043945312,       33.2489013672,       -3.3874511719,       77.1331787109
1489455821.8526411057,1489455821.8552680016,       -0.9199218750,        0.3222656250,       -0.0043945312,       33.2489013672,       -3.3874511719,       77.1331787109
1489455821.8555660248,1489455821.8578679562,       -0.9111328125,        0.3227539062,        0.0117187500,       35.0341796875,       -6.0119628906,       78.5522460938
1489455821.8581531048,1489455821.8604540825,       -0.9111328125,        0.3227539062,        0.0117187500,       35.0341796875,       -6.0119628906,       78.5522460938
1489455821.8607370853,1489455821.8630249500,       -0.9111328125,        0.3227539062,        0.0117187500,       38.4368896484,       -7.8582763672,       79.2999267578
1489455821.8633060455,1489455821.8656029701,       -0.9111328125,        0.3227539062,        0.0117187500,       38.4368896484,       -7.8582763672,       79.2999267578
1489455821.8658831120,1489455821.8681690693,       -0.9331054688,        0.3188476562,        0.0449218750,       42.0989990234,       -9.9639892578,       79.2541503906
1489455821.8684539795,1489455821.8707880974,       -0.9331054688,        0.3188476562,        0.0449218750,       42.0989990234,       -9.9639892578,       79.2541503906
1489455821.8710689545,1489455821.8733549118,       -0.9331054688,        0.3188476562,        0.0449218750,       45.4406738281,      -11.9018554688,       78.5980224609
1489455821.8736410141,1489455821.8759250641,       -0.9331054688,        0.3188476562,        0.0449218750,       45.4406738281,      -11.9018554688,       78.5980224609
1489455821.8762090206,1489455821.8785998821,       -0.9619140625,        0.3041992188,        0.0405273438,       45.4406738281,      -13.8702392578,       78.6285400391
1489455821.8788869381,1489455821.8811740875,       -0.9619140625,        0.3041992188,        0.0405273438,       49.2095947266,      -13.8702392578,       78.6285400391
1489455821.8814589977,1489455821.8837471008,       -0.9619140625,        0.3041992188,        0.0405273438,       49.2095947266,      -17.7764892578,       79.2541503906
1489455821.8840310574,1489455821.8863220215,       -0.9619140625,        0.3041992188,        0.0590820312,       51.8341064453,      -15.9912109375,       79.2541503906
1489455821.8866078854,1489455821.8890349865,       -0.9697265625,        0.3017578125,        0.0590820312,       51.8341064453,      -15.9912109375,       78.8726806641
1489455821.8894309998,1489455821.8917229176,       -0.9697265625,        0.3017578125,        0.0590820312,       53.6651611328,      -17.6391601562,       78.8726806641
1489455821.8920080662,1489455821.8943018913,       -0.9697265625,        0.3017578125,        0.0590820312,       53.6651611328,      -17.6391601562,       78.6590576172
1489455821.8945860863,1489455821.8968698978,       -0.9697265625,        0.2998046875,        0.0683593750,       56.6253662109,      -18.5394287109,       78.6590576172
1489455821.8971529007,1489455821.8995690346,       -0.9399414062,        0.2998046875,        0.0683593750,       56.6253662109,      -18.5394287109,       74.7528076172
1489455821.8998548985,1489455821.9021470547,       -0.9399414062,        0.2998046875,        0.0683593750,       54.3212890625,      -20.2941894531,       76.8280029297
1489455821.9024329185,1489455821.9047210217,       -0.9399414062,        0.2998046875,        0.0683593750,       54.3212890625,      -20.2941894531,       76.8280029297
