time_stamp before, time_stamp after, Acceleration x, Acceleration y, Acceleration z, Gyro x, Gyro y, Gyro z
1489455880.0209860802,1489455880.0327770710,       -0.7280273438,        0.1733398438,       -0.0029296875,       -3.9672851562,        3.5858154297,        4.2114257812
1489455880.0330760479,1489455880.0359020233,       -0.7280273438,        0.1733398438,       -0.0029296875,       -4.0130615234,        3.5400390625,        5.0659179688
1489455880.0361979008,1489455880.0384829044,       -0.7324218750,        0.1708984375,       -0.0097656250,       -4.0130615234,        3.5400390625,        5.8746337891
1489455880.0387570858,1489455880.0410490036,       -0.7324218750,        0.1708984375,       -0.0097656250,       -3.7231445312,        4.1503906250,        5.8746337891
1489455880.0413210392,1489455880.0436069965,       -0.7324218750,        0.1708984375,       -0.0097656250,       -3.7231445312,        4.1503906250,        5.8746337891
1489455880.0438780785,1489455880.0461640358,       -0.7324218750,        0.1708984375,       -0.0097656250,       -2.6855468750,        4.5776367188,        6.8817138672
1489455880.0464329720,1489455880.0487160683,       -0.7358398438,        0.1699218750,       -0.0014648438,       -2.6855468750,        4.5776367188,        6.8817138672
1489455880.0490570068,1489455880.0513339043,       -0.7358398438,        0.1699218750,       -0.0014648438,       -1.2512207031,        3.8146972656,        7.8277587891
1489455880.0516049862,1489455880.0538909435,       -0.7358398438,        0.1699218750,       -0.0014648438,       -1.2512207031,        3.8146972656,        7.8277587891
1489455880.0541610718,1489455880.0564401150,       -0.7358398438,        0.1699218750,       -0.0014648438,        0.9002685547,        3.3416748047,        8.7127685547
1489455880.0567131042,1489455880.0591800213,       -0.7416992188,        0.1674804688,       -0.0053710938,        0.9002685547,        3.3416748047,        8.7127685547
1489455880.0594530106,1489455880.0617361069,       -0.7416992188,        0.1674804688,       -0.0053710938,        2.5634765625,        3.1585693359,        9.4909667969
1489455880.0620079041,1489455880.0642910004,       -0.7416992188,        0.1674804688,       -0.0053710938,        2.5634765625,        3.1585693359,        9.4909667969
1489455880.0645630360,1489455880.0668430328,       -0.7416992188,        0.1674804688,       -0.0063476562,        2.5939941406,        2.9602050781,       10.7727050781
1489455880.0671179295,1489455880.0695550442,       -0.7421875000,        0.1635742188,       -0.0063476562,        2.5939941406,        2.9602050781,       10.7727050781
1489455880.0698308945,1489455880.0721189976,       -0.7421875000,        0.1635742188,       -0.0063476562,        3.0517578125,        2.6397705078,       11.4440917969
1489455880.0723969936,1489455880.0746870041,       -0.7421875000,        0.1635742188,       -0.0063476562,        3.0517578125,        2.6397705078,       11.4440917969
1489455880.0749659538,1489455880.0772509575,       -0.7421875000,        0.1635742188,       -0.0092773438,        3.0517578125,        2.3345947266,       12.5732421875
1489455880.0775289536,1489455880.0799040794,       -0.7495117188,        0.1684570312,       -0.0092773438,        3.6621093750,        2.3345947266,       12.5732421875
1489455880.0801830292,1489455880.0824759007,       -0.7495117188,        0.1684570312,       -0.0092773438,        3.6621093750,        1.7700195312,       14.3127441406
1489455880.0827538967,1489455880.0850410461,       -0.7495117188,        0.1684570312,       -0.0092773438,        4.0435791016,        1.7700195312,       14.3127441406
1489455880.0853190422,1489455880.0876119137,       -0.7495117188,        0.1757812500,       -0.0146484375,        4.0435791016,        1.7700195312,       16.0217285156
1489455880.0878939629,1489455880.0902929306,       -0.7402343750,        0.1757812500,       -0.0146484375,        4.1351318359,        1.3885498047,       16.0217285156
1489455880.0905759335,1489455880.0929749012,       -0.7402343750,        0.1757812500,       -0.0146484375,        4.1351318359,        1.3885498047,       16.9830322266
1489455880.0934219360,1489455880.0958209038,       -0.7402343750,        0.1757812500,       -0.0146484375,        4.2266845703,        1.3122558594,       16.9830322266
1489455880.0961039066,1489455880.0985059738,       -0.7343750000,        0.1860351562,       -0.0156250000,        4.2266845703,        1.3122558594,       17.9290771484
1489455880.0988299847,1489455880.1012101173,       -0.7343750000,        0.1860351562,       -0.0156250000,        5.6457519531,        1.4038085938,       17.9290771484
1489455880.1014940739,1489455880.1038720608,       -0.7343750000,        0.1860351562,       -0.0156250000,        5.6457519531,        1.4038085938,       19.0429687500
1489455880.1041560173,1489455880.1065399647,       -0.7343750000,        0.1860351562,       -0.0156250000,        6.5002441406,        1.1749267578,       19.0429687500
1489455880.1068220139,1489455880.1093430519,       -0.7290039062,        0.1889648438,       -0.0043945312,        6.5002441406,        1.1749267578,       19.5159912109
1489455880.1096320152,1489455880.1120569706,       -0.7290039062,        0.1889648438,       -0.0043945312,        7.7362060547,        0.9918212891,       19.5159912109
1489455880.1123430729,1489455880.1147620678,       -0.7290039062,        0.1889648438,       -0.0043945312,        7.7362060547,        0.9918212891,       20.2026367188
1489455880.1150488853,1489455880.1174700260,       -0.7290039062,        0.1889648438,       -0.0126953125,        8.8653564453,        0.7781982422,       20.2026367188
1489455880.1177570820,1489455880.1201219559,       -0.7329101562,        0.1953125000,       -0.0126953125,        8.8653564453,        0.7781982422,       20.5078125000
1489455880.1204009056,1489455880.1226930618,       -0.7329101562,        0.1953125000,       -0.0126953125,        9.0179443359,        1.0070800781,       20.5078125000
1489455880.1229710579,1489455880.1254870892,       -0.7329101562,        0.1953125000,       -0.0126953125,        9.0179443359,        1.0070800781,       20.5078125000
1489455880.1257660389,1489455880.1280601025,       -0.8579101562,        0.1938476562,       -0.0043945312,        8.3465576172,        0.9765625000,       20.6451416016
1489455880.1283400059,1489455880.1310830116,       -0.7514648438,        0.1938476562,       -0.0043945312,        8.3465576172,        0.9765625000,       21.8505859375
1489455880.1313719749,1489455880.1337881088,       -0.7514648438,        0.1938476562,       -0.0043945312,        7.9498291016,        1.2207031250,       21.8505859375
1489455880.1340739727,1489455880.1364929676,       -0.7514648438,        0.1938476562,       -0.0043945312,        7.9498291016,        1.2207031250,       22.3846435547
1489455880.1367790699,1489455880.1392469406,       -0.7412109375,        0.1835937500,        0.0087890625,        8.3160400391,        1.2969970703,       22.3846435547
1489455880.1395339966,1489455880.1419448853,       -0.7412109375,        0.1835937500,        0.0087890625,        8.3160400391,        1.2969970703,       22.8881835938
1489455880.1422319412,1489455880.1446449757,       -0.7412109375,        0.1835937500,        0.0087890625,        8.5449218750,        1.4190673828,       22.8881835938
1489455880.1449320316,1489455880.1473529339,       -0.7412109375,        0.1835937500,        0.0087890625,        8.5449218750,        1.4190673828,       23.1475830078
1489455880.1476399899,1489455880.1500689983,       -0.7431640625,        0.1840820312,        0.0107421875,        8.3770751953,        1.6021728516,       23.1475830078
1489455880.1503551006,1489455880.1527700424,       -0.7431640625,        0.1840820312,        0.0107421875,        8.3770751953,        1.6021728516,       23.5443115234
1489455880.1530559063,1489455880.1554689407,       -0.7431640625,        0.1840820312,        0.0107421875,        8.6822509766,        1.9683837891,       23.5443115234
1489455880.1557559967,1489455880.1581780910,       -0.7431640625,        0.1904296875,        0.0209960938,        8.6822509766,        1.9683837891,       24.5208740234
1489455880.1585741043,1489455880.1609270573,       -0.7480468750,        0.1904296875,        0.0209960938,        9.7656250000,        2.1972656250,       24.5208740234
1489455880.1612069607,1489455880.1635038853,       -0.7480468750,        0.1904296875,        0.0209960938,        9.7656250000,        2.1972656250,       24.5208740234
1489455880.1637840271,1489455880.1660840511,       -0.7480468750,        0.1904296875,        0.0209960938,       11.4440917969,        2.1972656250,       25.2532958984
1489455880.1663649082,1489455880.1686589718,       -0.7597656250,        0.1557617188,        0.0102539062,       11.4440917969,        2.1972656250,       25.2532958984
1489455880.1689379215,1489455880.1712310314,       -0.7597656250,        0.1557617188,        0.0102539062,       10.9863281250,        2.2277832031,       26.1077880859
1489455880.1715140343,1489455880.1737999916,       -0.7597656250,        0.1557617188,        0.0102539062,       10.9863281250,        2.2277832031,       26.1077880859
1489455880.1740810871,1489455880.1763749123,       -0.7597656250,        0.1557617188,        0.0102539062,       10.7116699219,        2.1209716797,       26.9012451172
1489455880.1766569614,1489455880.1790819168,       -0.7729492188,        0.1616210938,        0.0190429688,       10.7116699219,        2.1209716797,       26.9012451172
1489455880.1793859005,1489455880.1816871166,       -0.7729492188,        0.1616210938,        0.0190429688,       11.4746093750,        2.7160644531,       27.0843505859
1489455880.1819698811,1489455880.1842560768,       -0.7729492188,        0.1616210938,        0.0190429688,       11.4746093750,        2.7160644531,       27.0843505859
1489455880.1845359802,1489455880.1868340969,       -0.7729492188,        0.1616210938,        0.0190429688,       11.6882324219,        2.9907226562,       27.7557373047
1489455880.1871149540,1489455880.1896109581,       -0.7832031250,        0.2133789062,        0.0073242188,       11.6882324219,        2.9907226562,       27.7557373047
1489455880.1899030209,1489455880.1923120022,       -0.7832031250,        0.2133789062,        0.0073242188,       12.9089355469,        3.2348632812,       28.3050537109
1489455880.1926019192,1489455880.1950030327,       -0.7832031250,        0.2133789062,        0.0073242188,       12.9089355469,        3.2348632812,       28.3050537109
1489455880.1952910423,1489455880.1976890564,       -0.7832031250,        0.2133789062,        0.0073242188,       13.4277343750,        3.7994384766,       29.1748046875
1489455880.1979780197,1489455880.2004160881,       -0.7773437500,        0.2128906250,        0.0083007812,       13.4277343750,        3.7994384766,       29.1748046875
1489455880.2007040977,1489455880.2030849457,       -0.7773437500,        0.2128906250,        0.0083007812,       13.7939453125,        4.1503906250,       29.2510986328
1489455880.2033720016,1489455880.2057569027,       -0.7773437500,        0.2128906250,        0.0083007812,       13.7939453125,        4.1503906250,       29.2510986328
1489455880.2060430050,1489455880.2084310055,       -0.7773437500,        0.2128906250,       -0.0034179688,       14.5111083984,        4.0283203125,       29.0069580078
1489455880.2087380886,1489455880.2111589909,       -0.7841796875,        0.2124023438,       -0.0034179688,       14.5111083984,        4.0283203125,       29.0069580078
1489455880.2115368843,1489455880.2138459682,       -0.7841796875,        0.2124023438,       -0.0034179688,       14.7094726562,        4.6539306641,       28.9611816406
1489455880.2141289711,1489455880.2164199352,       -0.7841796875,        0.2124023438,       -0.0034179688,       14.7094726562,        4.6539306641,       28.9611816406
1489455880.2167029381,1489455880.2191929817,       -0.7841796875,        0.2280273438,       -0.0195312500,       14.6942138672,        4.5623779297,       28.6407470703
1489455880.2194819450,1489455880.2218749523,       -0.7626953125,        0.2280273438,       -0.0195312500,       14.6942138672,        4.5623779297,       28.6407470703
1489455880.2222740650,1489455880.2252678871,       -0.7626953125,        0.2280273438,       -0.0195312500,       14.5874023438,        4.0893554688,       29.0069580078
1489455880.2255520821,1489455880.2278420925,       -0.7626953125,        0.2280273438,       -0.0195312500,       14.5874023438,        4.0893554688,       29.0069580078
1489455880.2281239033,1489455880.2305290699,       -0.7548828125,        0.2392578125,       -0.0229492188,       15.3045654297,        4.0130615234,       28.6712646484
1489455880.2308120728,1489455880.2330999374,       -0.7548828125,        0.2392578125,       -0.0229492188,       15.3045654297,        4.0130615234,       28.6712646484
1489455880.2333810329,1489455880.2356739044,       -0.7548828125,        0.2392578125,       -0.0229492188,       16.4947509766,        4.0130615234,       28.6407470703
1489455880.2359569073,1489455880.2382369041,       -0.7548828125,        0.2392578125,       -0.0229492188,       16.4947509766,        4.0130615234,       28.6407470703
1489455880.2385199070,1489455880.2408161163,       -0.7485351562,        0.2436523438,       -0.0205078125,       16.2658691406,        4.2724609375,       27.9693603516
1489455880.2410979271,1489455880.2433960438,       -0.7485351562,        0.2436523438,       -0.0205078125,       16.2658691406,        4.2724609375,       27.9693603516
1489455880.2436790466,1489455880.2459669113,       -0.7485351562,        0.2436523438,       -0.0205078125,       16.2658691406,        3.9825439453,       27.4505615234
1489455880.2462480068,1489455880.2485420704,       -0.7485351562,        0.2436523438,       -0.0195312500,       16.0522460938,        3.9825439453,       27.4505615234
1489455880.2488579750,1489455880.2511529922,       -0.7539062500,        0.2421875000,       -0.0195312500,       16.0522460938,        3.5247802734,       27.7404785156
1489455880.2514340878,1489455880.2537229061,       -0.7539062500,        0.2421875000,       -0.0195312500,       15.4266357422,        3.5247802734,       27.7404785156
1489455880.2540049553,1489455880.2562980652,       -0.7539062500,        0.2421875000,       -0.0195312500,       15.4266357422,        3.5247802734,       27.1759033203
1489455880.2565789223,1489455880.2588899136,       -0.7539062500,        0.3671875000,       -0.0239257812,       13.9160156250,        3.8452148438,       27.1759033203
1489455880.2591719627,1489455880.2614591122,       -0.7617187500,        0.2500000000,       -0.0239257812,       13.9160156250,        3.8452148438,       27.1759033203
1489455880.2617399693,1489455880.2640330791,       -0.7617187500,        0.2500000000,       -0.0239257812,       12.1917724609,        3.5858154297,       26.9012451172
1489455880.2643148899,1489455880.2666020393,       -0.7617187500,        0.2500000000,       -0.0239257812,       12.1917724609,        3.5858154297,       26.9012451172
1489455880.2668828964,1489455880.2693469524,       -0.7617187500,        0.2392578125,       -0.0200195312,       10.9405517578,        3.1585693359,       27.0843505859
1489455880.2696280479,1489455880.2719230652,       -0.7524414062,        0.2392578125,       -0.0200195312,       10.9405517578,        3.1585693359,       27.0843505859
1489455880.2722039223,1489455880.2744960785,       -0.7524414062,        0.2392578125,       -0.0200195312,       10.5590820312,        2.8839111328,       27.1759033203
1489455880.2747759819,1489455880.2770678997,       -0.7524414062,        0.2392578125,       -0.0200195312,       10.5590820312,        2.8839111328,       27.1759033203
1489455880.2773489952,1489455880.2798459530,       -0.7465820312,        0.2358398438,       -0.0219726562,       10.4370117188,        2.9907226562,       27.1301269531
1489455880.2801311016,1489455880.2824249268,       -0.7465820312,        0.2358398438,       -0.0219726562,       10.4370117188,        2.9907226562,       27.1301269531
1489455880.2827060223,1489455880.2850010395,       -0.7465820312,        0.2358398438,       -0.0219726562,        9.9334716797,        3.3416748047,       26.9012451172
1489455880.2853980064,1489455880.2876830101,       -0.7465820312,        0.2358398438,       -0.0219726562,        9.9334716797,        3.3416748047,       26.9012451172
1489455880.2879610062,1489455880.2903430462,       -0.7451171875,        0.2451171875,       -0.0258789062,        9.8571777344,        3.4942626953,       26.9317626953
1489455880.2906219959,1489455880.2929160595,       -0.7451171875,        0.2451171875,       -0.0258789062,        9.8571777344,        3.4942626953,       26.9317626953
1489455880.2931940556,1489455880.2954831123,       -0.7451171875,        0.2451171875,       -0.0258789062,       10.0250244141,        3.4332275391,       27.5421142578
1489455880.2957661152,1489455880.2980630398,       -0.7451171875,        0.2451171875,       -0.0258789062,       10.0250244141,        3.4332275391,       27.5421142578
1489455880.2983450890,1489455880.3007390499,       -0.7431640625,        0.2480468750,       -0.0332031250,       10.0555419922,        3.7078857422,       27.9083251953
1489455880.3010220528,1489455880.3033139706,       -0.7431640625,        0.2480468750,       -0.0332031250,       10.0555419922,        3.7078857422,       27.9083251953
1489455880.3035960197,1489455880.3058829308,       -0.7431640625,        0.2480468750,       -0.0332031250,       10.0555419922,        4.2724609375,       28.2287597656
1489455880.3061649799,1489455880.3084490299,       -0.7431640625,        0.2480468750,       -0.0332031250,        9.9945068359,        4.2724609375,       28.2287597656
1489455880.3087260723,1489455880.3111469746,       -0.7373046875,        0.2475585938,       -0.0244140625,        9.9945068359,        4.6691894531,       28.7933349609
1489455880.3114280701,1489455880.3137199879,       -0.7373046875,        0.2475585938,       -0.0244140625,       10.4522705078,        4.6691894531,       28.7933349609
1489455880.3140010834,1489455880.3162839413,       -0.7373046875,        0.2475585938,       -0.0244140625,       10.4522705078,        4.6691894531,       28.5186767578
1489455880.3165659904,1489455880.3188850880,       -0.7373046875,        0.2475585938,       -0.0244140625,       10.1776123047,        4.8522949219,       28.5186767578
1489455880.3191730976,1489455880.3215980530,       -0.7465820312,        0.2436523438,       -0.0117187500,       10.1776123047,        4.8522949219,       27.8167724609
1489455880.3218879700,1489455880.3242909908,       -0.7465820312,        0.2436523438,       -0.0117187500,        8.7585449219,        5.1727294922,       27.8167724609
1489455880.3245739937,1489455880.3269801140,       -0.7465820312,        0.2436523438,       -0.0117187500,        8.7585449219,        5.1727294922,       27.1148681641
1489455880.3272650242,1489455880.3296830654,       -0.7465820312,        0.3686523438,       -0.0151367188,        6.1035156250,        5.1879882812,       27.1148681641
1489455880.3299679756,1489455880.3323860168,       -0.7622070312,        0.2514648438,       -0.0151367188,        6.1035156250,        5.1879882812,       26.8096923828
1489455880.3326730728,1489455880.3351740837,       -0.7622070312,        0.2514648438,       -0.0151367188,        4.0893554688,        5.5541992188,       26.8096923828
1489455880.3356180191,1489455880.3380279541,       -0.7622070312,        0.2514648438,       -0.0151367188,        4.0893554688,        5.5541992188,       26.9012451172
1489455880.3383140564,1489455880.3411529064,       -0.7509765625,        0.2539062500,       -0.0004882812,        2.9144287109,        5.7830810547,       26.9012451172
1489455880.3414409161,1489455880.3438580036,       -0.7509765625,        0.2539062500,       -0.0004882812,        2.9144287109,        5.5847167969,       26.9622802734
1489455880.3441441059,1489455880.3465690613,       -0.7509765625,        0.2539062500,       -0.0004882812,        1.9378662109,        5.5847167969,       26.9622802734
1489455880.3468539715,1489455880.3492789268,       -0.7509765625,        0.2539062500,        0.1245117188,        1.9378662109,        5.9051513672,       26.1535644531
1489455880.3496730328,1489455880.3520948887,       -0.7597656250,        0.2456054688,        0.0087890625,        0.3204345703,        5.9051513672,       26.1535644531
1489455880.3523809910,1489455880.3548009396,       -0.7597656250,        0.2456054688,        0.0087890625,       -3.5858154297,        6.4239501953,       26.4282226562
1489455880.3550870419,1489455880.3575010300,       -0.7597656250,        0.2456054688,        0.0087890625,       -2.1057128906,        6.4239501953,       26.4282226562
1489455880.3577880859,1489455880.3602509499,       -0.7597656250,        0.2592773438,        0.0278320312,       -6.0119628906,        5.6457519531,       27.2674560547
1489455880.3605349064,1489455880.3629579544,       -0.7495117188,        0.2592773438,        0.0278320312,       -3.9367675781,        5.6457519531,       27.2674560547
1489455880.3632419109,1489455880.3656508923,       -0.7495117188,        0.2592773438,        0.0278320312,       -3.9367675781,        4.9438476562,       28.5491943359
1489455880.3659360409,1489455880.3683569431,       -0.7495117188,        0.2592773438,        0.0278320312,       -4.2114257812,        4.9438476562,       28.5491943359
1489455880.3686439991,1489455880.3709530830,       -0.7260742188,        0.2802734375,        0.0424804688,       -4.2114257812,        4.7454833984,       29.9530029297
1489455880.3712298870,1489455880.3735220432,       -0.7260742188,        0.2802734375,        0.0424804688,       -3.5552978516,        4.7454833984,       29.9530029297
1489455880.3738009930,1489455880.3760929108,       -0.7260742188,        0.2802734375,        0.0424804688,       -3.5552978516,        4.7454833984,       31.2042236328
1489455880.3763709068,1489455880.3786659241,       -0.7260742188,        0.2802734375,        0.0424804688,       -2.5939941406,        4.2114257812,       31.2042236328
1489455880.3789420128,1489455880.3812389374,       -0.7050781250,        0.2875976562,        0.0449218750,       -2.5939941406,        4.2114257812,       35.1104736328
1489455880.3815178871,1489455880.3838090897,       -0.7050781250,        0.2875976562,        0.0449218750,       -0.7781982422,        3.1280517578,       32.1960449219
1489455880.3840870857,1489455880.3863799572,       -0.7050781250,        0.2875976562,        0.0449218750,       -0.7781982422,        3.1280517578,       32.1960449219
1489455880.3866579533,1489455880.3889999390,       -0.7050781250,        0.2875976562,        0.0449218750,        1.1901855469,        1.7242431641,       33.5998535156
1489455880.3892779350,1489455880.3915760517,       -0.7041015625,        0.2993164062,        0.0673828125,        1.1901855469,        1.7242431641,       33.5998535156
1489455880.3918530941,1489455880.3941469193,       -0.7041015625,        0.2993164062,        0.0673828125,        3.5095214844,        0.6256103516,       34.8052978516
1489455880.3944249153,1489455880.3967230320,       -0.7041015625,        0.2993164062,        0.0673828125,        3.5095214844,        0.6256103516,       34.8052978516
1489455880.3970019817,1489455880.3994040489,       -0.7041015625,        0.2993164062,        0.0673828125,        5.4016113281,       -0.3356933594,       34.6374511719
1489455880.3996920586,1489455880.4021120071,       -0.7089843750,        0.2753906250,        0.0458984375,        5.4016113281,       -0.3356933594,       34.6374511719
1489455880.4023969173,1489455880.4048159122,       -0.7089843750,        0.2753906250,        0.0458984375,        6.9274902344,       -1.3427734375,       33.5845947266
1489455880.4051020145,1489455880.4075169563,       -0.7089843750,        0.2753906250,        0.0458984375,        6.9274902344,       -1.3427734375,       33.5845947266
1489455880.4078021049,1489455880.4101920128,       -0.7089843750,        0.2753906250,        0.0410156250,        8.6517333984,       -2.4261474609,       32.2723388672
1489455880.4104709625,1489455880.4127640724,       -0.6992187500,        0.2153320312,        0.0410156250,        8.6517333984,       -2.4261474609,       32.2723388672
1489455880.4131429195,1489455880.4154350758,       -0.6992187500,        0.2153320312,        0.0410156250,       11.7034912109,       -3.6163330078,       29.7851562500
1489455880.4157180786,1489455880.4180181026,       -0.6992187500,        0.2153320312,        0.0410156250,       11.7034912109,       -3.6163330078,       29.7851562500
1489455880.4182989597,1489455880.4207110405,       -0.6992187500,        0.0766601562,        0.0214843750,       15.8843994141,       -4.9896240234,       26.2451171875
1489455880.4209990501,1489455880.4234080315,       -0.6752929688,        0.0766601562,        0.0214843750,       15.8843994141,       -4.9896240234,       26.2451171875
1489455880.4236960411,1489455880.4261119366,       -0.6752929688,        0.0766601562,        0.0214843750,       19.7906494141,       -6.5307617188,       21.7285156250
1489455880.4264008999,1489455880.4288280010,       -0.6752929688,        0.0766601562,        0.0214843750,       19.7906494141,       -6.5307617188,       21.7285156250
1489455880.4291179180,1489455880.4315409660,       -0.6396484375,       -0.0380859375,        0.0122070312,       22.7050781250,       -8.0413818359,       16.8151855469
1489455880.4318320751,1489455880.4342501163,       -0.6396484375,       -0.0380859375,        0.0122070312,       22.7050781250,       -8.0413818359,       16.8151855469
1489455880.4345390797,1489455880.4369549751,       -0.6396484375,       -0.0380859375,        0.0122070312,       26.1688232422,       -9.1400146484,       12.5427246094
1489455880.4372420311,1489455880.4396779537,       -0.6396484375,       -0.0380859375,        0.0122070312,       26.1688232422,       -9.1400146484,       12.5427246094
1489455880.4399659634,1489455880.4423809052,       -0.6245117188,        0.0063476562,       -0.0229492188,       29.0527343750,       -9.4757080078,        9.7656250000
1489455880.4426679611,1489455880.4450829029,       -0.6245117188,        0.0063476562,       -0.0229492188,       29.0527343750,       -9.4757080078,        9.7656250000
1489455880.4453699589,1489455880.4477930069,       -0.6245117188,        0.0063476562,       -0.0229492188,       31.7535400391,       -9.9792480469,        5.0964355469
1489455880.4480779171,1489455880.4505081177,       -0.6245117188,        0.0063476562,       -0.0332031250,       31.7535400391,       -9.9792480469,        5.0964355469
1489455880.4507920742,1489455880.4532110691,       -0.6362304688,       -0.0302734375,       -0.0332031250,       32.7453613281,      -10.5895996094,       -0.6561279297
1489455880.4535009861,1489455880.4559979439,       -0.6362304688,       -0.0302734375,       -0.0332031250,       32.7453613281,      -10.5895996094,       -0.6561279297
1489455880.4562869072,1489455880.4586830139,       -0.6362304688,       -0.0302734375,       -0.0332031250,       31.8145751953,      -11.3067626953,       -6.5002441406
1489455880.4593501091,1489455880.4616520405,       -0.6479492188,       -0.1166992188,       -0.0527343750,       31.8145751953,      -11.3067626953,       -6.5002441406
1489455880.4619350433,1489455880.4642269611,       -0.6479492188,       -0.1166992188,       -0.0527343750,       29.4036865234,      -11.9628906250,      -11.4440917969
1489455880.4645130634,1489455880.4668080807,       -0.6479492188,       -0.1166992188,       -0.0527343750,       29.4036865234,      -11.9628906250,      -11.4440917969
1489455880.4670929909,1489455880.4694650173,       -0.6479492188,       -0.1166992188,       -0.0527343750,       25.7110595703,      -12.7258300781,      -16.2506103516
1489455880.4697570801,1489455880.4721710682,       -0.6450195312,       -0.1313476562,       -0.0747070312,       25.7110595703,      -12.7258300781,      -16.2506103516
1489455880.4724628925,1489455880.4748849869,       -0.6450195312,       -0.1313476562,       -0.0747070312,       21.8811035156,      -12.9699707031,      -20.9655761719
1489455880.4751749039,1489455880.4775888920,       -0.6450195312,       -0.1313476562,       -0.0747070312,       21.8811035156,      -12.9699707031,      -20.9655761719
1489455880.4778800011,1489455880.4803030491,       -0.6450195312,       -0.1313476562,       -0.0747070312,       18.5241699219,      -13.1683349609,      -25.4669189453
1489455880.4807009697,1489455880.4831190109,       -0.6386718750,       -0.1088867188,       -0.0815429688,       18.5241699219,      -13.1683349609,      -25.4669189453
1489455880.4834098816,1489455880.4858260155,       -0.6386718750,       -0.1088867188,       -0.0815429688,       14.9536132812,      -13.1530761719,      -29.5867919922
1489455880.4861190319,1489455880.4885408878,       -0.6386718750,       -0.1088867188,       -0.0815429688,       14.9536132812,      -13.1530761719,      -29.5867919922
1489455880.4888429642,1489455880.4911348820,       -0.6386718750,       -0.1049804688,       -0.1010742188,       11.2304687500,      -13.6413574219,      -33.6914062500
1489455880.4914200306,1489455880.4937119484,       -0.6328125000,       -0.1049804688,       -0.1010742188,       11.2304687500,      -13.6413574219,      -33.6914062500
1489455880.4939970970,1489455880.4962949753,       -0.6328125000,       -0.1049804688,       -0.1010742188,        7.3242187500,      -14.0991210938,      -38.1469726562
1489455880.4965789318,1489455880.4988811016,       -0.6328125000,       -0.1049804688,       -0.1010742188,        7.5683593750,      -14.0991210938,      -38.1469726562
1489455880.4991650581,1489455880.5014560223,       -0.6328125000,       -0.0996093750,       -0.1098632812,        7.5683593750,      -14.0991210938,      -42.7551269531
1489455880.5017399788,1489455880.5040340424,       -0.6420898438,       -0.0996093750,       -0.1098632812,        3.9215087891,      -14.3280029297,      -42.7551269531
1489455880.5043160915,1489455880.5066120625,       -0.6420898438,       -0.0996093750,       -0.1098632812,        3.9215087891,      -14.3280029297,      -47.2564697266
1489455880.5068950653,1489455880.5093560219,       -0.6420898438,       -0.0996093750,       -0.1098632812,       -0.0457763672,      -13.8244628906,      -47.2564697266
1489455880.5096390247,1489455880.5119309425,       -0.6635742188,       -0.0981445312,       -0.1049804688,       -0.0457763672,      -13.8244628906,      -51.6967773438
1489455880.5122120380,1489455880.5145061016,       -0.6635742188,       -0.0981445312,       -0.1049804688,       -2.5787353516,      -13.1072998047,      -51.6967773438
1489455880.5147879124,1489455880.5170900822,       -0.6635742188,       -0.0981445312,       -0.1049804688,       -2.5787353516,      -13.1072998047,      -51.6967773438
1489455880.5173718929,1489455880.5198149681,       -0.6635742188,       -0.0981445312,       -0.1049804688,       -5.0964355469,      -13.6871337891,      -55.7861328125
1489455880.5201039314,1489455880.5225040913,       -0.6884765625,       -0.0820312500,       -0.1064453125,       -5.0964355469,      -13.6871337891,      -55.7861328125
1489455880.5227940083,1489455880.5251979828,       -0.6884765625,       -0.0820312500,       -0.1064453125,       -7.5683593750,      -13.4277343750,      -60.1043701172
1489455880.5254869461,1489455880.5278449059,       -0.6884765625,       -0.0820312500,       -0.1064453125,       -7.5683593750,      -13.4277343750,      -60.1043701172
1489455880.5281279087,1489455880.5306000710,       -0.6884765625,       -0.0820312500,       -0.1064453125,       -9.3383789062,      -12.6800537109,      -63.9801025391
1489455880.5308899879,1489455880.5332729816,       -0.7001953125,       -0.0581054688,       -0.1171875000,       -9.3383789062,      -12.6800537109,      -63.9801025391
1489455880.5335609913,1489455880.5361590385,       -0.7001953125,       -0.0581054688,       -0.1171875000,      -11.9171142578,      -11.9628906250,      -67.7947998047
1489455880.5364460945,1489455880.5387361050,       -0.7001953125,       -0.0581054688,       -0.1171875000,      -11.9171142578,      -11.9628906250,      -67.7947998047
1489455880.5391058922,1489455880.5413949490,       -0.7001953125,       -0.0581054688,       -0.1162109375,      -13.5040283203,      -11.4440917969,      -71.3806152344
1489455880.5416829586,1489455880.5439679623,       -0.7163085938,       -0.0332031250,       -0.1162109375,      -13.5040283203,      -11.4440917969,      -71.3806152344
1489455880.5443611145,1489455880.5466530323,       -0.7163085938,       -0.0332031250,       -0.1162109375,      -14.7857666016,      -11.0931396484,      -74.2187500000
1489455880.5469388962,1489455880.5492660999,       -0.7163085938,       -0.0332031250,       -0.1162109375,      -14.7857666016,      -11.0931396484,      -74.2187500000
1489455880.5495500565,1489455880.5518429279,       -0.7163085938,       -0.0107421875,       -0.1083984375,      -16.7541503906,       -9.8266601562,      -77.2094726562
1489455880.5521268845,1489455880.5544159412,       -0.7309570312,       -0.0107421875,       -0.1083984375,      -16.7541503906,       -9.8266601562,      -77.2094726562
1489455880.5546970367,1489455880.5569860935,       -0.7309570312,       -0.0107421875,       -0.1083984375,      -18.0358886719,       -8.8653564453,      -80.2612304688
1489455880.5572690964,1489455880.5596089363,       -0.7309570312,       -0.0107421875,       -0.1083984375,      -18.0358886719,       -8.8653564453,      -80.2612304688
1489455880.5598928928,1489455880.5621829033,       -0.7309570312,        0.0185546875,       -0.1152343750,      -18.4478759766,       -8.0871582031,      -82.4890136719
1489455880.5624659061,1489455880.5647609234,       -0.7382812500,        0.0185546875,       -0.1152343750,      -18.4478759766,       -8.0871582031,      -82.4890136719
1489455880.5650420189,1489455880.5673270226,       -0.7382812500,        0.0185546875,       -0.1152343750,      -19.0429687500,       -7.2021484375,      -85.1440429688
1489455880.5676109791,1489455880.5699059963,       -0.7382812500,        0.0185546875,       -0.1152343750,      -19.0429687500,       -7.2021484375,      -85.1440429688
1489455880.5701909065,1489455880.5724830627,       -0.7460937500,        0.0112304688,       -0.1201171875,      -19.0429687500,       -6.2866210938,      -87.8295898438
1489455880.5727660656,1489455880.5750548840,       -0.7460937500,        0.0112304688,       -0.1201171875,      -19.3634033203,       -6.2866210938,      -87.8295898438
1489455880.5753369331,1489455880.5776250362,       -0.7460937500,        0.0112304688,       -0.1201171875,      -19.3634033203,       -6.2866210938,      -90.5303955078
1489455880.5779080391,1489455880.5803260803,       -0.7460937500,        0.0112304688,       -0.1201171875,      -19.2871093750,       -6.1035156250,      -90.5303955078
1489455880.5806078911,1489455880.5829041004,       -0.7636718750,       -0.0063476562,       -0.1147460938,      -19.2871093750,       -6.1035156250,      -92.5903320312
1489455880.5831859112,1489455880.5854809284,       -0.7636718750,       -0.0063476562,       -0.1147460938,      -20.5078125000,       -4.9438476562,      -92.5903320312
1489455880.5857629776,1489455880.5880589485,       -0.7636718750,       -0.0063476562,       -0.1147460938,      -20.5078125000,       -4.9438476562,      -96.4965820312
1489455880.5883409977,1489455880.5908370018,       -0.7636718750,       -0.0063476562,       -0.1147460938,      -20.7061767578,       -4.5166015625,      -95.1690673828
1489455880.5911300182,1489455880.5935480595,       -0.7641601562,       -0.0083007812,       -0.1235351562,      -20.7061767578,       -4.5166015625,      -99.0753173828
1489455880.5938410759,1489455880.5962569714,       -0.7641601562,       -0.0083007812,       -0.1235351562,      -21.0418701172,       -3.4942626953,      -97.8851318359
1489455880.5965468884,1489455880.5989670753,       -0.7641601562,       -0.0083007812,       -0.1235351562,      -21.0418701172,       -3.4942626953,      -97.8851318359
1489455880.5992560387,1489455880.6016719341,       -0.7641601562,       -0.0083007812,       -0.2485351562,      -22.0184326172,       -2.2735595703,      -99.9603271484
1489455880.6019630432,1489455880.6043829918,       -0.7758789062,       -0.0102539062,       -0.1303710938,      -22.0184326172,       -2.2735595703,     -103.8665771484
1489455880.6046741009,1489455880.6070950031,       -0.7758789062,       -0.0102539062,       -0.1303710938,      -22.9034423828,       -0.9765625000,     -102.0660400391
1489455880.6074950695,1489455880.6098680496,       -0.7758789062,       -0.0102539062,       -0.1303710938,      -22.9034423828,       -0.9765625000,     -102.0660400391
1489455880.6101510525,1489455880.6124429703,       -0.7758789062,       -0.0068359375,       -0.1318359375,      -24.7344970703,       -0.4425048828,     -104.1870117188
1489455880.6127269268,1489455880.6150200367,       -0.7949218750,       -0.0068359375,       -0.1318359375,      -24.7344970703,       -0.4425048828,     -104.1870117188
1489455880.6153020859,1489455880.6175990105,       -0.7949218750,       -0.0068359375,       -0.1318359375,      -26.0925292969,        0.2899169922,     -106.0943603516
1489455880.6178820133,1489455880.6202869415,       -0.7949218750,       -0.0068359375,       -0.1318359375,      -26.0925292969,        0.2899169922,     -106.0943603516
1489455880.6205780506,1489455880.6229929924,       -0.7968750000,       -0.0053710938,       -0.1352539062,      -26.8249511719,        1.2664794922,     -108.4136962891
1489455880.6232829094,1489455880.6256990433,       -0.7968750000,       -0.0053710938,       -0.1352539062,      -26.8249511719,        1.2664794922,     -108.4136962891
1489455880.6259911060,1489455880.6284019947,       -0.7968750000,       -0.0053710938,       -0.1352539062,      -27.3895263672,        2.4261474609,     -111.2518310547
1489455880.6286931038,1489455880.6311249733,       -0.7968750000,       -0.0053710938,       -0.1352539062,      -27.3895263672,        2.4261474609,     -111.2518310547
1489455880.6314148903,1489455880.6338338852,       -0.8154296875,       -0.0131835938,       -0.1347656250,      -28.8391113281,        3.1738281250,     -113.4185791016
1489455880.6341230869,1489455880.6365399361,       -0.8154296875,       -0.0131835938,       -0.1347656250,      -28.8391113281,        3.1738281250,     -113.4185791016
1489455880.6368288994,1489455880.6392560005,       -0.8154296875,       -0.0131835938,       -0.1347656250,      -30.3344726562,        4.2419433594,     -115.7836914062
1489455880.6395459175,1489455880.6419620514,       -0.8154296875,       -0.0131835938,       -0.0097656250,      -30.3344726562,        4.2419433594,     -115.7836914062
1489455880.6422519684,1489455880.6446740627,       -0.8354492188,       -0.0097656250,       -0.1230468750,      -31.1584472656,        5.5236816406,     -117.7978515625
1489455880.6450600624,1489455880.6476149559,       -0.8354492188,       -0.0097656250,       -0.1230468750,      -31.1584472656,        5.5236816406,     -117.7978515625
1489455880.6479051113,1489455880.6504600048,       -0.8354492188,       -0.0097656250,       -0.1230468750,      -32.1044921875,        6.7138671875,     -119.6594238281
1489455880.6507539749,1489455880.6531770229,       -0.8354492188,        0.0087890625,       -0.1098632812,      -32.1044921875,        6.7138671875,     -119.6594238281
1489455880.6534690857,1489455880.6558880806,       -0.8481445312,        0.0087890625,       -0.1098632812,      -33.0200195312,        8.2092285156,     -121.2768554688
1489455880.6561799049,1489455880.6585979462,       -0.8481445312,        0.0087890625,       -0.1098632812,      -33.0200195312,        8.2092285156,     -121.2768554688
1489455880.6588981152,1489455880.6611919403,       -0.8481445312,        0.0087890625,       -0.1098632812,      -34.5001220703,        9.3231201172,     -122.5280761719
1489455880.6614758968,1489455880.6637690067,       -0.8652343750,        0.0390625000,       -0.1015625000,      -34.5001220703,        9.3231201172,     -122.5280761719
1489455880.6640529633,1489455880.6663429737,       -0.8652343750,        0.0390625000,       -0.1015625000,      -35.2630615234,        9.9182128906,     -122.8485107422
1489455880.6666250229,1489455880.6689360142,       -0.8652343750,        0.0390625000,       -0.1015625000,      -35.2630615234,        9.9182128906,     -122.8485107422
1489455880.6692280769,1489455880.6716508865,       -0.8652343750,        0.0390625000,       -0.1015625000,      -35.8428955078,       10.6201171875,     -123.1384277344
1489455880.6720540524,1489455880.6744680405,       -0.8891601562,        0.0708007812,       -0.0703125000,      -35.8428955078,       10.6201171875,     -123.1384277344
1489455880.6747620106,1489455880.6771790981,       -0.8891601562,        0.0708007812,       -0.0703125000,      -36.1175537109,       11.5051269531,     -122.8637695312
1489455880.6774709225,1489455880.6798489094,       -0.8891601562,        0.0708007812,       -0.0703125000,      -36.1175537109,       11.5051269531,     -122.8637695312
1489455880.6801340580,1489455880.6824269295,       -0.8891601562,        0.0708007812,       -0.0703125000,      -36.3311767578,       12.0391845703,     -122.0855712891
1489455880.6827130318,1489455880.6850059032,       -0.9086914062,        0.0776367188,       -0.0590820312,      -36.3311767578,       12.0391845703,     -122.0855712891
1489455880.6852900982,1489455880.6875839233,       -0.9086914062,        0.0776367188,       -0.0590820312,      -35.9344482422,       12.5579833984,     -121.7193603516
1489455880.6878669262,1489455880.6902139187,       -0.9086914062,        0.0776367188,       -0.0590820312,      -35.9344482422,       12.5579833984,     -121.7193603516
1489455880.6905000210,1489455880.6933929920,       -0.9086914062,        0.0776367188,       -0.0532226562,      -35.5377197266,       13.5803222656,     -120.6970214844
1489455880.6936800480,1489455880.6959769726,       -0.9091796875,        0.0781250000,       -0.0532226562,      -35.5377197266,       13.5803222656,     -120.6970214844
1489455880.6962630749,1489455880.6985559464,       -0.9091796875,        0.0781250000,       -0.0532226562,      -35.9954833984,       14.3432617188,     -119.7814941406
1489455880.6988620758,1489455880.7012829781,       -0.9091796875,        0.0781250000,       -0.0532226562,      -35.9954833984,       14.3432617188,     -119.7814941406
1489455880.7015740871,1489455880.7039868832,       -0.9082031250,        0.0600585938,       -0.0424804688,      -36.3616943359,       14.8315429688,     -118.9270019531
1489455880.7042798996,1489455880.7066960335,       -0.9082031250,        0.0600585938,       -0.0424804688,      -36.3616943359,       14.8315429688,     -118.9270019531
1489455880.7069869041,1489455880.7094140053,       -0.9082031250,        0.0600585938,       -0.0424804688,      -36.3616943359,       15.7165527344,     -118.0877685547
1489455880.7096989155,1489455880.7119910717,       -0.9082031250,        0.0600585938,       -0.0424804688,      -36.3616943359,       15.7165527344,     -118.0877685547
1489455880.7122759819,1489455880.7145640850,       -0.8920898438,        0.0639648438,       -0.0439453125,      -35.7818603516,       16.9372558594,     -116.5466308594
1489455880.7148470879,1489455880.7171380520,       -0.8920898438,        0.0639648438,       -0.0439453125,      -35.7818603516,       16.9372558594,     -116.5466308594
1489455880.7174220085,1489455880.7197730541,       -0.8920898438,        0.0639648438,       -0.0439453125,      -35.0341796875,       17.4560546875,     -115.6616210938
1489455880.7200660706,1489455880.7224860191,       -0.8920898438,        0.0639648438,       -0.0439453125,      -35.0341796875,       17.4560546875,     -115.6616210938
1489455880.7227799892,1489455880.7251989841,       -0.8857421875,        0.0683593750,       -0.0439453125,      -33.9202880859,       18.3715820312,     -115.1275634766
1489455880.7254920006,1489455880.7279119492,       -0.8857421875,        0.0683593750,       -0.0439453125,      -33.9202880859,       18.3715820312,     -115.1275634766
1489455880.7282040119,1489455880.7305390835,       -0.8857421875,        0.0683593750,       -0.0439453125,      -32.7148437500,       19.2871093750,     -114.1510009766
1489455880.7308239937,1489455880.7331149578,       -0.8857421875,        0.0683593750,       -0.0205078125,      -32.7148437500,       19.2871093750,     -114.1510009766
1489455880.7333979607,1489455880.7356901169,       -0.8715820312,        0.0874023438,       -0.0205078125,      -32.7148437500,       19.3634033203,     -112.7471923828
1489455880.7360930443,1489455880.7383849621,       -0.8715820312,        0.0874023438,       -0.0205078125,      -31.6467285156,       19.3634033203,     -112.7471923828
1489455880.7386689186,1489455880.7410850525,       -0.8715820312,        0.0874023438,       -0.0205078125,      -31.6467285156,       19.3176269531,     -111.3433837891
1489455880.7413721085,1489455880.7436609268,       -0.8715820312,        0.1044921875,       -0.0131835938,      -29.6478271484,       19.3176269531,     -111.3433837891
1489455880.7439460754,1489455880.7462360859,       -0.8676757812,        0.1044921875,       -0.0131835938,      -29.6478271484,       19.3176269531,     -110.2294921875
1489455880.7465190887,1489455880.7489459515,       -0.8676757812,        0.1044921875,       -0.0131835938,      -27.6031494141,       19.0429687500,     -110.2294921875
1489455880.7492399216,1489455880.7516589165,       -0.8676757812,        0.1044921875,       -0.0131835938,      -27.6031494141,       19.0429687500,     -108.5357666016
1489455880.7519519329,1489455880.7543730736,       -0.8413085938,        0.1308593750,        0.0000000000,      -25.8789062500,       18.5699462891,     -108.5357666016
1489455880.7546660900,1489455880.7570810318,       -0.8413085938,        0.1308593750,        0.0000000000,      -25.8789062500,       18.5699462891,     -107.0098876953
1489455880.7573750019,1489455880.7597839832,       -0.8413085938,        0.1308593750,        0.0000000000,      -22.5067138672,       17.5628662109,     -107.0098876953
1489455880.7600688934,1489455880.7623639107,       -0.8413085938,        0.1308593750,        0.0000000000,      -22.5067138672,       17.5628662109,     -104.5989990234
1489455880.7626481056,1489455880.7649419308,       -0.8129882812,        0.1411132812,        0.0063476562,      -19.2108154297,       17.3950195312,     -104.5989990234
1489455880.7652270794,1489455880.7675209045,       -0.8129882812,        0.1411132812,        0.0063476562,      -19.2108154297,       17.3950195312,     -104.5989990234
1489455880.7678060532,1489455880.7701768875,       -0.8129882812,        0.1411132812,        0.0063476562,      -16.3879394531,       17.1051025391,     -102.4627685547
1489455880.7704699039,1489455880.7728819847,       -0.8129882812,        0.1411132812,        0.0063476562,      -16.3879394531,       17.1051025391,     -102.4627685547
1489455880.7731759548,1489455880.7755899429,       -0.7905273438,        0.1430664062,        0.0087890625,      -13.3666992188,       16.8151855469,     -100.3417968750
1489455880.7758829594,1489455880.7782969475,       -0.7905273438,        0.1430664062,        0.0087890625,      -13.3666992188,       16.8151855469,     -100.3417968750
1489455880.7785921097,1489455880.7810521126,       -0.7905273438,        0.1430664062,        0.0087890625,      -10.7421875000,       16.2811279297,      -98.0224609375
1489455880.7813460827,1489455880.7837550640,       -0.7905273438,        0.1430664062,        0.0219726562,      -10.7421875000,       16.2811279297,      -98.0224609375
1489455880.7840499878,1489455880.7864649296,       -0.7739257812,        0.1455078125,        0.0219726562,       -8.3160400391,       15.7165527344,      -95.8557128906
1489455880.7867529392,1489455880.7891690731,       -0.7739257812,        0.1455078125,        0.0219726562,       -8.3160400391,       15.7165527344,      -95.8557128906
1489455880.7894589901,1489455880.7918770313,       -0.7739257812,        0.1455078125,        0.0219726562,       -6.6070556641,       14.9383544922,      -93.4143066406
1489455880.7921659946,1489455880.7945818901,       -0.7626953125,        0.1596679688,        0.0249023438,       -6.6070556641,       14.9383544922,      -93.4143066406
1489455880.7948710918,1489455880.7972850800,       -0.7626953125,        0.1596679688,        0.0249023438,       -4.9133300781,       14.2974853516,      -90.6677246094
1489455880.7975749969,1489455880.8000319004,       -0.7626953125,        0.1596679688,        0.0249023438,       -4.9133300781,       14.2974853516,      -90.6677246094
1489455880.8004319668,1489455880.8028500080,       -0.7626953125,        0.1596679688,        0.0249023438,       -3.2501220703,       13.9923095703,      -87.6007080078
1489455880.8031389713,1489455880.8056380749,       -0.7563476562,        0.1879882812,        0.0371093750,       -3.2501220703,       13.9923095703,      -87.6007080078
1489455880.8059298992,1489455880.8083469868,       -0.7563476562,        0.1879882812,        0.0371093750,       -1.1749267578,       13.1530761719,      -84.6252441406
1489455880.8086369038,1489455880.8109509945,       -0.7563476562,        0.1879882812,        0.0371093750,       -1.1749267578,       13.1530761719,      -84.6252441406
1489455880.8112349510,1489455880.8135309219,       -0.7563476562,        0.1879882812,        0.0371093750,        1.3427734375,       11.6119384766,      -81.4666748047
1489455880.8138120174,1489455880.8161079884,       -0.7485351562,        0.1997070312,        0.0463867188,        1.3427734375,       11.6119384766,      -81.4666748047
1489455880.8163878918,1489455880.8188450336,       -0.7485351562,        0.1997070312,        0.0463867188,        4.4250488281,       10.5743408203,      -78.1555175781
1489455880.8191339970,1489455880.8215980530,       -0.7485351562,        0.1997070312,        0.0463867188,        4.4250488281,       10.5743408203,      -78.1555175781
1489455880.8219010830,1489455880.8248059750,       -0.7485351562,        0.2021484375,        0.0449218750,        7.2631835938,        9.7045898438,      -74.6917724609
1489455880.8250980377,1489455880.8275189400,       -0.7353515625,        0.2021484375,        0.0449218750,        7.2631835938,        9.7045898438,      -70.7855224609
1489455880.8278059959,1489455880.8302309513,       -0.7353515625,        0.2021484375,        0.0449218750,        9.0026855469,        8.5906982422,      -70.9075927734
1489455880.8305160999,1489455880.8333520889,       -0.7353515625,        0.2021484375,        0.0449218750,        9.0026855469,        8.5906982422,      -67.0013427734
1489455880.8336420059,1489455880.8365399837,       -0.7197265625,        0.1918945312,        0.0434570312,       10.7269287109,        7.7209472656,      -67.2760009766
1489455880.8368320465,1489455880.8392388821,       -0.7197265625,        0.1918945312,        0.0434570312,       10.7269287109,        7.3089599609,      -63.2324218750
1489455880.8395218849,1489455880.8418099880,       -0.7197265625,        0.1918945312,        0.0434570312,       11.5661621094,        7.3089599609,      -63.2324218750
1489455880.8420898914,1489455880.8443799019,       -0.7197265625,        0.2104492188,        0.0610351562,       11.5661621094,        7.3089599609,      -58.5174560547
1489455880.8446619511,1489455880.8469550610,       -0.6982421875,        0.2104492188,        0.0610351562,       12.3443603516,        6.2103271484,      -58.5174560547
1489455880.8472371101,1489455880.8495359421,       -0.6982421875,        0.2104492188,        0.0610351562,       12.3443603516,        6.2103271484,      -53.5888671875
1489455880.8498170376,1489455880.8521130085,       -0.6982421875,        0.2104492188,        0.0610351562,       14.3585205078,        5.1422119141,      -53.5888671875
1489455880.8523941040,1489455880.8546869755,       -0.6982421875,        0.2446289062,        0.0839843750,       14.3585205078,        5.1422119141,      -49.6826171875
1489455880.8549680710,1489455880.8572630882,       -0.6665039062,        0.2446289062,        0.0839843750,       16.7846679688,        3.4790039062,      -48.2940673828
1489455880.8575470448,1489455880.8598520756,       -0.6665039062,        0.2446289062,        0.0839843750,       16.7846679688,        3.4790039062,      -48.2940673828
1489455880.8601360321,1489455880.8624289036,       -0.6665039062,        0.2446289062,        0.0839843750,       18.5852050781,        2.0294189453,      -42.6483154297
1489455880.8627109528,1489455880.8650000095,       -0.6469726562,        0.2656250000,        0.1030273438,       18.5852050781,        2.0294189453,      -42.6483154297
1489455880.8653941154,1489455880.8676929474,       -0.6469726562,        0.2656250000,        0.1030273438,       20.6909179688,        0.9155273438,      -37.1704101562
1489455880.8679749966,1489455880.8705260754,       -0.6469726562,        0.2656250000,        0.1030273438,       20.6909179688,        0.9155273438,      -37.1704101562
1489455880.8708109856,1489455880.8731050491,       -0.6469726562,        0.2656250000,        0.1030273438,       23.0865478516,       -0.5493164062,      -31.7535400391
1489455880.8733890057,1489455880.8756849766,       -0.6333007812,        0.2749023438,        0.1206054688,       23.0865478516,       -0.5493164062,      -31.7535400391
1489455880.8759679794,1489455880.8782620430,       -0.6333007812,        0.2749023438,        0.1206054688,       26.1383056641,       -1.7852783203,      -26.2145996094
1489455880.8785429001,1489455880.8809549809,       -0.6333007812,        0.2749023438,        0.1206054688,       26.1383056641,       -1.7852783203,      -26.2145996094
1489455880.8812489510,1489455880.8836638927,       -0.6333007812,        0.2749023438,        0.1206054688,       29.6936035156,       -2.6550292969,      -20.5535888672
1489455880.8839519024,1489455880.8863630295,       -0.6425781250,        0.2797851562,        0.1298828125,       29.6936035156,       -2.6550292969,      -20.5535888672
1489455880.8866510391,1489455880.8890810013,       -0.6425781250,        0.2797851562,        0.1298828125,       32.6385498047,       -4.2877197266,      -14.7399902344
1489455880.8893690109,1489455880.8917880058,       -0.6425781250,        0.2797851562,        0.1298828125,       32.6385498047,       -4.2877197266,      -14.7399902344
1489455880.8920760155,1489455880.8944919109,       -0.6425781250,        0.2797851562,        0.1357421875,       34.9578857422,       -6.2561035156,       -9.9029541016
1489455880.8947761059,1489455880.8971879482,       -0.6450195312,        0.2636718750,        0.1357421875,       34.9578857422,       -6.2561035156,       -9.9029541016
1489455880.8974730968,1489455880.8998498917,       -0.6450195312,        0.2636718750,        0.1357421875,       37.2009277344,       -8.0413818359,       -5.0964355469
1489455880.9001278877,1489455880.9024178982,       -0.6450195312,        0.2636718750,        0.1357421875,       37.2009277344,       -8.0413818359,       -5.0964355469
1489455880.9026970863,1489455880.9049880505,       -0.6450195312,        0.2622070312,        0.1274414062,       38.7420654297,      -10.1776123047,        0.4272460938
1489455880.9052689075,1489455880.9075610638,       -0.6606445312,        0.2622070312,        0.1274414062,       38.7420654297,      -10.1776123047,        0.4272460938
1489455880.9078419209,1489455880.9101970196,       -0.6606445312,        0.2622070312,        0.1274414062,       40.6341552734,      -11.8408203125,        4.7912597656
1489455880.9104759693,1489455880.9127678871,       -0.6606445312,        0.2622070312,        0.1274414062,       40.6341552734,      -11.8408203125,        4.7912597656
1489455880.9130480289,1489455880.9153399467,       -0.6606445312,        0.2504882812,        0.1147460938,       40.6341552734,      -13.3056640625,        9.8266601562
1489455880.9156219959,1489455880.9179129601,       -0.6616210938,        0.2504882812,        0.1147460938,       41.9006347656,      -13.3056640625,        9.8266601562
1489455880.9181940556,1489455880.9205310345,       -0.6616210938,        0.2504882812,        0.1147460938,       41.9006347656,      -13.3056640625,       14.9688720703
1489455880.9208159447,1489455880.9231131077,       -0.6616210938,        0.2504882812,        0.1147460938,       41.6107177734,      -14.7399902344,       14.9688720703
1489455880.9233980179,1489455880.9256930351,       -0.6572265625,        0.2573242188,        0.0996093750,       41.6107177734,      -14.7399902344,       19.3176269531
1489455880.9259769917,1489455880.9282679558,       -0.6572265625,        0.2573242188,        0.0996093750,       41.2139892578,      -15.5792236328,       19.3176269531
1489455880.9286611080,1489455880.9312489033,       -0.6572265625,        0.2573242188,        0.0996093750,       41.2139892578,      -15.5792236328,       23.9562988281
1489455880.9315359592,1489455880.9338300228,       -0.6572265625,        0.2573242188,        0.0996093750,       41.0461425781,      -16.5405273438,       23.9562988281
1489455880.9341158867,1489455880.9364080429,       -0.6523437500,        0.2783203125,        0.0937500000,       41.0461425781,      -16.5405273438,       27.8625488281
1489455880.9366919994,1489455880.9391739368,       -0.6523437500,        0.2783203125,        0.0937500000,       41.4733886719,      -17.3645019531,       29.1900634766
1489455880.9394640923,1489455880.9418520927,       -0.6523437500,        0.2783203125,        0.0937500000,       41.4733886719,      -17.3645019531,       33.0963134766
1489455880.9421439171,1489455880.9446139336,       -0.6523437500,        0.2783203125,        0.0937500000,       41.3055419922,      -17.9901123047,       34.0270996094
1489455880.9449200630,1489455880.9472260475,       -0.6406250000,        0.2700195312,        0.0917968750,       41.3055419922,      -17.9901123047,       37.9333496094
1489455880.9475140572,1489455880.9498519897,       -0.6406250000,        0.2700195312,        0.0917968750,       40.6188964844,      -18.7835693359,       38.1774902344
1489455880.9501359463,1489455880.9524359703,       -0.6406250000,        0.2700195312,        0.0917968750,       40.6188964844,      -18.7835693359,       38.1774902344
1489455880.9527211189,1489455880.9550058842,       -0.6406250000,        0.2700195312,        0.0888671875,       39.1693115234,      -19.1955566406,       43.3959960938
1489455880.9552919865,1489455880.9575800896,       -0.6425781250,        0.2680664062,        0.0888671875,       39.1693115234,      -19.1955566406,       43.3959960938
1489455880.9578640461,1489455880.9602100849,       -0.6425781250,        0.2680664062,        0.0888671875,       35.2172851562,      -19.1802978516,       48.2025146484
1489455880.9604940414,1489455880.9627840519,       -0.6425781250,        0.2680664062,        0.0888671875,       35.2172851562,      -19.1802978516,       48.2025146484
1489455880.9630680084,1489455880.9653620720,       -0.6425781250,        0.2680664062,        0.0839843750,       31.5399169922,      -19.2260742188,       53.3752441406
1489455880.9656469822,1489455880.9679369926,       -0.6718750000,        0.2680664062,        0.0839843750,       31.5399169922,      -19.2260742188,       53.3752441406
1489455880.9682209492,1489455880.9705610275,       -0.6718750000,        0.2680664062,        0.0839843750,       27.6947021484,      -20.7061767578,       55.0994873047
1489455880.9708468914,1489455880.9731400013,       -0.6718750000,        0.2680664062,        0.0839843750,       27.6947021484,      -20.7061767578,       55.0994873047
1489455880.9734249115,1489455880.9757139683,       -0.6718750000,       -0.1362304688,        0.0766601562,       24.6582031250,      -21.7437744141,       47.6531982422
1489455880.9759991169,1489455880.9782869816,       -0.7958984375,       -0.1362304688,        0.0766601562,       24.6582031250,      -21.7437744141,       47.6531982422
1489455880.9785718918,1489455880.9809050560,       -0.7958984375,       -0.1362304688,        0.0766601562,       18.4326171875,      -12.7716064453,       45.5627441406
1489455880.9811899662,1489455880.9834780693,       -0.7958984375,       -0.1362304688,        0.0766601562,       18.4326171875,      -12.7716064453,       45.5627441406
1489455880.9837629795,1489455880.9860560894,       -0.7958984375,       -0.6958007812,       -0.1796875000,       18.4326171875,       -7.1563720703,       44.5098876953
1489455880.9863369465,1489455880.9886260033,       -0.8608398438,       -0.6958007812,       -0.1796875000,       10.7574462891,       -7.1563720703,       44.5098876953
1489455880.9889841080,1489455880.9912779331,       -0.8608398438,       -0.6958007812,       -0.1796875000,       10.7574462891,       -7.1563720703,       40.5883789062
1489455880.9916770458,1489455880.9939770699,       -0.8608398438,       -0.6958007812,       -0.1796875000,       -6.0119628906,       -6.8511962891,       40.5883789062
1489455880.9942550659,1489455880.9965450764,       -0.8784179688,       -0.9282226562,       -0.2187500000,       -6.0119628906,       -6.8511962891,       38.6047363281
1489455880.9968221188,1489455880.9992349148,       -0.8784179688,       -0.9282226562,       -0.2187500000,      -22.5372314453,       -3.3416748047,       38.6047363281
1489455880.9995200634,1489455881.0018169880,       -0.8784179688,       -0.9282226562,       -0.2187500000,      -22.5372314453,       -3.3416748047,       39.7796630859
1489455881.0020999908,1489455881.0043931007,       -0.8784179688,       -0.9282226562,       -0.2187500000,      -34.6374511719,       -1.5258789062,       39.7796630859
1489455881.0046739578,1489455881.0069680214,       -0.9121093750,       -0.4824218750,       -0.1333007812,      -34.6374511719,       -1.5258789062,       39.7796630859
1489455881.0072491169,1489455881.0096340179,       -0.9121093750,       -0.4824218750,       -0.1333007812,      -51.6204833984,       -1.3885498047,       46.3409423828
1489455881.0099239349,1489455881.0123479366,       -0.9121093750,       -0.4824218750,       -0.1333007812,      -51.6204833984,       -1.3885498047,       46.3409423828
1489455881.0126368999,1489455881.0150549412,       -0.9121093750,       -0.4824218750,       -0.1333007812,      -67.7337646484,       -1.4343261719,       54.7485351562
1489455881.0153439045,1489455881.0177559853,       -0.9077148438,       -0.0092773438,       -0.0664062500,      -67.7337646484,       -1.4343261719,       54.7485351562
1489455881.0180499554,1489455881.0204789639,       -0.9077148438,       -0.0092773438,       -0.0664062500,      -72.8607177734,       -0.4425048828,       62.7136230469
1489455881.0207710266,1489455881.0231919289,       -0.9077148438,       -0.0092773438,       -0.0664062500,      -72.8607177734,       -0.4425048828,       62.7136230469
1489455881.0234830379,1489455881.0258960724,       -0.9077148438,        0.2407226562,       -0.0673828125,      -70.9075927734,        0.2136230469,       68.3288574219
1489455881.0261859894,1489455881.0286090374,       -0.9213867188,        0.2148437500,       -0.0673828125,      -70.9075927734,        0.2136230469,       68.3288574219
1489455881.0289099216,1489455881.0313270092,       -0.9213867188,        0.2148437500,       -0.0673828125,      -67.6727294922,       -1.2969970703,       72.0977783203
1489455881.0316190720,1489455881.0340359211,       -0.9213867188,        0.2148437500,       -0.0673828125,      -67.6727294922,       -1.2969970703,       72.0977783203
1489455881.0343260765,1489455881.0367410183,       -0.8862304688,        0.1865234375,       -0.0361328125,      -63.9648437500,       -4.7302246094,       74.3255615234
1489455881.0370309353,1489455881.0394639969,       -0.8862304688,        0.1865234375,       -0.0361328125,      -63.9648437500,       -4.7302246094,       74.3255615234
1489455881.0397529602,1489455881.0421700478,       -0.8862304688,        0.1865234375,       -0.0361328125,      -55.7098388672,       -7.7514648438,       74.2950439453
1489455881.0424609184,1489455881.0448739529,       -0.8862304688,        0.1865234375,       -0.0361328125,      -55.7098388672,       -7.7514648438,       74.2950439453
1489455881.0451641083,1489455881.0475800037,       -0.8769531250,        0.1206054688,       -0.0356445312,      -42.3889160156,      -10.0402832031,       73.0895996094
1489455881.0478720665,1489455881.0502340794,       -0.8769531250,        0.1206054688,       -0.0356445312,      -42.3889160156,      -10.0402832031,       73.0895996094
1489455881.0505208969,1489455881.0528140068,       -0.8769531250,        0.1206054688,       -0.0356445312,      -28.5797119141,      -11.8713378906,       71.2127685547
1489455881.0531010628,1489455881.0555438995,       -0.8769531250,        0.1206054688,       -0.0356445312,      -28.5797119141,      -11.8713378906,       71.2127685547
1489455881.0559399128,1489455881.0582320690,       -0.8266601562,        0.1162109375,       -0.0688476562,      -18.7683105469,      -13.8854980469,       68.9697265625
1489455881.0585179329,1489455881.0609200001,       -0.8266601562,        0.1162109375,       -0.0688476562,      -18.7683105469,      -13.8854980469,       68.9697265625
1489455881.0612130165,1489455881.0636179447,       -0.8266601562,        0.1162109375,       -0.0688476562,      -12.5885009766,      -17.3797607422,       67.3217773438
1489455881.0639119148,1489455881.0663139820,       -0.8266601562,        0.1162109375,       -0.0581054688,      -12.5885009766,      -17.3797607422,       67.3217773438
1489455881.0666060448,1489455881.0690429211,       -0.7592773438,        0.0908203125,       -0.0581054688,       -8.4686279297,      -20.6146240234,       64.7735595703
1489455881.0693330765,1489455881.0717329979,       -0.7592773438,        0.0908203125,       -0.0581054688,       -8.4686279297,      -20.6146240234,       64.7735595703
1489455881.0720250607,1489455881.0744199753,       -0.7592773438,        0.0908203125,       -0.0581054688,       -5.4931640625,      -21.9268798828,       62.8509521484
1489455881.0747079849,1489455881.0771090984,       -0.7324218750,        0.1108398438,       -0.0932617188,       -5.4931640625,      -21.9268798828,       62.8509521484
1489455881.0773990154,1489455881.0798981190,       -0.7324218750,        0.1108398438,       -0.0932617188,       -3.9520263672,      -22.0031738281,       60.8825683594
1489455881.0801870823,1489455881.0825669765,       -0.7324218750,        0.1108398438,       -0.0932617188,       -3.9520263672,      -22.0031738281,       60.8825683594
1489455881.0828540325,1489455881.0852389336,       -0.7324218750,        0.1108398438,       -0.0932617188,       -3.3416748047,      -22.3999023438,       59.2803955078
1489455881.0855269432,1489455881.0879070759,       -0.7377929688,        0.0830078125,       -0.1289062500,       -3.3416748047,      -22.3999023438,       59.2803955078
1489455881.0881938934,1489455881.0905621052,       -0.7377929688,        0.0830078125,       -0.1289062500,       -3.4484863281,      -23.2238769531,       57.1746826172
1489455881.0908439159,1489455881.0931410789,       -0.7377929688,        0.0830078125,       -0.1289062500,       -3.4484863281,      -23.2238769531,       57.1746826172
1489455881.0934219360,1489455881.0957150459,       -0.7377929688,        0.0830078125,       -0.1289062500,       -3.8146972656,      -22.8881835938,       54.9621582031
1489455881.0959970951,1489455881.0982909203,       -0.7387695312,        0.0092773438,       -0.1323242188,       -3.8146972656,      -22.8881835938,       54.9621582031
1489455881.0985751152,1489455881.1008861065,       -0.7387695312,        0.0092773438,       -0.1323242188,       -5.6762695312,      -23.5137939453,       52.3071289062
1489455881.1011700630,1489455881.1034619808,       -0.7387695312,        0.0092773438,       -0.1323242188,       -5.6762695312,      -23.5137939453,       52.3071289062
1489455881.1037440300,1489455881.1060340405,       -0.7387695312,        0.0092773438,       -0.1323242188,       -9.8266601562,      -24.4293212891,       50.7659912109
1489455881.1063160896,1489455881.1086049080,       -0.7050781250,       -0.0175781250,       -0.0517578125,       -9.8266601562,      -24.4293212891,       50.7659912109
1489455881.1089580059,1489455881.1113600731,       -0.7050781250,       -0.0175781250,       -0.0517578125,       -9.8266601562,      -25.7263183594,       49.7589111328
1489455881.1116440296,1489455881.1139340401,       -0.7050781250,       -0.0175781250,       -0.0517578125,      -14.0380859375,      -25.7263183594,       49.7589111328
1489455881.1142189503,1489455881.1165099144,       -0.7050781250,       -0.0175781250,        0.0170898438,      -14.0380859375,      -25.7263183594,       48.6297607422
1489455881.1167941093,1489455881.1191189289,       -0.6918945312,        0.0273437500,        0.0170898438,      -17.1051025391,      -25.7568359375,       48.6297607422
1489455881.1195120811,1489455881.1219289303,       -0.6918945312,        0.0273437500,        0.0170898438,      -17.1051025391,      -25.7568359375,       47.8363037109
1489455881.1222219467,1489455881.1246430874,       -0.6918945312,        0.0273437500,        0.0170898438,      -18.7072753906,      -25.7568359375,       47.8363037109
1489455881.1249330044,1489455881.1273469925,       -0.6918945312,        0.0639648438,        0.0366210938,      -18.7072753906,      -25.7568359375,       46.2341308594
1489455881.1276381016,1489455881.1300649643,       -0.7080078125,        0.0639648438,        0.0366210938,      -20.5993652344,      -25.1770019531,       46.2341308594
1489455881.1303560734,1489455881.1327719688,       -0.7080078125,        0.0639648438,        0.0366210938,      -20.5993652344,      -25.1770019531,       43.9910888672
1489455881.1330630779,1489455881.1354808807,       -0.7080078125,        0.0639648438,        0.0366210938,      -21.5301513672,      -24.2309570312,       43.9910888672
1489455881.1359388828,1489455881.1382329464,       -0.7485351562,        0.0869140625,        0.0522460938,      -21.5301513672,      -24.2309570312,       42.6635742188
1489455881.1385190487,1489455881.1409320831,       -0.7485351562,        0.0869140625,        0.0522460938,      -22.1557617188,      -23.6206054688,       42.6635742188
1489455881.1412169933,1489455881.1435139179,       -0.7485351562,        0.0869140625,        0.0522460938,      -22.1557617188,      -23.6206054688,       41.3055419922
1489455881.1437990665,1489455881.1462059021,       -0.7485351562,        0.0869140625,        0.0522460938,      -23.0102539062,      -24.1088867188,       41.3055419922
1489455881.1464920044,1489455881.1490619183,       -0.7846679688,        0.1264648438,        0.1254882812,      -23.0102539062,      -24.1088867188,       40.9851074219
1489455881.1493558884,1489455881.1517748833,       -0.7846679688,        0.1264648438,        0.1254882812,      -23.3154296875,      -24.7344970703,       40.9851074219
1489455881.1520669460,1489455881.1544849873,       -0.7846679688,        0.1264648438,        0.1254882812,      -23.3154296875,      -24.7344970703,       40.7562255859
1489455881.1547770500,1489455881.1572000980,       -0.7846679688,        0.1264648438,        0.1284179688,      -21.8200683594,      -24.8870849609,       40.7562255859
1489455881.1574900150,1489455881.1599209309,       -0.8095703125,        0.1733398438,        0.1284179688,      -21.8200683594,      -24.8870849609,       39.4744873047
1489455881.1602139473,1489455881.1626338959,       -0.8095703125,        0.1733398438,        0.1284179688,      -16.7541503906,      -23.8494873047,       39.4744873047
1489455881.1629240513,1489455881.1653370857,       -0.8095703125,        0.1733398438,        0.1284179688,      -16.7541503906,      -23.8494873047,       37.9180908203
1489455881.1656310558,1489455881.1680459976,       -0.8037109375,        0.1469726562,        0.0766601562,      -10.9558105469,      -23.3459472656,       37.9180908203
1489455881.1683380604,1489455881.1707611084,       -0.8037109375,        0.1469726562,        0.0766601562,      -10.9558105469,      -23.3459472656,       36.5142822266
1489455881.1710529327,1489455881.1734740734,       -0.8037109375,        0.1469726562,        0.0766601562,       -6.3781738281,      -22.9492187500,       36.5142822266
1489455881.1737649441,1489455881.1761829853,       -0.8037109375,        0.1469726562,        0.0766601562,       -6.3781738281,      -22.9492187500,       34.6984863281
1489455881.1764709949,1489455881.1789050102,       -0.7568359375,        0.0878906250,        0.0585937500,       -2.5787353516,      -22.9644775391,       34.6984863281
1489455881.1791880131,1489455881.1814711094,       -0.7568359375,        0.0878906250,        0.0585937500,       -2.5787353516,      -22.9644775391,       32.7453613281
1489455881.1817529202,1489455881.1840488911,       -0.7568359375,        0.0878906250,        0.0585937500,        0.7324218750,      -23.0102539062,       32.7453613281
1489455881.1843309402,1489455881.1869680882,       -0.7568359375,        0.0878906250,        0.0585937500,        0.7324218750,      -23.0102539062,       30.7769775391
1489455881.1873691082,1489455881.1896719933,       -0.7333984375,        0.1035156250,        0.0678710938,        3.6926269531,      -22.9492187500,       30.7769775391
1489455881.1899530888,1489455881.1922578812,       -0.7333984375,        0.1035156250,        0.0678710938,        3.6926269531,      -22.9492187500,       30.7769775391
1489455881.1925389767,1489455881.1948339939,       -0.7333984375,        0.1035156250,        0.0678710938,        7.8582763672,      -22.5524902344,       28.8848876953
1489455881.1951169968,1489455881.1974110603,       -0.7333984375,        0.1035156250,        0.0541992188,        7.8582763672,      -22.5524902344,       28.8848876953
1489455881.1976919174,1489455881.2001380920,       -0.7397460938,        0.1083984375,        0.0541992188,       10.5743408203,      -22.2015380859,       27.7709960938
1489455881.2004249096,1489455881.2027161121,       -0.7397460938,        0.1083984375,        0.0541992188,       10.5743408203,      -22.2015380859,       27.7709960938
1489455881.2030000687,1489455881.2052969933,       -0.7397460938,        0.1083984375,        0.0541992188,       11.5203857422,      -21.4385986328,       27.6489257812
1489455881.2055799961,1489455881.2078790665,       -0.7397460938,        0.0776367188,        0.0322265625,       11.5203857422,      -21.4385986328,       27.6489257812
1489455881.2081639767,1489455881.2106499672,       -0.7504882812,        0.0776367188,        0.0322265625,       11.8408203125,      -21.3012695312,       26.8859863281
1489455881.2109420300,1489455881.2133710384,       -0.7504882812,        0.0776367188,        0.0322265625,       11.8408203125,      -21.3012695312,       26.8859863281
1489455881.2136650085,1489455881.2160830498,       -0.7504882812,        0.0776367188,        0.0322265625,       11.1999511719,      -21.5301513672,       27.0233154297
1489455881.2163760662,1489455881.2188310623,       -0.7387695312,        0.0581054688,        0.0087890625,       11.1999511719,      -21.5301513672,       27.0233154297
1489455881.2191240788,1489455881.2215449810,       -0.7387695312,        0.0581054688,        0.0087890625,        9.0637207031,      -22.0031738281,       26.9470214844
1489455881.2218339443,1489455881.2242550850,       -0.7387695312,        0.0581054688,        0.0087890625,        9.0637207031,      -22.0031738281,       26.9470214844
1489455881.2245450020,1489455881.2269680500,       -0.7387695312,        0.0581054688,        0.0087890625,        5.9509277344,      -22.3999023438,       27.1759033203
1489455881.2272570133,1489455881.2296869755,       -0.7358398438,        0.0834960938,        0.0244140625,        5.9509277344,      -22.3999023438,       27.1759033203
1489455881.2299759388,1489455881.2323899269,       -0.7358398438,        0.0834960938,        0.0244140625,        3.1585693359,      -22.3388671875,       27.6336669922
1489455881.2326788902,1489455881.2352540493,       -0.7358398438,        0.0834960938,        0.0244140625,        3.1585693359,      -22.3388671875,       27.6336669922
1489455881.2355370522,1489455881.2378270626,       -0.7358398438,        0.0834960938,        0.0341796875,        0.9460449219,      -22.2625732422,       27.6794433594
1489455881.2381100655,1489455881.2404980659,       -0.7377929688,        0.0747070312,        0.0341796875,        0.9460449219,      -22.2625732422,       27.6794433594
1489455881.2407801151,1489455881.2430729866,       -0.7377929688,        0.0747070312,        0.0341796875,        0.2136230469,      -22.1405029297,       27.3590087891
1489455881.2433550358,1489455881.2465310097,       -0.7377929688,        0.0747070312,        0.0341796875,        0.2136230469,      -22.1405029297,       27.3590087891
1489455881.2468159199,1489455881.2492420673,       -0.7460937500,        0.0600585938,        0.0346679688,       -0.6713867188,      -21.8353271484,       26.8402099609
1489455881.2495260239,1489455881.2518138885,       -0.7460937500,        0.0600585938,        0.0346679688,       -0.6713867188,      -21.8353271484,       26.8402099609
1489455881.2522060871,1489455881.2544960976,       -0.7460937500,        0.0600585938,        0.0346679688,       -0.6713867188,      -21.5148925781,       26.5960693359
1489455881.2547779083,1489455881.2570650578,       -0.7460937500,        0.0600585938,        0.0346679688,       -0.6713867188,      -21.5148925781,       26.5960693359
1489455881.2573480606,1489455881.2596499920,       -0.7290039062,        0.0854492188,        0.0415039062,        0.9002685547,      -21.9879150391,       26.0162353516
1489455881.2599329948,1489455881.2622179985,       -0.7290039062,        0.0854492188,        0.0415039062,        0.9002685547,      -21.9879150391,       26.0162353516
1489455881.2625010014,1489455881.2647900581,       -0.7290039062,        0.0854492188,        0.0415039062,        3.1738281250,      -22.7050781250,       24.9328613281
1489455881.2650730610,1489455881.2673621178,       -0.7290039062,        0.0854492188,        0.0415039062,        3.1738281250,      -22.7050781250,       24.9328613281
1489455881.2676439285,1489455881.2699790001,       -0.7324218750,        0.1074218750,        0.0537109375,        8.7738037109,      -23.0712890625,       23.9257812500
1489455881.2702610493,1489455881.2725501060,       -0.7324218750,        0.1074218750,        0.0537109375,        8.7738037109,      -23.0712890625,       23.9257812500
1489455881.2728309631,1489455881.2751209736,       -0.7324218750,        0.1074218750,        0.0537109375,       15.7623291016,      -22.2930908203,       23.4069824219
1489455881.2754070759,1489455881.2776970863,       -0.7324218750,        0.1074218750,        0.0537109375,       15.7623291016,      -22.2930908203,       23.4069824219
1489455881.2779819965,1489455881.2802801132,       -0.7490234375,        0.0737304688,        0.0439453125,       21.0876464844,      -22.1557617188,       21.6979980469
1489455881.2805650234,1489455881.2828540802,       -0.7490234375,        0.0737304688,        0.0439453125,       21.0876464844,      -22.1557617188,       21.6979980469
1489455881.2831370831,1489455881.2854270935,       -0.7490234375,        0.0737304688,        0.0439453125,       21.0876464844,      -22.2167968750,       21.1791992188
1489455881.2857100964,1489455881.2879970074,       -0.7490234375,        0.0737304688,        0.0478515625,       23.8189697266,      -22.2167968750,       21.1791992188
1489455881.2882809639,1489455881.2907121181,       -0.7441406250,        0.0649414062,        0.0478515625,       23.8189697266,      -22.2167968750,       21.3317871094
1489455881.2909970284,1489455881.2932829857,       -0.7441406250,        0.0649414062,        0.0478515625,       25.6958007812,      -21.9879150391,       21.3317871094
1489455881.2935669422,1489455881.2958559990,       -0.7441406250,        0.0649414062,        0.0478515625,       25.6958007812,      -21.9879150391,       21.5911865234
1489455881.2961399555,1489455881.2984299660,       -0.7441406250,        0.0649414062,        0.0639648438,       27.6641845703,      -21.2402343750,       21.5911865234
1489455881.2987139225,1489455881.3011128902,       -0.7504882812,        0.0688476562,        0.0639648438,       27.6641845703,      -21.2402343750,       21.5911865234
1489455881.3013980389,1489455881.3036799431,       -0.7504882812,        0.0688476562,        0.0639648438,       28.9764404297,      -20.1110839844,       21.4080810547
1489455881.3039650917,1489455881.3062520027,       -0.7504882812,        0.0688476562,        0.0639648438,       28.9764404297,      -20.1110839844,       21.4080810547
1489455881.3065359592,1489455881.3088819981,       -0.6254882812,        0.0434570312,        0.0844726562,       30.3344726562,      -19.0887451172,       22.8729248047
1489455881.3091669083,1489455881.3114569187,       -0.7500000000,        0.0434570312,        0.0844726562,       30.3344726562,      -19.0887451172,       22.8729248047
1489455881.3117420673,1489455881.3140280247,       -0.7500000000,        0.0434570312,        0.0844726562,       30.8685302734,      -18.2037353516,       24.2004394531
1489455881.3144199848,1489455881.3167040348,       -0.7500000000,        0.0434570312,        0.0844726562,       30.8685302734,      -18.2037353516,       24.2004394531
1489455881.3169889450,1489455881.3193140030,       -0.7539062500,        0.0283203125,        0.0683593750,       29.3273925781,      -17.2729492188,       24.0325927734
1489455881.3196051121,1489455881.3220069408,       -0.7539062500,        0.0283203125,        0.0683593750,       29.3273925781,      -17.2729492188,       24.0325927734
1489455881.3222970963,1489455881.3247001171,       -0.7539062500,        0.0283203125,        0.0683593750,       26.5655517578,      -16.8304443359,       23.6968994141
1489455881.3249909878,1489455881.3273921013,       -0.7539062500,        0.0283203125,        0.0683593750,       26.5655517578,      -16.8304443359,       23.6968994141
1489455881.3276820183,1489455881.3300940990,       -0.7348632812,        0.0971679688,        0.0688476562,       22.4609375000,      -16.0675048828,       23.7121582031
1489455881.3303840160,1489455881.3327898979,       -0.7348632812,        0.0971679688,        0.0688476562,       22.4609375000,      -16.0675048828,       23.7121582031
1489455881.3330790997,1489455881.3354799747,       -0.7348632812,        0.0971679688,        0.0688476562,       19.8669433594,      -15.8233642578,       24.2004394531
1489455881.3357698917,1489455881.3381690979,       -0.7348632812,        0.0971679688,        0.0688476562,       19.8669433594,      -15.8233642578,       24.2004394531
1489455881.3384590149,1489455881.3408761024,       -0.7124023438,        0.1264648438,        0.0688476562,       18.7377929688,      -15.2893066406,       23.9105224609
1489455881.3411660194,1489455881.3435699940,       -0.7124023438,        0.1264648438,        0.0688476562,       18.7377929688,      -15.2893066406,       23.9105224609
1489455881.3438611031,1489455881.3462591171,       -0.7124023438,        0.1264648438,        0.0688476562,       16.9372558594,      -14.6179199219,       23.0865478516
1489455881.3465490341,1489455881.3489630222,       -0.7124023438,        0.0014648438,        0.0610351562,       16.9372558594,      -14.6179199219,       23.0865478516
1489455881.3492538929,1489455881.3516569138,       -0.7265625000,        0.1152343750,        0.0610351562,       15.6402587891,      -14.0991210938,       22.5372314453
1489455881.3519489765,1489455881.3543510437,       -0.7265625000,        0.1152343750,        0.0610351562,       15.6402587891,      -14.0991210938,       22.5372314453
1489455881.3546431065,1489455881.3571910858,       -0.7265625000,        0.1152343750,        0.0610351562,       15.6555175781,      -13.6260986328,       21.3623046875
1489455881.3574850559,1489455881.3600549698,       -0.7373046875,        0.1147460938,        0.0556640625,       15.6555175781,      -13.6260986328,       21.3623046875
1489455881.3603489399,1489455881.3627660275,       -0.7373046875,        0.1147460938,        0.0556640625,       16.0369873047,      -13.4582519531,       20.6298828125
1489455881.3630599976,1489455881.3654708862,       -0.7373046875,        0.1147460938,        0.0556640625,       16.0369873047,      -13.4582519531,       20.6298828125
1489455881.3657639027,1489455881.3681828976,       -0.7373046875,        0.1147460938,        0.0556640625,       16.6473388672,      -13.4582519531,       20.0500488281
1489455881.3684759140,1489455881.3709030151,       -0.7265625000,        0.1225585938,        0.0610351562,       16.6473388672,      -13.4582519531,       20.0500488281
1489455881.3711969852,1489455881.3736140728,       -0.7265625000,        0.1225585938,        0.0610351562,       16.9067382812,      -13.1225585938,       18.9666748047
1489455881.3739070892,1489455881.3763270378,       -0.7265625000,        0.1225585938,        0.0610351562,       16.9067382812,      -13.1225585938,       18.9666748047
1489455881.3766210079,1489455881.3790419102,       -0.7265625000,        0.1225585938,        0.0688476562,       16.7236328125,      -13.4887695312,       17.9901123047
1489455881.3794450760,1489455881.3818631172,       -0.7246093750,        0.1191406250,        0.0688476562,       16.7236328125,      -13.4887695312,       17.9901123047
1489455881.3821558952,1489455881.3845689297,       -0.7246093750,        0.1191406250,        0.0688476562,       16.7083740234,      -13.3056640625,       17.3950195312
1489455881.3848600388,1489455881.3872718811,       -0.7246093750,        0.1191406250,        0.0688476562,       16.7083740234,      -13.3056640625,       17.3950195312
1489455881.3875639439,1489455881.3899569511,       -0.7104492188,        0.1293945312,        0.0761718750,       16.7083740234,      -13.4582519531,       16.9219970703
1489455881.3902409077,1489455881.3925399780,       -0.7104492188,        0.1293945312,        0.0761718750,       16.7083740234,      -13.4582519531,       16.9219970703
1489455881.3928220272,1489455881.3951120377,       -0.7104492188,        0.1293945312,        0.0761718750,       16.9830322266,      -13.5955810547,       16.6625976562
1489455881.3953979015,1489455881.3976891041,       -0.7104492188,        0.1293945312,        0.0761718750,       16.9830322266,      -13.5955810547,       16.6625976562
1489455881.3979740143,1489455881.4002759457,       -0.7094726562,        0.1054687500,        0.0761718750,       17.4255371094,      -13.0004882812,       16.2658691406
1489455881.4005630016,1489455881.4028599262,       -0.7094726562,        0.1054687500,        0.0761718750,       17.4255371094,      -13.0004882812,       16.2658691406
1489455881.4031450748,1489455881.4054379463,       -0.7094726562,        0.1054687500,        0.0761718750,       16.7846679688,      -12.5427246094,       16.1743164062
1489455881.4057219028,1489455881.4080109596,       -0.7094726562,        0.1054687500,        0.0761718750,       16.7846679688,      -12.5427246094,       16.1743164062
1489455881.4082939625,1489455881.4106829166,       -0.7270507812,        0.1054687500,        0.0717773438,       16.7846679688,      -12.1765136719,       15.8538818359
1489455881.4109699726,1489455881.4132618904,       -0.7270507812,        0.1054687500,        0.0717773438,       15.7623291016,      -12.1765136719,       15.8538818359
1489455881.4135470390,1489455881.4158370495,       -0.7270507812,        0.1054687500,        0.0717773438,       15.7623291016,       -8.2702636719,       16.2200927734
1489455881.4161190987,1489455881.4184110165,       -0.7270507812,        0.1054687500,        0.0717773438,       14.6484375000,      -11.4746093750,       16.2200927734
1489455881.4186959267,1489455881.4212601185,       -0.7255859375,        0.1132812500,        0.0766601562,       14.6484375000,      -11.4746093750,       15.9454345703
1489455881.4215540886,1489455881.4239709377,       -0.7255859375,        0.1132812500,        0.0766601562,       13.6718750000,      -11.1083984375,       15.9454345703
1489455881.4242620468,1489455881.4266779423,       -0.7255859375,        0.1132812500,        0.0766601562,       13.6718750000,      -11.1083984375,       16.1590576172
1489455881.4269709587,1489455881.4294309616,       -0.7255859375,        0.1132812500,        0.0864257812,       11.8713378906,      -10.6658935547,       16.1590576172
1489455881.4297230244,1489455881.4321379662,       -0.7319335938,        0.1074218750,        0.0864257812,       11.8713378906,      -10.6658935547,       16.6778564453
1489455881.4324309826,1489455881.4348449707,       -0.7319335938,        0.1074218750,        0.0864257812,       10.5895996094,      -10.3302001953,       16.6778564453
1489455881.4351379871,1489455881.4375460148,       -0.7319335938,        0.1074218750,        0.0864257812,       10.5895996094,      -10.3302001953,       17.3034667969
1489455881.4378368855,1489455881.4401979446,       -0.7319335938,        0.1010742188,        0.0932617188,       10.0860595703,      -10.3149414062,       17.3034667969
1489455881.4404850006,1489455881.4427740574,       -0.7128906250,        0.1010742188,        0.0932617188,       10.0860595703,      -10.3149414062,       18.1274414062
1489455881.4431691170,1489455881.4454638958,       -0.7128906250,        0.1010742188,        0.0932617188,        9.9487304688,       -9.8724365234,       18.1274414062
1489455881.4457430840,1489455881.4480350018,       -0.7128906250,        0.1010742188,        0.0932617188,        9.9487304688,       -9.8724365234,       18.1274414062
1489455881.4483149052,1489455881.4506158829,       -0.7177734375,        0.1108398438,        0.0976562500,        8.7585449219,       -9.3841552734,       18.6462402344
1489455881.4508950710,1489455881.4531838894,       -0.7177734375,        0.1108398438,        0.0976562500,        8.7585449219,       -9.3841552734,       18.6462402344
1489455881.4534630775,1489455881.4557540417,       -0.7177734375,        0.1108398438,        0.0976562500,        7.7209472656,       -9.4146728516,       19.1345214844
1489455881.4560320377,1489455881.4583230019,       -0.7177734375,        0.1108398438,        0.0976562500,        7.7209472656,       -9.4146728516,       19.1345214844
1489455881.4586019516,1489455881.4610700607,       -0.7065429688,        0.1171875000,        0.0839843750,        6.8359375000,       -8.8653564453,       19.4091796875
1489455881.4613571167,1489455881.4637720585,       -0.7065429688,        0.1171875000,        0.0839843750,        6.8359375000,       -8.8653564453,       19.4091796875
1489455881.4640569687,1489455881.4664759636,       -0.7065429688,        0.1171875000,        0.0839843750,        5.8441162109,       -8.6975097656,       20.2026367188
1489455881.4667620659,1489455881.4692239761,       -0.7065429688,        0.1171875000,        0.0839843750,        5.8441162109,       -8.6975097656,       20.2026367188
1489455881.4695088863,1489455881.4719278812,       -0.7114257812,        0.1113281250,        0.0791015625,        4.7149658203,       -8.1939697266,       20.5688476562
1489455881.4722120762,1489455881.4748239517,       -0.7114257812,        0.1113281250,        0.0791015625,        4.7149658203,       -8.1939697266,       20.5688476562
1489455881.4751129150,1489455881.4775180817,       -0.7114257812,        0.1113281250,        0.0791015625,        3.5247802734,       -7.9345703125,       21.1639404297
1489455881.4778039455,1489455881.4806730747,       -0.7114257812,        0.1342773438,        0.0888671875,        3.5247802734,       -7.9345703125,       21.1639404297
1489455881.4809598923,1489455881.4833769798,       -0.6953125000,        0.1342773438,        0.0888671875,        2.3803710938,       -7.8887939453,       21.8658447266
1489455881.4836649895,1489455881.4860808849,       -0.6953125000,        0.1342773438,        0.0888671875,        2.3803710938,       -7.8887939453,       21.8658447266
1489455881.4863650799,1489455881.4887819290,       -0.6953125000,        0.1342773438,        0.0888671875,        1.7700195312,       -7.8277587891,       21.5454101562
1489455881.4891040325,1489455881.4913940430,       -0.7080078125,        0.1450195312,        0.0791015625,        1.7700195312,       -7.8277587891,       21.5454101562
1489455881.4916729927,1489455881.4939649105,       -0.7080078125,        0.1450195312,        0.0791015625,        2.0446777344,       -7.2937011719,       21.3623046875
1489455881.4942429066,1489455881.4965360165,       -0.7080078125,        0.1450195312,        0.0791015625,        2.0446777344,       -7.2937011719,       21.3623046875
1489455881.4968130589,1489455881.4991409779,       -0.7080078125,        0.1450195312,        0.0791015625,        2.6245117188,       -7.0495605469,       21.3775634766
1489455881.4994270802,1489455881.5018448830,       -0.7070312500,        0.1455078125,        0.0727539062,        2.6245117188,       -7.0495605469,       21.3775634766
1489455881.5021319389,1489455881.5045430660,       -0.7070312500,        0.1455078125,        0.0727539062,        2.5024414062,       -6.6070556641,       21.4843750000
1489455881.5048279762,1489455881.5072460175,       -0.7070312500,        0.1455078125,        0.0727539062,        2.5024414062,       -6.6070556641,       21.4843750000
1489455881.5076389313,1489455881.5100059509,       -0.7070312500,        0.1455078125,        0.0786132812,        2.6397705078,       -7.3852539062,       20.9197998047
1489455881.5102839470,1489455881.5125720501,       -0.7001953125,        0.1547851562,        0.0786132812,        2.6397705078,       -7.3852539062,       20.9197998047
1489455881.5128490925,1489455881.5151369572,       -0.7001953125,        0.1547851562,        0.0786132812,        3.0364990234,       -7.4768066406,       20.5993652344
1489455881.5154149532,1489455881.5177040100,       -0.7001953125,        0.1547851562,        0.0786132812,        3.0364990234,       -7.4768066406,       20.5993652344
1489455881.5179829597,1489455881.5202789307,       -0.7001953125,        0.1547851562,        0.0673828125,        3.4484863281,       -6.6833496094,       20.7061767578
1489455881.5205569267,1489455881.5228500366,       -0.6962890625,        0.1748046875,        0.0673828125,        3.4484863281,       -6.6833496094,       20.7061767578
1489455881.5231258869,1489455881.5254199505,       -0.6962890625,        0.1748046875,        0.0673828125,        2.6855468750,       -5.6610107422,       20.2026367188
1489455881.5256969929,1489455881.5279839039,       -0.6962890625,        0.1748046875,        0.0673828125,        2.6855468750,       -5.6610107422,       20.2026367188
1489455881.5282609463,1489455881.5307090282,       -0.6962890625,        0.1748046875,        0.0478515625,        2.0294189453,       -4.9896240234,       19.5617675781
1489455881.5309870243,1489455881.5332789421,       -0.7226562500,        0.1723632812,        0.0478515625,        2.0294189453,       -4.9896240234,       19.5617675781
1489455881.5335569382,1489455881.5358500481,       -0.7226562500,        0.1723632812,        0.0478515625,        2.0294189453,       -4.9896240234,       19.7753906250
1489455881.5361270905,1489455881.5384230614,       -0.7226562500,        0.1723632812,        0.0478515625,        2.0904541016,       -4.9896240234,       19.7753906250
1489455881.5387001038,1489455881.5411269665,       -0.7226562500,        0.1625976562,        0.0556640625,        2.0904541016,       -4.9896240234,       19.5312500000
1489455881.5414049625,1489455881.5438559055,       -0.7241210938,        0.1625976562,        0.0556640625,        2.6550292969,       -5.3558349609,       19.5312500000
1489455881.5441360474,1489455881.5464310646,       -0.7241210938,        0.1625976562,        0.0556640625,        2.6550292969,       -5.3558349609,       19.7753906250
1489455881.5467081070,1489455881.5491909981,       -0.7241210938,        0.1625976562,        0.0556640625,        3.1738281250,       -5.6610107422,       19.7753906250
1489455881.5494759083,1489455881.5518629551,       -0.7246093750,        0.1420898438,        0.0717773438,        3.1738281250,       -5.6610107422,       19.7753906250
1489455881.5521469116,1489455881.5546019077,       -0.7246093750,        0.1420898438,        0.0717773438,        3.7994384766,       -6.0272216797,       19.7753906250
1489455881.5548989773,1489455881.5573170185,       -0.7246093750,        0.1420898438,        0.0717773438,        3.7994384766,       -6.0272216797,       20.3704833984
1489455881.5575959682,1489455881.5598869324,       -0.7246093750,        0.1420898438,        0.0717773438,        4.3029785156,       -6.1950683594,       20.3704833984
1489455881.5601639748,1489455881.5624539852,       -0.7207031250,        0.1420898438,        0.0708007812,        4.3029785156,       -6.1950683594,       20.9503173828
1489455881.5627319813,1489455881.5650229454,       -0.7207031250,        0.1420898438,        0.0708007812,        4.2266845703,       -6.6223144531,       20.9503173828
1489455881.5653009415,1489455881.5675859451,       -0.7207031250,        0.1420898438,        0.0708007812,        4.2266845703,       -6.6223144531,       20.9503173828
1489455881.5678629875,1489455881.5702009201,       -0.7207031250,        0.1420898438,        0.0708007812,        3.9520263672,       -6.5460205078,       20.8740234375
1489455881.5705890656,1489455881.5728800297,       -0.7207031250,        0.1596679688,        0.0708007812,        3.9520263672,       -6.5460205078,       20.8740234375
1489455881.5731570721,1489455881.5754408836,       -0.7207031250,        0.1596679688,        0.0708007812,        3.5858154297,       -6.5307617188,       20.4772949219
1489455881.5757200718,1489455881.5780138969,       -0.7207031250,        0.1596679688,        0.0708007812,        3.5858154297,       -6.5307617188,       20.4772949219
1489455881.5782930851,1489455881.5805830956,       -0.7207031250,        0.1596679688,        0.0878906250,        3.4332275391,       -6.4086914062,       20.1416015625
1489455881.5808620453,1489455881.5831511021,       -0.7114257812,        0.1708984375,        0.0878906250,        3.4332275391,       -6.4086914062,       20.1416015625
1489455881.5834300518,1489455881.5857260227,       -0.7114257812,        0.1708984375,        0.0878906250,        3.8146972656,       -6.5460205078,       20.5993652344
1489455881.5860049725,1489455881.5882918835,       -0.7114257812,        0.1708984375,        0.0878906250,        3.8146972656,       -6.5460205078,       20.5993652344
1489455881.5885710716,1489455881.5908629894,       -0.7114257812,        0.1708984375,        0.0878906250,        3.8299560547,       -6.4849853516,       20.8435058594
1489455881.5911419392,1489455881.5934329033,       -0.7197265625,        0.1577148438,        0.0878906250,        3.8299560547,       -6.4849853516,       20.8435058594
1489455881.5937099457,1489455881.5959930420,       -0.7197265625,        0.1577148438,        0.0878906250,        4.3640136719,       -6.6375732422,       20.5841064453
1489455881.5962700844,1489455881.5985610485,       -0.7197265625,        0.1577148438,        0.0878906250,        4.3640136719,       -6.6375732422,       20.5841064453
1489455881.5989639759,1489455881.6012530327,       -0.7197265625,        0.1723632812,        0.0976562500,        4.3640136719,       -6.9580078125,       20.1416015625
1489455881.6015319824,1489455881.6038200855,       -0.7109375000,        0.1723632812,        0.0976562500,        5.7220458984,       -6.9580078125,       20.1416015625
1489455881.6040980816,1489455881.6063909531,       -0.7109375000,        0.1723632812,        0.0976562500,        5.7220458984,       -6.9580078125,       19.6685791016
1489455881.6066689491,1489455881.6089780331,       -0.7109375000,        0.1723632812,        0.0976562500,        7.2174072266,       -7.4920654297,       19.6685791016
1489455881.6092569828,1489455881.6115460396,       -0.7109375000,        0.1616210938,        0.0878906250,        7.2174072266,       -7.4920654297,       19.5159912109
1489455881.6118259430,1489455881.6141200066,       -0.7177734375,        0.1616210938,        0.0878906250,        8.8348388672,       -7.8887939453,       19.5159912109
1489455881.6143989563,1489455881.6166849136,       -0.7177734375,        0.1616210938,        0.0878906250,        8.8348388672,       -7.8887939453,       19.5159912109
1489455881.6169629097,1489455881.6192960739,       -0.7177734375,        0.1616210938,        0.0878906250,       10.4827880859,       -7.6141357422,       18.8903808594
1489455881.6195778847,1489455881.6218609810,       -0.7236328125,        0.1645507812,        0.0922851562,       10.4827880859,       -7.6141357422,       18.8903808594
1489455881.6221430302,1489455881.6244270802,       -0.7236328125,        0.1645507812,        0.0922851562,       11.9476318359,       -7.6446533203,       19.5007324219
1489455881.6247079372,1489455881.6269979477,       -0.7236328125,        0.1645507812,        0.0922851562,       11.9476318359,       -7.6446533203,       19.5007324219
1489455881.6272790432,1489455881.6296210289,       -0.7236328125,        0.1645507812,        0.0922851562,       13.7176513672,       -7.6446533203,       20.0653076172
1489455881.6299009323,1489455881.6321980953,       -0.7216796875,        0.1445312500,        0.1005859375,       13.7176513672,       -7.6446533203,       20.0653076172
1489455881.6325929165,1489455881.6348919868,       -0.7216796875,        0.1445312500,        0.1005859375,       15.1214599609,       -7.5836181641,       20.3704833984
1489455881.6351730824,1489455881.6374619007,       -0.7216796875,        0.1445312500,        0.1005859375,       15.1214599609,       -7.5836181641,       20.3704833984
1489455881.6377449036,1489455881.6401309967,       -0.7216796875,        0.1445312500,        0.1005859375,       15.2740478516,       -7.1868896484,       21.3317871094
1489455881.6404221058,1489455881.6428389549,       -0.7309570312,        0.1328125000,        0.1083984375,       15.2740478516,       -7.1868896484,       21.3317871094
1489455881.6431279182,1489455881.6455469131,       -0.7309570312,        0.1328125000,        0.1083984375,       14.7705078125,       -7.1105957031,       22.4304199219
1489455881.6458361149,1489455881.6482601166,       -0.7309570312,        0.1328125000,        0.1083984375,       14.7705078125,       -7.1105957031,       22.4304199219
1489455881.6485490799,1489455881.6509699821,       -0.7309570312,        0.1328125000,        0.1083984375,       14.6179199219,       -7.0953369141,       24.0783691406
1489455881.6512579918,1489455881.6536738873,       -0.7226562500,        0.1459960938,        0.0854492188,       14.6179199219,       -7.0953369141,       24.0783691406
1489455881.6539659500,1489455881.6563820839,       -0.7226562500,        0.1459960938,        0.0854492188,       15.3350830078,       -7.0800781250,       25.0244140625
1489455881.6566710472,1489455881.6590979099,       -0.7226562500,        0.1459960938,        0.0854492188,       15.3350830078,       -7.0800781250,       25.0244140625
1489455881.6593880653,1489455881.6618120670,       -0.7226562500,        0.1459960938,        0.0981445312,       15.7470703125,       -6.5155029297,       26.7028808594
1489455881.6621000767,1489455881.6645150185,       -0.7187500000,        0.1572265625,        0.0981445312,       15.7470703125,       -6.5155029297,       26.7028808594
1489455881.6648490429,1489455881.6674399376,       -0.7187500000,        0.1572265625,        0.0981445312,       16.1437988281,       -5.7830810547,       28.4881591797
1489455881.6677300930,1489455881.6702229977,       -0.7187500000,        0.1572265625,        0.0981445312,       16.1437988281,       -5.7830810547,       28.4881591797
1489455881.6705160141,1489455881.6729319096,       -0.7314453125,        0.1347656250,        0.1010742188,       16.3574218750,       -5.2642822266,       30.8227539062
1489455881.6732220650,1489455881.6756410599,       -0.7314453125,        0.1347656250,        0.1010742188,       16.3574218750,       -5.2642822266,       30.8227539062
1489455881.6759300232,1489455881.6783471107,       -0.7314453125,        0.1347656250,        0.1010742188,       17.7764892578,       -5.1116943359,       31.9213867188
1489455881.6786360741,1489455881.6809470654,       -0.7314453125,        0.1347656250,        0.1010742188,       17.7764892578,       -5.1116943359,       31.9213867188
1489455881.6812291145,1489455881.6835260391,       -0.7392578125,        0.1416015625,        0.1025390625,       19.3023681641,       -5.3558349609,       33.3709716797
1489455881.6838090420,1489455881.6860990524,       -0.7392578125,        0.1416015625,        0.1025390625,       19.3023681641,       -5.3558349609,       33.3709716797
1489455881.6863811016,1489455881.6886699200,       -0.7392578125,        0.1416015625,        0.1025390625,       20.4772949219,       -4.4708251953,       34.9121093750
1489455881.6889579296,1489455881.6913790703,       -0.7392578125,        0.1416015625,        0.1025390625,       20.4772949219,       -4.4708251953,       34.9121093750
1489455881.6916680336,1489455881.6940810680,       -0.7304687500,        0.1567382812,        0.0952148438,       22.3846435547,       -4.0435791016,       37.4755859375
1489455881.6943690777,1489455881.6967899799,       -0.7304687500,        0.1567382812,        0.0952148438,       22.3846435547,       -4.0435791016,       37.4755859375
1489455881.6971879005,1489455881.6996049881,       -0.7304687500,        0.1567382812,        0.0952148438,       22.6287841797,       -3.8146972656,       39.0472412109
1489455881.6998870373,1489455881.7021749020,       -0.7304687500,        0.1469726562,        0.0937500000,       22.6287841797,       -3.8146972656,       39.0472412109
1489455881.7024590969,1489455881.7047550678,       -0.7392578125,        0.1469726562,        0.0937500000,       22.6287841797,       -3.5552978516,       41.0461425781
1489455881.7050359249,1489455881.7073240280,       -0.7392578125,        0.1469726562,        0.0937500000,       22.8271484375,       -3.5552978516,       41.0461425781
1489455881.7076048851,1489455881.7099030018,       -0.7392578125,        0.1469726562,        0.0937500000,       22.8271484375,       -3.0212402344,       42.7398681641
1489455881.7101840973,1489455881.7124819756,       -0.7392578125,        0.1157226562,        0.0991210938,       22.2778320312,       -3.0212402344,       42.7398681641
1489455881.7127640247,1489455881.7150559425,       -0.7524414062,        0.1157226562,        0.0991210938,       22.2778320312,       -3.0212402344,       44.5251464844
1489455881.7153370380,1489455881.7176349163,       -0.7524414062,        0.1157226562,        0.0991210938,       20.4925537109,       -3.2196044922,       44.5251464844
1489455881.7179191113,1489455881.7203431129,       -0.7524414062,        0.1157226562,        0.0991210938,       20.4925537109,       -3.2196044922,       45.7458496094
1489455881.7206249237,1489455881.7229158878,       -0.7592773438,        0.1186523438,        0.1186523438,       18.8903808594,       -2.6855468750,       45.7458496094
1489455881.7231969833,1489455881.7254929543,       -0.7592773438,        0.1186523438,        0.1186523438,       18.8903808594,       -2.6855468750,       45.7458496094
1489455881.7257750034,1489455881.7280619144,       -0.7592773438,        0.1186523438,        0.1186523438,       17.6849365234,       -2.4261474609,       47.2412109375
1489455881.7283439636,1489455881.7308480740,       -0.7592773438,        0.1186523438,        0.1186523438,       17.6849365234,       -2.4261474609,       47.2412109375
1489455881.7311410904,1489455881.7335679531,       -0.7480468750,        0.1850585938,        0.0864257812,       17.0440673828,       -1.9989013672,       48.0957031250
1489455881.7338559628,1489455881.7362670898,       -0.7480468750,        0.1850585938,        0.0864257812,       17.0440673828,       -1.9989013672,       48.0957031250
1489455881.7365570068,1489455881.7389800549,       -0.7480468750,        0.1850585938,        0.0864257812,       16.8151855469,       -1.0986328125,       49.1790771484
1489455881.7392680645,1489455881.7416810989,       -0.7480468750,        0.1850585938,        0.0864257812,       16.8151855469,       -1.0986328125,       49.1790771484
1489455881.7419691086,1489455881.7443859577,       -0.7236328125,        0.2382812500,        0.0927734375,       18.1121826172,       -0.9460449219,       49.6673583984
1489455881.7446780205,1489455881.7470951080,       -0.7236328125,        0.2382812500,        0.0927734375,       18.1121826172,       -0.9460449219,       49.6673583984
1489455881.7473840714,1489455881.7498459816,       -0.7236328125,        0.2382812500,        0.0927734375,       19.6838378906,       -0.9002685547,       49.1180419922
1489455881.7501370907,1489455881.7525539398,       -0.7236328125,        0.2382812500,        0.0864257812,       19.6838378906,       -0.9002685547,       49.1180419922
1489455881.7528429031,1489455881.7552599907,       -0.7182617188,        0.2470703125,        0.0864257812,       21.3470458984,       -0.9765625000,       48.3551025391
1489455881.7555499077,1489455881.7579610348,       -0.7182617188,        0.2470703125,        0.0864257812,       21.3470458984,       -0.9765625000,       48.3551025391
1489455881.7582530975,1489455881.7605879307,       -0.7182617188,        0.2470703125,        0.0864257812,       22.6135253906,       -1.0833740234,       47.9888916016
1489455881.7609729767,1489455881.7632648945,       -0.7109375000,        0.2348632812,        0.0800781250,       22.6135253906,       -1.0833740234,       47.9888916016
1489455881.7635478973,1489455881.7658379078,       -0.7109375000,        0.2348632812,        0.0800781250,       23.2543945312,       -1.1596679688,       47.9583740234
1489455881.7661190033,1489455881.7684180737,       -0.7109375000,        0.2348632812,        0.0800781250,       23.2543945312,       -1.1596679688,       47.9583740234
1489455881.7686989307,1489455881.7710790634,       -0.7109375000,        0.2348632812,        0.0800781250,       22.6135253906,       -0.5340576172,       47.3632812500
1489455881.7713620663,1489455881.7736530304,       -0.7270507812,        0.2587890625,        0.0976562500,       22.6135253906,       -0.5340576172,       47.3632812500
1489455881.7739360332,1489455881.7762360573,       -0.7270507812,        0.2587890625,        0.0976562500,       22.7508544922,       -0.5187988281,       46.9665527344
1489455881.7765169144,1489455881.7788589001,       -0.7270507812,        0.2587890625,        0.0976562500,       22.7508544922,       -0.5187988281,       46.9665527344
1489455881.7791481018,1489455881.7815508842,       -0.7270507812,        0.2587890625,        0.0976562500,       22.8271484375,       -1.0223388672,       47.0275878906
1489455881.7818410397,1489455881.7842400074,       -0.7329101562,        0.2451171875,        0.0903320312,       22.8271484375,       -1.0223388672,       47.0275878906
1489455881.7845299244,1489455881.7870230675,       -0.7329101562,        0.2451171875,        0.0903320312,       22.2625732422,       -0.5798339844,       47.4548339844
1489455881.7873129845,1489455881.7900500298,       -0.7329101562,        0.2451171875,        0.0903320312,       22.2625732422,       -0.5798339844,       47.4548339844
1489455881.7903420925,1489455881.7927629948,       -0.7329101562,        0.2451171875,        0.0844726562,       22.1862792969,       -0.5645751953,       47.9278564453
1489455881.7930529118,1489455881.7954790592,       -0.7314453125,        0.2504882812,        0.0844726562,       22.1862792969,       -0.5645751953,       47.9278564453
1489455881.7957689762,1489455881.7981829643,       -0.7314453125,        0.2504882812,        0.0844726562,       22.4304199219,       -0.3051757812,       48.6297607422
1489455881.7984709740,1489455881.8008990288,       -0.7314453125,        0.2504882812,        0.0844726562,       22.4304199219,       -0.3051757812,       48.6297607422
1489455881.8011889458,1489455881.8036060333,       -0.7314453125,        0.2773437500,        0.0893554688,       23.3001708984,       -0.0610351562,       49.1943359375
1489455881.8038949966,1489455881.8063089848,       -0.7250976562,        0.2773437500,        0.0893554688,       23.3001708984,       -0.0610351562,       49.1943359375
1489455881.8065979481,1489455881.8090319633,       -0.7250976562,        0.2773437500,        0.0893554688,       24.2767333984,       -0.2593994141,       48.8433837891
1489455881.8093209267,1489455881.8117411137,       -0.7250976562,        0.2773437500,        0.0893554688,       24.2767333984,       -0.2593994141,       48.8433837891
1489455881.8120288849,1489455881.8144419193,       -0.7304687500,        0.2641601562,        0.0712890625,       24.5513916016,       -0.3051757812,       48.9196777344
1489455881.8147320747,1489455881.8171560764,       -0.7304687500,        0.2641601562,        0.0712890625,       24.5513916016,       -0.3051757812,       48.9196777344
1489455881.8174469471,1489455881.8198220730,       -0.7304687500,        0.2641601562,        0.0712890625,       23.8647460938,       -0.5187988281,       49.0570068359
1489455881.8201050758,1489455881.8223919868,       -0.7304687500,        0.2641601562,        0.0712890625,       23.8647460938,       -0.5187988281,       49.0570068359
1489455881.8226759434,1489455881.8249680996,       -0.7714843750,        0.2309570312,        0.0585937500,       21.8811035156,        0.3051757812,       49.9420166016
1489455881.8252520561,1489455881.8275370598,       -0.7714843750,        0.2309570312,        0.0585937500,       21.8811035156,        0.3051757812,       49.9420166016
1489455881.8279280663,1489455881.8302268982,       -0.7714843750,        0.2309570312,        0.0585937500,       19.4702148438,        0.7171630859,       51.0559082031
1489455881.8305099010,1489455881.8328020573,       -0.7714843750,        0.2309570312,        0.0585937500,       19.4702148438,        0.7171630859,       51.0559082031
1489455881.8330850601,1489455881.8353760242,       -0.7563476562,        0.2719726562,        0.0478515625,       19.4702148438,        0.7019042969,       52.2003173828
1489455881.8356568813,1489455881.8379499912,       -0.7563476562,        0.2719726562,        0.0478515625,       17.6544189453,        0.7019042969,       52.2003173828
1489455881.8382320404,1489455881.8406789303,       -0.7563476562,        0.2719726562,        0.0478515625,       17.6544189453,        0.4577636719,       52.7343750000
1489455881.8409609795,1489455881.8432519436,       -0.7563476562,        0.2719726562,        0.0502929688,       18.0358886719,        0.4577636719,       52.7343750000
1489455881.8435320854,1489455881.8458280563,       -0.7431640625,        0.3046875000,        0.0502929688,       18.0358886719,        0.4577636719,       52.8259277344
1489455881.8461110592,1489455881.8483989239,       -0.7431640625,        0.3046875000,        0.0502929688,       18.7225341797,        0.4119873047,       52.8259277344
1489455881.8486800194,1489455881.8511810303,       -0.7431640625,        0.3046875000,        0.0502929688,       18.7225341797,        0.4119873047,       52.1850585938
1489455881.8514740467,1489455881.8538839817,       -0.7431640625,        0.3222656250,        0.0395507812,       19.3786621094,        0.5798339844,       52.1850585938
1489455881.8541719913,1489455881.8565850258,       -0.7402343750,        0.3222656250,        0.0395507812,       19.3786621094,        0.5798339844,       51.7425537109
1489455881.8568730354,1489455881.8593020439,       -0.7402343750,        0.3222656250,        0.0395507812,       20.6604003906,        0.7324218750,       51.7425537109
1489455881.8595929146,1489455881.8620018959,       -0.7402343750,        0.3222656250,        0.0395507812,       20.6604003906,        0.7324218750,       51.5594482422
1489455881.8622899055,1489455881.8647038937,       -0.7475585938,        0.3100585938,        0.0546875000,       21.3470458984,        0.8392333984,       51.5594482422
1489455881.8649950027,1489455881.8674108982,       -0.7475585938,        0.3100585938,        0.0546875000,       21.3470458984,        0.8392333984,       51.6662597656
1489455881.8677000999,1489455881.8700640202,       -0.7475585938,        0.3100585938,        0.0546875000,       21.8200683594,        0.7934570312,       51.6662597656
1489455881.8703451157,1489455881.8726370335,       -0.7475585938,        0.3100585938,        0.0546875000,       21.8200683594,        0.7934570312,       51.6662597656
1489455881.8729190826,1489455881.8752100468,       -0.7451171875,        0.3081054688,        0.0664062500,       22.5982666016,        0.9307861328,       52.0629882812
1489455881.8754930496,1489455881.8777821064,       -0.7451171875,        0.3081054688,        0.0664062500,       22.5982666016,        0.9307861328,       52.0629882812
1489455881.8780651093,1489455881.8804919720,       -0.7451171875,        0.3081054688,        0.0664062500,       23.4375000000,        0.9002685547,       52.7038574219
1489455881.8807799816,1489455881.8831930161,       -0.7451171875,        0.3081054688,        0.0664062500,       23.4375000000,        0.9002685547,       52.7038574219
1489455881.8834810257,1489455881.8858950138,       -0.7612304688,        0.3032226562,        0.0883789062,       24.2919921875,        0.9460449219,       53.0700683594
1489455881.8861839771,1489455881.8886001110,       -0.7612304688,        0.3032226562,        0.0883789062,       24.2919921875,        0.9460449219,       53.0700683594
1489455881.8888990879,1489455881.8913159370,       -0.7612304688,        0.3032226562,        0.0883789062,       25.8636474609,        0.8239746094,       53.5888671875
1489455881.8917191029,1489455881.8941431046,       -0.7612304688,        0.3056640625,        0.0854492188,       25.8636474609,        0.8239746094,       53.5888671875
1489455881.8944320679,1489455881.8968470097,       -0.7719726562,        0.3056640625,        0.0854492188,       26.6571044922,        1.1291503906,       54.5043945312
1489455881.8971390724,1489455881.8995699883,       -0.7719726562,        0.3056640625,        0.0854492188,       26.6571044922,        1.1291503906,       54.5043945312
1489455881.8998599052,1489455881.9022789001,       -0.7719726562,        0.3056640625,        0.0854492188,       27.8015136719,        1.8310546875,       55.8166503906
1489455881.9025690556,1489455881.9049859047,       -0.7705078125,        0.3056640625,        0.0737304688,       27.8015136719,        1.8310546875,       55.8166503906
1489455881.9052860737,1489455881.9077050686,       -0.7705078125,        0.3056640625,        0.0737304688,       29.2968750000,        2.1667480469,       56.7321777344
