time_stamp before, time_stamp after, Acceleration x, Acceleration y, Acceleration z, Gyro x, Gyro y, Gyro z
1489455760.4207420349,1489455760.4328620434,       -0.7119140625,        0.1821289062,        0.0410156250,       -0.6713867188,        3.0212402344,       -0.6408691406
1489455760.4331750870,1489455760.4356529713,       -0.7065429688,        0.1879882812,        0.0410156250,        3.2348632812,        2.2888183594,       -0.2288818359
1489455760.4359390736,1489455760.4383730888,       -0.7065429688,        0.1879882812,        0.0410156250,        0.1068115234,        2.2888183594,       -0.2288818359
1489455760.4386548996,1489455760.4409670830,       -0.7065429688,        0.1879882812,        0.0410156250,        0.1068115234,        1.4343261719,        0.6256103516
1489455760.4412419796,1489455760.4435300827,       -0.7065429688,        0.1987304688,        0.0454101562,        1.3122558594,        1.4343261719,        0.6256103516
1489455760.4438021183,1489455760.4460918903,       -0.7065429688,        0.1987304688,        0.0454101562,        1.3122558594,        1.4343261719,        0.7629394531
1489455760.4463620186,1489455760.4486570358,       -0.7065429688,        0.1987304688,        0.0454101562,        3.8757324219,        0.5340576172,        0.7629394531
1489455760.4489200115,1489455760.4519519806,       -0.7065429688,        0.1987304688,        0.0454101562,        3.8757324219,        0.2593994141,        1.2969970703
1489455760.4522399902,1489455760.4546511173,       -0.7211914062,        0.2036132812,        0.0351562500,        6.3934326172,        0.2593994141,        1.2969970703
1489455760.4549300671,1489455760.4573500156,       -0.7211914062,        0.2036132812,        0.0351562500,        6.3934326172,       -0.0762939453,        1.3732910156
1489455760.4576299191,1489455760.4599969387,       -0.7211914062,        0.2036132812,        0.0351562500,        7.7514648438,       -0.0762939453,        1.3732910156
1489455760.4602670670,1489455760.4625620842,       -0.7211914062,        0.2036132812,        0.0664062500,        7.7514648438,        3.8299560547,        1.9683837891
1489455760.4628319740,1489455760.4651179314,       -0.7270507812,        0.1782226562,        0.0664062500,        9.4146728516,        0.0152587891,        1.9683837891
1489455760.4653890133,1489455760.4676771164,       -0.7270507812,        0.1782226562,        0.0664062500,        9.4146728516,        0.0152587891,        3.2653808594
1489455760.4679479599,1489455760.4702579975,       -0.7270507812,        0.1782226562,        0.0664062500,       10.3302001953,        0.6561279297,        3.2653808594
1489455760.4705369473,1489455760.4728279114,       -0.7270507812,        0.1806640625,        0.0654296875,       10.3302001953,        0.6561279297,        7.1716308594
1489455760.4731049538,1489455760.4753909111,       -0.7236328125,        0.1806640625,        0.0654296875,       10.7116699219,        0.4730224609,        3.9978027344
1489455760.4756710529,1489455760.4779629707,       -0.7236328125,        0.1806640625,        0.0654296875,       10.7116699219,        0.4730224609,        3.9978027344
1489455760.4782400131,1489455760.4806020260,       -0.7236328125,        0.1806640625,        0.0654296875,       11.3983154297,        0.7019042969,        5.0659179688
1489455760.4808800220,1489455760.4831769466,       -0.7236328125,        0.1743164062,        0.0698242188,       11.3983154297,        0.7019042969,        5.0659179688
1489455760.4834549427,1489455760.4857430458,       -0.7172851562,        0.1743164062,        0.0698242188,       11.9018554688,        1.4038085938,        6.1645507812
1489455760.4860219955,1489455760.4883050919,       -0.7172851562,        0.1743164062,        0.0698242188,       11.9018554688,        1.4038085938,        6.1645507812
1489455760.4885818958,1489455760.4910619259,       -0.7172851562,        0.1743164062,        0.0698242188,       10.7116699219,        1.8768310547,        6.7291259766
1489455760.4913399220,1489455760.4936299324,       -0.7392578125,        0.1372070312,        0.0717773438,       10.7116699219,        1.8768310547,        6.7291259766
1489455760.4940640926,1489455760.4963579178,       -0.7392578125,        0.1372070312,        0.0717773438,        9.3536376953,        3.0212402344,        7.7972412109
1489455760.4966320992,1489455760.4990398884,       -0.7392578125,        0.1372070312,        0.0717773438,        9.3536376953,        3.0212402344,        7.7972412109
1489455760.4993340969,1489455760.5017569065,       -0.7392578125,        0.1372070312,        0.0717773438,        8.9111328125,        4.3029785156,        8.7127685547
1489455760.5020411015,1489455760.5044639111,       -0.7446289062,        0.1630859375,        0.0791015625,        8.9111328125,        4.3029785156,        8.7127685547
1489455760.5047481060,1489455760.5071599483,       -0.7446289062,        0.1630859375,        0.0791015625,        8.7585449219,        4.8370361328,        9.2620849609
1489455760.5074410439,1489455760.5098640919,       -0.7446289062,        0.1630859375,        0.0791015625,        8.7585449219,        4.8370361328,        9.2620849609
1489455760.5101459026,1489455760.5125648975,       -0.7446289062,        0.1630859375,        0.0791015625,        9.5825195312,        5.4779052734,        9.2926025391
1489455760.5128459930,1489455760.5152809620,       -0.7421875000,        0.2041015625,        0.0498046875,        9.5825195312,        5.4779052734,        9.2926025391
1489455760.5155580044,1489455760.5178480148,       -0.7421875000,        0.2041015625,        0.0498046875,        9.8266601562,        5.4473876953,        9.0026855469
1489455760.5181219578,1489455760.5205318928,       -0.7421875000,        0.2041015625,        0.0498046875,        9.8266601562,        5.4473876953,        9.0026855469
1489455760.5208079815,1489455760.5231039524,       -0.7421875000,        0.2041015625,        0.0322265625,       10.1165771484,        6.0729980469,        8.8653564453
1489455760.5233829021,1489455760.5264859200,       -0.7319335938,        0.2006835938,        0.0322265625,       10.1165771484,        6.0729980469,        8.8653564453
1489455760.5267679691,1489455760.5290999413,       -0.7319335938,        0.2006835938,        0.0322265625,        9.9639892578,        6.2866210938,        8.2550048828
1489455760.5293769836,1489455760.5316650867,       -0.7319335938,        0.2006835938,        0.0322265625,        9.9639892578,        6.2866210938,        8.2550048828
1489455760.5319390297,1489455760.5342280865,       -0.7216796875,        0.2080078125,        0.0346679688,        8.0718994141,        6.1492919922,        7.6599121094
1489455760.5345020294,1489455760.5369250774,       -0.7216796875,        0.2080078125,        0.0346679688,        8.0718994141,        6.1492919922,        7.6599121094
1489455760.5371999741,1489455760.5394930840,       -0.7216796875,        0.2080078125,        0.0346679688,        6.5155029297,        6.2866210938,        7.3852539062
1489455760.5397679806,1489455760.5420560837,       -0.7216796875,        0.2080078125,        0.0346679688,        6.5155029297,        6.2866210938,        7.3852539062
1489455760.5423309803,1489455760.5446190834,       -0.7236328125,        0.2045898438,        0.0283203125,        4.7454833984,        5.9814453125,        7.1868896484
1489455760.5448920727,1489455760.5471789837,       -0.7236328125,        0.2045898438,        0.0283203125,        4.7454833984,        5.9814453125,        7.1868896484
1489455760.5474510193,1489455760.5497939587,       -0.7236328125,        0.2045898438,        0.0283203125,        4.7454833984,        6.1492919922,        7.1716308594
1489455760.5500650406,1489455760.5523591042,       -0.7236328125,        0.2045898438,        0.0283203125,        2.4566650391,        6.1492919922,        7.1716308594
1489455760.5526309013,1489455760.5549180508,       -0.7163085938,        0.2089843750,        0.0419921875,        2.4566650391,        6.1492919922,        7.0190429688
1489455760.5551910400,1489455760.5574779510,       -0.7163085938,        0.2089843750,        0.0419921875,       -0.0610351562,        6.2713623047,        7.0190429688
1489455760.5578639507,1489455760.5601949692,       -0.7163085938,        0.2089843750,        0.0419921875,       -0.0610351562,        6.2713623047,        6.8817138672
1489455760.5604689121,1489455760.5627551079,       -0.7163085938,        0.2089843750,        0.0419921875,       -1.0070800781,        7.0648193359,        6.8817138672
1489455760.5630269051,1489455760.5653169155,       -0.6923828125,        0.2167968750,        0.0502929688,       -1.0070800781,        7.0648193359,        6.8817138672
1489455760.5655889511,1489455760.5678761005,       -0.6923828125,        0.2167968750,        0.0502929688,       -0.5035400391,        6.1645507812,        7.3699951172
1489455760.5681500435,1489455760.5705211163,       -0.6923828125,        0.2167968750,        0.0502929688,       -0.5035400391,        6.1645507812,        7.3699951172
1489455760.5707960129,1489455760.5730950832,       -0.6923828125,        0.2167968750,        0.0502929688,       -0.0152587891,        6.0272216797,        7.3699951172
1489455760.5733680725,1489455760.5756630898,       -0.7011718750,        0.2153320312,        0.0366210938,       -0.0152587891,        6.0272216797,        7.3699951172
1489455760.5759379864,1489455760.5782289505,       -0.7011718750,        0.2153320312,        0.0366210938,        0.4119873047,        6.1950683594,        6.8511962891
1489455760.5785028934,1489455760.5809910297,       -0.7011718750,        0.2153320312,        0.0366210938,        0.4119873047,        6.1950683594,        6.8511962891
1489455760.5812740326,1489455760.5836789608,       -0.7011718750,        0.2153320312,        0.0449218750,        1.1138916016,        6.3629150391,        6.5002441406
1489455760.5839579105,1489455760.5863630772,       -0.6933593750,        0.2192382812,        0.0449218750,        1.1138916016,        6.3629150391,        6.5002441406
1489455760.5866420269,1489455760.5890569687,       -0.6933593750,        0.2192382812,        0.0449218750,        1.2207031250,        6.5002441406,        6.2408447266
1489455760.5893380642,1489455760.5917448997,       -0.6933593750,        0.2192382812,        0.0449218750,        1.2207031250,        6.5002441406,        6.2408447266
1489455760.5920250416,1489455760.5944280624,       -0.6933593750,        0.2382812500,        0.0541992188,        2.3651123047,        5.5541992188,        5.8746337891
1489455760.5947089195,1489455760.5971119404,       -0.6865234375,        0.2382812500,        0.0541992188,        2.3651123047,        5.5541992188,        5.8746337891
1489455760.5973908901,1489455760.5998389721,       -0.6865234375,        0.2382812500,        0.0541992188,        3.6773681641,        4.6539306641,        5.0811767578
1489455760.6001179218,1489455760.6025240421,       -0.6865234375,        0.2382812500,        0.0541992188,        3.6773681641,        4.6539306641,        5.0811767578
1489455760.6028039455,1489455760.6052119732,       -0.6875000000,        0.2363281250,        0.0361328125,        4.6997070312,        4.7912597656,        4.7454833984
1489455760.6054909229,1489455760.6078939438,       -0.6875000000,        0.2363281250,        0.0361328125,        4.6997070312,        4.7912597656,        4.7454833984
1489455760.6081750393,1489455760.6106650829,       -0.6875000000,        0.2363281250,        0.0361328125,        5.3253173828,        4.8370361328,        4.5928955078
1489455760.6109390259,1489455760.6132340431,       -0.6875000000,        0.2363281250,        0.0361328125,        5.3253173828,        4.8370361328,        4.5928955078
1489455760.6135060787,1489455760.6158010960,       -0.6948242188,        0.2236328125,        0.0190429688,        5.1574707031,        4.8675537109,        4.4097900391
1489455760.6160740852,1489455760.6183760166,       -0.6948242188,        0.2236328125,        0.0190429688,        5.1574707031,        4.8675537109,        4.4097900391
1489455760.6186480522,1489455760.6211719513,       -0.6948242188,        0.2236328125,        0.0190429688,        5.4168701172,        5.0354003906,        4.1503906250
1489455760.6215600967,1489455760.6239469051,       -0.6948242188,        0.2236328125,        0.0205078125,        5.4168701172,        5.0354003906,        4.1503906250
1489455760.6247661114,1489455760.6271760464,       -0.6977539062,        0.2163085938,        0.0205078125,        5.8135986328,        5.0506591797,        4.3487548828
1489455760.6274580956,1489455760.6298611164,       -0.6977539062,        0.2163085938,        0.0205078125,        5.8135986328,        5.0506591797,        4.3487548828
1489455760.6301391125,1489455760.6325259209,       -0.6977539062,        0.2163085938,        0.0205078125,        6.0882568359,        4.6539306641,        4.4860839844
1489455760.6328029633,1489455760.6351819038,       -0.7065429688,        0.2172851562,        0.0239257812,        6.0882568359,        4.6539306641,        4.4860839844
1489455760.6354598999,1489455760.6379890442,       -0.7065429688,        0.2172851562,        0.0239257812,        6.4697265625,        4.6234130859,        4.6539306641
1489455760.6382699013,1489455760.6406960487,       -0.7065429688,        0.2172851562,        0.0239257812,        6.4697265625,        4.6234130859,        4.6539306641
1489455760.6409769058,1489455760.6433899403,       -0.7065429688,        0.2172851562,        0.0239257812,        6.7749023438,        4.4250488281,        4.8828125000
1489455760.6436700821,1489455760.6460919380,       -0.7285156250,        0.1899414062,        0.0263671875,        6.7749023438,        4.4250488281,        4.8828125000
1489455760.6463730335,1489455760.6487851143,       -0.7285156250,        0.1899414062,        0.0263671875,        6.8359375000,        4.7149658203,        4.5318603516
1489455760.6491079330,1489455760.6515231133,       -0.7285156250,        0.1899414062,        0.0263671875,        6.8359375000,        4.7149658203,        4.5318603516
1489455760.6518030167,1489455760.6542251110,       -0.7285156250,        0.1899414062,        0.0239257812,        5.2642822266,        4.6081542969,        4.6386718750
1489455760.6545050144,1489455760.6569221020,       -0.7260742188,        0.2060546875,        0.0239257812,        5.2642822266,        4.6081542969,        4.6386718750
1489455760.6572020054,1489455760.6595931053,       -0.7260742188,        0.2060546875,        0.0239257812,        4.6844482422,        4.3945312500,        4.8675537109
1489455760.6598670483,1489455760.6621570587,       -0.7260742188,        0.2060546875,        0.0239257812,        4.6844482422,        4.3945312500,        4.8675537109
1489455760.6624300480,1489455760.6647160053,       -0.7260742188,        0.2290039062,        0.0239257812,        5.2032470703,        4.4097900391,        4.7912597656
1489455760.6649880409,1489455760.6672830582,       -0.7089843750,        0.2290039062,        0.0239257812,        5.2032470703,        4.4097900391,        4.7912597656
1489455760.6675550938,1489455760.6699569225,       -0.7089843750,        0.2290039062,        0.0239257812,        5.5541992188,        4.3792724609,        4.6691894531
1489455760.6702299118,1489455760.6725220680,       -0.7089843750,        0.2290039062,        0.0239257812,        5.5541992188,        4.3792724609,        4.6691894531
1489455760.6727960110,1489455760.6750950813,       -0.7089843750,        0.2304687500,        0.0312500000,        5.5541992188,        4.2724609375,        4.2419433594
1489455760.6753671169,1489455760.6776518822,       -0.6962890625,        0.2304687500,        0.0312500000,        5.7983398438,        4.2724609375,        4.2419433594
1489455760.6779239178,1489455760.6803839207,       -0.6962890625,        0.2304687500,        0.0312500000,        5.7983398438,        4.0283203125,        4.3182373047
1489455760.6806640625,1489455760.6830639839,       -0.6962890625,        0.2304687500,        0.0312500000,        6.1187744141,        4.0283203125,        4.3182373047
1489455760.6833429337,1489455760.6857409477,       -0.6855468750,        0.2333984375,        0.0375976562,        6.1187744141,        0.1220703125,        4.3029785156
1489455760.6861300468,1489455760.6885390282,       -0.6855468750,        0.2333984375,        0.0375976562,        6.8206787109,        3.8604736328,        4.3029785156
1489455760.6888239384,1489455760.6912209988,       -0.6855468750,        0.2333984375,        0.0375976562,        6.8206787109,        3.8604736328,        4.1656494141
1489455760.6914999485,1489455760.6938970089,       -0.6855468750,        0.2333984375,        0.0375976562,        7.4310302734,        3.6773681641,        4.1656494141
1489455760.6941750050,1489455760.6965830326,       -0.6826171875,        0.2304687500,        0.0415039062,        7.4310302734,        3.6773681641,        3.5552978516
1489455760.6968638897,1489455760.6992740631,       -0.6826171875,        0.2304687500,        0.0415039062,        9.3841552734,        3.2806396484,        3.5552978516
1489455760.6995539665,1489455760.7019560337,       -0.6826171875,        0.2304687500,        0.0415039062,        9.3841552734,        3.2806396484,        3.0975341797
1489455760.7022349834,1489455760.7046439648,       -0.6826171875,        0.2304687500,        0.0415039062,       11.0778808594,        3.0822753906,        3.0975341797
1489455760.7049310207,1489455760.7073340416,       -0.6826171875,        0.2333984375,        0.0463867188,       11.0778808594,        3.0822753906,        2.5787353516
1489455760.7076170444,1489455760.7100410461,       -0.6826171875,        0.2333984375,        0.0463867188,       12.7563476562,        2.8839111328,        2.5787353516
1489455760.7103259563,1489455760.7127280235,       -0.6826171875,        0.2333984375,        0.0463867188,       12.7563476562,        2.8839111328,        2.0904541016
1489455760.7130110264,1489455760.7154150009,       -0.6826171875,        0.2280273438,        0.0395507812,       14.6179199219,        2.3956298828,        2.0904541016
1489455760.7156989574,1489455760.7181050777,       -0.7006835938,        0.2280273438,        0.0395507812,       14.6179199219,        2.3956298828,        1.3732910156
1489455760.7183890343,1489455760.7208468914,       -0.7006835938,        0.2280273438,        0.0395507812,       15.5792236328,        2.4261474609,        1.3732910156
1489455760.7211329937,1489455760.7235419750,       -0.7006835938,        0.2280273438,        0.0395507812,       15.5792236328,        2.4261474609,        0.5798339844
1489455760.7238268852,1489455760.7262320518,       -0.7099609375,        0.2221679688,        0.0307617188,       15.7775878906,        2.5177001953,        0.5798339844
1489455760.7265169621,1489455760.7289268970,       -0.7099609375,        0.2221679688,        0.0307617188,       15.7775878906,        2.5177001953,        0.2899169922
1489455760.7292110920,1489455760.7315979004,       -0.7099609375,        0.2221679688,        0.0307617188,       15.8233642578,        2.1514892578,        0.2899169922
1489455760.7318809032,1489455760.7342650890,       -0.7099609375,        0.2221679688,        0.0307617188,       15.8233642578,        2.1514892578,        0.2899169922
1489455760.7345468998,1489455760.7372291088,       -0.7060546875,        0.2309570312,        0.0170898438,       15.2587890625,        2.1972656250,        0.5645751953
1489455760.7375180721,1489455760.7400100231,       -0.7060546875,        0.2309570312,        0.0170898438,       15.2587890625,        2.1972656250,        0.1525878906
1489455760.7403140068,1489455760.7427489758,       -0.7060546875,        0.2309570312,        0.0170898438,       14.8773193359,        2.0141601562,        0.1525878906
1489455760.7430360317,1489455760.7454600334,       -0.7060546875,        0.2309570312,        0.0097656250,       14.8773193359,        2.0141601562,       -0.0305175781
1489455760.7457480431,1489455760.7481629848,       -0.7006835938,        0.2260742188,        0.0097656250,       14.4348144531,        1.7547607422,       -0.0305175781
1489455760.7484500408,1489455760.7508780956,       -0.7006835938,        0.2260742188,        0.0097656250,       14.4348144531,        1.7547607422,        0.3967285156
1489455760.7512719631,1489455760.7536959648,       -0.7006835938,        0.2260742188,        0.0097656250,       13.9007568359,        1.5716552734,        0.3967285156
1489455760.7539820671,1489455760.7563970089,       -0.7001953125,        0.2177734375,       -0.0146484375,       13.9007568359,        1.5716552734,        0.2136230469
1489455760.7566831112,1489455760.7591149807,       -0.7001953125,        0.2177734375,       -0.0146484375,       12.8173828125,        2.0141601562,        0.2136230469
1489455760.7593998909,1489455760.7618188858,       -0.7001953125,        0.2177734375,       -0.0146484375,       12.8173828125,        2.0141601562,       -0.3204345703
1489455760.7621068954,1489455760.7645220757,       -0.7001953125,        0.2177734375,       -0.0146484375,       11.0321044922,        1.9378662109,       -0.3204345703
1489455760.7648069859,1489455760.7672309875,       -0.7045898438,        0.2138671875,       -0.0009765625,       11.0321044922,        1.9378662109,        0.0305175781
1489455760.7675170898,1489455760.7698919773,       -0.7045898438,        0.2138671875,       -0.0009765625,        9.6435546875,        1.7547607422,        0.0305175781
1489455760.7701671124,1489455760.7724609375,       -0.7045898438,        0.2138671875,       -0.0009765625,        9.6435546875,        1.7547607422,        0.5187988281
1489455760.7727351189,1489455760.7750320435,       -0.7045898438,        0.2138671875,       -0.0009765625,        8.4075927734,        1.4038085938,        0.5187988281
1489455760.7753059864,1489455760.7775979042,       -0.7075195312,        0.2211914062,        0.0083007812,        8.4075927734,        1.4038085938,        0.5187988281
1489455760.7778730392,1489455760.7802228928,       -0.7075195312,        0.2211914062,        0.0083007812,        7.6904296875,        1.2512207031,        0.4882812500
1489455760.7804999352,1489455760.7827920914,       -0.7075195312,        0.2211914062,        0.0083007812,        7.6904296875,        1.2512207031,        0.4882812500
1489455760.7830688953,1489455760.7853569984,       -0.7075195312,        0.2211914062,        0.0083007812,        6.2255859375,        1.1138916016,        0.2746582031
1489455760.7856318951,1489455760.7879269123,       -0.7255859375,        0.2163085938,        0.0195312500,        6.2255859375,        1.1138916016,        0.2746582031
1489455760.7881999016,1489455760.7906649113,       -0.7255859375,        0.2163085938,        0.0195312500,        4.5318603516,        1.5869140625,       -0.1525878906
1489455760.7909400463,1489455760.7932300568,       -0.7255859375,        0.2163085938,        0.0195312500,        4.5318603516,        1.5869140625,       -0.1525878906
1489455760.7935049534,1489455760.7958059311,       -0.7255859375,        0.2163085938,        0.0263671875,        3.3569335938,        1.6632080078,       -0.2441406250
1489455760.7960789204,1489455760.7983770370,       -0.7202148438,        0.2216796875,        0.0263671875,        3.3569335938,        1.6632080078,       -0.2441406250
1489455760.7986500263,1489455760.8011820316,       -0.7202148438,        0.2216796875,        0.0263671875,        2.6245117188,        1.3885498047,       -0.2136230469
1489455760.8014650345,1489455760.8038780689,       -0.7202148438,        0.2216796875,        0.0263671875,        2.6245117188,        1.3885498047,       -0.2136230469
1489455760.8041610718,1489455760.8065690994,       -0.7202148438,        0.2236328125,        0.0175781250,        2.2583007812,        1.0833740234,        0.0610351562
1489455760.8068499565,1489455760.8092811108,       -0.7045898438,        0.2236328125,        0.0175781250,        2.2583007812,        1.0833740234,        0.0610351562
1489455760.8095610142,1489455760.8119699955,       -0.7045898438,        0.2236328125,        0.0175781250,        2.3040771484,        1.0681152344,        0.1678466797
1489455760.8122498989,1489455760.8146629333,       -0.7045898438,        0.2236328125,        0.0175781250,        2.3040771484,        1.0681152344,        0.1678466797
1489455760.8150429726,1489455760.8174660206,       -0.6953125000,        0.2343750000,        0.0234375000,        2.8228759766,        1.2664794922,       -0.0152587891
1489455760.8177490234,1489455760.8200979233,       -0.6953125000,        0.2343750000,        0.0234375000,        2.8228759766,        1.2664794922,       -0.0152587891
1489455760.8203740120,1489455760.8226709366,       -0.6953125000,        0.2343750000,        0.0234375000,        3.5858154297,        0.9460449219,       -0.4272460938
1489455760.8229460716,1489455760.8252398968,       -0.6953125000,        0.2343750000,        0.0234375000,        3.5858154297,        0.9460449219,       -0.4272460938
1489455760.8255140781,1489455760.8278119564,       -0.7001953125,        0.2211914062,        0.0180664062,        4.4097900391,        1.1749267578,       -0.1220703125
1489455760.8280858994,1489455760.8304929733,       -0.7001953125,        0.2211914062,        0.0180664062,        4.4097900391,        1.1749267578,       -0.1220703125
1489455760.8307750225,1489455760.8331921101,       -0.7001953125,        0.2211914062,        0.0180664062,        5.5389404297,        1.2969970703,       -0.2288818359
1489455760.8334739208,1489455760.8358869553,       -0.7001953125,        0.2211914062,        0.0180664062,        5.5389404297,        1.2969970703,       -0.2288818359
1489455760.8361670971,1489455760.8385860920,       -0.7143554688,        0.1977539062,        0.0434570312,        6.5002441406,        1.6326904297,       -0.5798339844
1489455760.8388769627,1489455760.8412940502,       -0.7143554688,        0.1977539062,        0.0434570312,        6.5002441406,        1.6326904297,       -0.5798339844
1489455760.8415739536,1489455760.8440020084,       -0.7143554688,        0.1977539062,        0.0434570312,        6.5002441406,        2.0294189453,       -0.5645751953
1489455760.8442831039,1489455760.8466980457,       -0.7143554688,        0.1826171875,        0.0283203125,        7.4157714844,        2.0294189453,       -0.5645751953
1489455760.8469789028,1489455760.8494429588,       -0.7451171875,        0.1826171875,        0.0283203125,        7.4157714844,        1.7700195312,       -0.2136230469
1489455760.8497231007,1489455760.8521449566,       -0.7451171875,        0.1826171875,        0.0283203125,        7.6904296875,        1.7700195312,       -0.2136230469
1489455760.8524279594,1489455760.8548879623,       -0.7451171875,        0.1826171875,        0.0283203125,        7.6904296875,        1.7242431641,        0.1220703125
1489455760.8553280830,1489455760.8577458858,       -0.7402343750,        0.2060546875,        0.0322265625,        7.5531005859,        1.7242431641,        0.1220703125
1489455760.8580269814,1489455760.8606100082,       -0.7402343750,        0.2060546875,        0.0322265625,        7.1411132812,        1.9073486328,        0.7781982422
1489455760.8608911037,1489455760.8633100986,       -0.7402343750,        0.2060546875,        0.0322265625,        7.1411132812,        1.9073486328,        0.7781982422
1489455760.8635909557,1489455760.8660149574,       -0.7402343750,        0.2060546875,        0.0322265625,        7.2174072266,        1.8005371094,        0.9918212891
1489455760.8662970066,1489455760.8687109947,       -0.7363281250,        0.2255859375,        0.0083007812,        7.2174072266,        1.8005371094,        0.9918212891
1489455760.8690280914,1489455760.8713219166,       -0.7363281250,        0.2255859375,        0.0083007812,        7.0953369141,        1.7089843750,        0.8392333984
1489455760.8715960979,1489455760.8739008904,       -0.7363281250,        0.2255859375,        0.0083007812,        7.0953369141,        1.7089843750,        0.8392333984
1489455760.8741760254,1489455760.8764679432,       -0.7363281250,        0.2255859375,       -0.0039062500,        7.0953369141,        1.6632080078,        0.7629394531
1489455760.8767440319,1489455760.8791029453,       -0.7255859375,        0.2324218750,       -0.0039062500,        7.4310302734,        1.6632080078,        0.7629394531
1489455760.8793768883,1489455760.8816640377,       -0.7255859375,        0.2324218750,       -0.0039062500,        7.4310302734,        1.6632080078,        0.7171630859
1489455760.8820440769,1489455760.8843319416,       -0.7255859375,        0.2324218750,       -0.0039062500,        7.4615478516,        1.5258789062,        0.7171630859
1489455760.8846058846,1489455760.8868989944,       -0.7255859375,        0.2285156250,       -0.0019531250,        7.4615478516,        1.5258789062,        0.5035400391
1489455760.8871729374,1489455760.8896400928,       -0.7021484375,        0.2285156250,       -0.0019531250,        7.3547363281,        1.0070800781,        0.5035400391
1489455760.8899140358,1489455760.8922019005,       -0.7021484375,        0.2285156250,       -0.0019531250,        7.3547363281,        1.0070800781,       -0.0610351562
1489455760.8924779892,1489455760.8947699070,       -0.7021484375,        0.2285156250,       -0.0019531250,        7.7362060547,        0.6713867188,       -0.0610351562
1489455760.8950479031,1489455760.8973379135,       -0.7021484375,        0.2353515625,        0.0043945312,        7.7362060547,        0.6713867188,       -0.0610351562
1489455760.8976140022,1489455760.8999071121,       -0.7084960938,        0.2353515625,        0.0043945312,        8.2855224609,        0.1525878906,        0.0152587891
1489455760.9001829624,1489455760.9024689198,       -0.7084960938,        0.2353515625,        0.0043945312,        8.2855224609,        0.1525878906,        0.0152587891
1489455760.9027440548,1489455760.9050300121,       -0.7084960938,        0.2353515625,        0.0043945312,        7.8430175781,        0.1373291016,       -0.2441406250
1489455760.9053039551,1489455760.9075949192,       -0.7172851562,        0.2280273438,       -0.0112304688,        7.8430175781,        0.1373291016,       -0.2441406250
1489455760.9078679085,1489455760.9103159904,       -0.7172851562,        0.2280273438,       -0.0112304688,        7.4768066406,        0.2288818359,       -1.2054443359
1489455760.9105899334,1489455760.9128720760,       -0.7172851562,        0.2280273438,       -0.0112304688,        7.4768066406,        0.2288818359,       -1.2054443359
1489455760.9131450653,1489455760.9154329300,       -0.7172851562,        0.2280273438,       -0.0112304688,        5.3405761719,        0.3814697266,       -1.7547607422
1489455760.9157791138,1489455760.9180710316,       -0.7358398438,        0.2197265625,        0.0102539062,        5.3405761719,        0.3814697266,       -1.7547607422
1489455760.9183449745,1489455760.9207520485,       -0.7358398438,        0.2197265625,        0.0102539062,        2.1514892578,        0.0152587891,       -2.1362304688
1489455760.9210269451,1489455760.9233140945,       -0.7358398438,        0.2197265625,        0.0102539062,        2.1514892578,        0.0152587891,       -2.1362304688
1489455760.9235899448,1489455760.9258739948,       -0.7358398438,        0.2197265625,        0.0102539062,       -0.3204345703,       -0.3051757812,       -2.4719238281
1489455760.9261510372,1489455760.9284329414,       -0.7392578125,        0.2192382812,        0.0117187500,       -0.3204345703,       -0.3051757812,       -2.4719238281
1489455760.9287068844,1489455760.9311668873,       -0.7392578125,        0.2192382812,        0.0117187500,       -2.3803710938,        0.0000000000,       -2.8533935547
1489455760.9314470291,1489455760.9338240623,       -0.7392578125,        0.2192382812,        0.0117187500,       -2.3803710938,        0.0000000000,       -2.8533935547
1489455760.9348950386,1489455760.9371879101,       -0.7392578125,        0.2192382812,        0.0034179688,       -4.2419433594,       -0.1678466797,       -2.7618408203
1489455760.9374680519,1489455760.9398241043,       -0.7309570312,        0.2207031250,        0.0034179688,       -4.2419433594,       -0.1678466797,       -2.7618408203
1489455760.9400999546,1489455760.9423871040,       -0.7309570312,        0.2207031250,        0.0034179688,       -5.6915283203,       -0.5645751953,       -2.9754638672
1489455760.9426620007,1489455760.9449489117,       -0.7309570312,        0.2207031250,        0.0034179688,       -5.6915283203,       -0.5645751953,       -2.9754638672
1489455760.9453310966,1489455760.9476239681,       -0.7309570312,        0.2221679688,        0.0024414062,       -6.3476562500,       -0.3051757812,       -2.7923583984
1489455760.9478969574,1489455760.9502139091,       -0.7290039062,        0.2221679688,        0.0024414062,       -6.3476562500,       -0.3051757812,       -2.7923583984
1489455760.9504890442,1489455760.9527781010,       -0.7290039062,        0.2221679688,        0.0024414062,       -6.3476562500,       -0.3356933594,       -1.8310546875
1489455760.9530529976,1489455760.9553439617,       -0.7290039062,        0.2221679688,        0.0024414062,       -6.3018798828,       -0.3356933594,       -1.8310546875
1489455760.9556179047,1489455760.9579029083,       -0.7290039062,        0.2148437500,       -0.0078125000,       -6.3018798828,       -0.3356933594,       -1.1444091797
1489455760.9581780434,1489455760.9604749680,       -0.7304687500,        0.2148437500,       -0.0078125000,       -6.4392089844,       -0.5187988281,       -1.1444091797
1489455760.9607501030,1489455760.9630401134,       -0.7304687500,        0.2148437500,       -0.0078125000,       -6.4392089844,       -0.5187988281,       -0.6561279297
1489455760.9633159637,1489455760.9656031132,       -0.7304687500,        0.2148437500,       -0.0078125000,       -7.3394775391,       -0.7629394531,       -0.6561279297
1489455760.9658780098,1489455760.9681680202,       -0.7465820312,        0.2021484375,       -0.0097656250,       -7.3394775391,       -0.7629394531,        3.2501220703
1489455760.9684410095,1489455760.9707710743,       -0.7465820312,        0.2021484375,       -0.0097656250,       -9.0789794922,       -0.7629394531,        0.2899169922
1489455760.9710490704,1489455760.9733390808,       -0.7465820312,        0.2021484375,       -0.0097656250,       -9.0789794922,       -0.7629394531,        0.2899169922
1489455760.9736158848,1489455760.9759039879,       -0.7465820312,        0.2021484375,       -0.0097656250,      -11.7034912109,       -0.7781982422,        1.2664794922
1489455760.9761838913,1489455760.9784779549,       -0.7749023438,        0.1953125000,       -0.0332031250,      -11.7034912109,       -0.7781982422,        1.2664794922
1489455760.9787569046,1489455760.9811210632,       -0.7749023438,        0.1953125000,       -0.0332031250,      -15.1062011719,        0.1220703125,        2.5787353516
1489455760.9814019203,1489455760.9836909771,       -0.7749023438,        0.1953125000,       -0.0332031250,      -15.1062011719,        0.1220703125,        2.5787353516
1489455760.9839699268,1489455760.9862589836,       -0.7749023438,        0.1953125000,       -0.0332031250,      -17.8375244141,        1.1749267578,        3.7536621094
1489455760.9865369797,1489455760.9889659882,       -0.8017578125,        0.1899414062,       -0.0400390625,      -17.8375244141,        1.1749267578,        3.7536621094
1489455760.9892458916,1489455760.9915349483,       -0.8017578125,        0.1899414062,       -0.0400390625,      -18.6309814453,        1.7852783203,        5.4931640625
1489455760.9918150902,1489455760.9941010475,       -0.8017578125,        0.1899414062,       -0.0400390625,      -18.6309814453,        1.7852783203,        5.4931640625
1489455760.9943780899,1489455760.9966609478,       -0.8017578125,        0.1899414062,       -0.0400390625,      -17.0593261719,        2.0446777344,        7.0343017578
1489455760.9969398975,1489455760.9992630482,       -0.8115234375,        0.2197265625,       -0.0468750000,      -17.0593261719,        2.0446777344,        7.0343017578
1489455760.9995400906,1489455761.0018270016,       -0.8115234375,        0.2197265625,       -0.0468750000,      -14.4805908203,        1.9378662109,        8.6517333984
1489455761.0021059513,1489455761.0043981075,       -0.8115234375,        0.2197265625,       -0.0468750000,      -14.4805908203,        1.9378662109,        8.6517333984
1489455761.0046780109,1489455761.0069670677,       -0.8115234375,        0.2197265625,       -0.0468750000,      -14.4805908203,        2.5634765625,       11.0015869141
1489455761.0073559284,1489455761.0096569061,       -0.8027343750,        0.2138671875,       -0.0834960938,      -12.0391845703,        2.5634765625,       11.0015869141
1489455761.0099411011,1489455761.0122330189,       -0.8027343750,        0.2138671875,       -0.0834960938,      -12.0391845703,        2.5634765625,       13.5345458984
1489455761.0125160217,1489455761.0148050785,       -0.8027343750,        0.2138671875,       -0.0834960938,      -11.2915039062,        2.4414062500,       13.5345458984
1489455761.0150868893,1489455761.0173759460,       -0.8027343750,        0.2138671875,       -0.0834960938,      -11.2915039062,        2.4414062500,       16.2048339844
1489455761.0176599026,1489455761.0201690197,       -0.8149414062,        0.1704101562,       -0.0947265625,      -13.1530761719,        2.7008056641,       16.2048339844
1489455761.0204539299,1489455761.0227489471,       -0.8149414062,        0.1704101562,       -0.0947265625,      -13.1530761719,        2.7008056641,       16.2048339844
1489455761.0230309963,1489455761.0256249905,       -0.8149414062,        0.1704101562,       -0.0947265625,      -17.2119140625,        4.0588378906,       19.5159912109
1489455761.0259120464,1489455761.0282049179,       -0.8149414062,        0.1728515625,       -0.1210937500,      -17.2119140625,        4.0588378906,       23.4222412109
1489455761.0284879208,1489455761.0308330059,       -0.8144531250,        0.1728515625,       -0.1210937500,      -22.1099853516,        4.6997070312,       23.3612060547
1489455761.0311160088,1489455761.0334060192,       -0.8144531250,        0.1728515625,       -0.1210937500,      -22.1099853516,        4.6997070312,       23.3612060547
1489455761.0336899757,1489455761.0359790325,       -0.8144531250,        0.1728515625,       -0.1210937500,      -26.3519287109,        5.5236816406,       27.2216796875
1489455761.0362610817,1489455761.0385460854,       -0.8144531250,        0.2290039062,       -0.1499023438,      -26.3519287109,        5.5236816406,       27.2216796875
1489455761.0388610363,1489455761.0411489010,       -0.7939453125,        0.2290039062,       -0.1499023438,      -30.5633544922,        6.3629150391,       30.5938720703
1489455761.0414319038,1489455761.0437209606,       -0.7939453125,        0.2290039062,       -0.1499023438,      -30.5633544922,        6.3629150391,       30.5938720703
1489455761.0440049171,1489455761.0462880135,       -0.7939453125,        0.2290039062,       -0.1499023438,      -35.5224609375,        7.8582763672,       33.7219238281
1489455761.0465700626,1489455761.0488779545,       -0.7773437500,        0.2416992188,       -0.2016601562,      -35.5224609375,        7.8582763672,       33.7219238281
1489455761.0491590500,1489455761.0514531136,       -0.7773437500,        0.2416992188,       -0.2016601562,      -39.7796630859,        8.9416503906,       36.4227294922
1489455761.0517361164,1489455761.0540230274,       -0.7773437500,        0.2416992188,       -0.2016601562,      -39.7796630859,        8.9416503906,       36.4227294922
1489455761.0543050766,1489455761.0565938950,       -0.7773437500,        0.2416992188,       -0.2016601562,      -43.8842773438,       10.3149414062,       37.6739501953
1489455761.0568799973,1489455761.0592350960,       -0.7685546875,        0.2294921875,       -0.2871093750,      -43.8842773438,       10.3149414062,       37.6739501953
1489455761.0595209599,1489455761.0618090630,       -0.7685546875,        0.2294921875,       -0.2871093750,      -48.7823486328,       12.3901367188,       38.4674072266
1489455761.0620930195,1489455761.0643830299,       -0.7685546875,        0.2294921875,       -0.2871093750,      -48.7823486328,       12.3901367188,       38.4674072266
1489455761.0646669865,1489455761.0669550896,       -0.7685546875,        0.2294921875,       -0.2871093750,      -52.6885986328,       13.3819580078,       40.6188964844
1489455761.0672390461,1489455761.0695650578,       -0.7661132812,        0.1875000000,       -0.2988281250,      -52.6428222656,       13.3819580078,       40.6188964844
1489455761.0699620247,1489455761.0722529888,       -0.7661132812,        0.1875000000,       -0.2988281250,      -52.6428222656,       13.8854980469,       42.6177978516
1489455761.0725359917,1489455761.0748260021,       -0.7661132812,        0.1875000000,       -0.2988281250,      -54.5806884766,       13.8854980469,       42.6177978516
1489455761.0751099586,1489455761.0774009228,       -0.7661132812,        0.1875000000,       -0.2988281250,      -54.5806884766,       13.8854980469,       44.0826416016
1489455761.0776860714,1489455761.0801630020,       -0.7841796875,        0.1440429688,       -0.2231445312,      -55.6640625000,       14.3280029297,       44.0826416016
1489455761.0804491043,1489455761.0827410221,       -0.7841796875,        0.1440429688,       -0.2231445312,      -55.6640625000,       14.3280029297,       45.8221435547
1489455761.0830249786,1489455761.0853168964,       -0.7841796875,        0.1440429688,       -0.2231445312,      -52.5207519531,       14.6331787109,       45.8221435547
1489455761.0856010914,1489455761.0878889561,       -0.7841796875,        0.1440429688,       -0.2231445312,      -52.5207519531,       14.6331787109,       45.8221435547
1489455761.0881729126,1489455761.0907669067,       -0.8603515625,        0.2612304688,       -0.1845703125,      -40.6951904297,       15.5181884766,       50.2166748047
1489455761.0910539627,1489455761.0933480263,       -0.8603515625,        0.2612304688,       -0.1845703125,      -40.6951904297,       15.5181884766,       50.2166748047
1489455761.0936319828,1489455761.0959250927,       -0.8603515625,        0.2612304688,       -0.1845703125,      -24.5208740234,       16.6168212891,       50.4760742188
1489455761.0962100029,1489455761.0984909534,       -0.8603515625,        0.2612304688,       -0.2319335938,      -24.5208740234,       16.6168212891,       50.4760742188
1489455761.0987739563,1489455761.1012599468,       -0.8115234375,        0.1870117188,       -0.2319335938,       -9.2163085938,       17.9595947266,       47.0886230469
1489455761.1015489101,1489455761.1039700508,       -0.8115234375,        0.1870117188,       -0.2319335938,       -9.2163085938,       17.9595947266,       47.0886230469
1489455761.1042590141,1489455761.1066720486,       -0.8115234375,        0.1870117188,       -0.2319335938,        6.3018798828,       18.3563232422,       43.2739257812
1489455761.1069600582,1489455761.1094160080,       -0.8115234375,        0.0800781250,       -0.2758789062,        6.3018798828,       18.3563232422,       43.2739257812
1489455761.1097059250,1489455761.1121261120,       -0.7880859375,        0.0800781250,       -0.2758789062,       22.4151611328,       18.2342529297,       39.3066406250
1489455761.1124179363,1489455761.1148400307,       -0.7880859375,        0.0800781250,       -0.2758789062,       22.4151611328,       18.2342529297,       39.3066406250
1489455761.1151320934,1489455761.1175520420,       -0.7880859375,        0.0800781250,       -0.2758789062,       35.4766845703,       18.6462402344,       34.9273681641
1489455761.1178429127,1489455761.1202011108,       -0.7407226562,        0.0688476562,       -0.2900390625,       35.4766845703,       18.6462402344,       34.9273681641
1489455761.1204850674,1489455761.1228590012,       -0.7407226562,        0.0688476562,       -0.2900390625,       46.7681884766,       19.9432373047,       29.2968750000
1489455761.1231439114,1489455761.1254320145,       -0.7407226562,        0.0688476562,       -0.2900390625,       46.7681884766,       19.9432373047,       29.2968750000
1489455761.1257150173,1489455761.1280100346,       -0.7407226562,        0.0688476562,       -0.2900390625,       58.4564208984,       21.0418701172,       23.1933593750
1489455761.1282949448,1489455761.1305909157,       -0.7148437500,        0.0068359375,       -0.2797851562,       58.4564208984,       21.0418701172,       23.1933593750
1489455761.1308760643,1489455761.1331679821,       -0.7148437500,        0.0068359375,       -0.2797851562,       68.8018798828,       21.7590332031,       17.1813964844
1489455761.1335670948,1489455761.1359820366,       -0.7148437500,        0.0068359375,       -0.2797851562,       68.8018798828,       21.7590332031,       17.1813964844
1489455761.1362700462,1489455761.1385641098,       -0.7148437500,        0.0068359375,       -0.2797851562,       76.0345458984,       22.1099853516,       11.5051269531
1489455761.1398189068,1489455761.1421101093,       -0.6972656250,       -0.1000976562,       -0.2539062500,       76.0345458984,       22.1099853516,       11.5051269531
1489455761.1423981190,1489455761.1446840763,       -0.6972656250,       -0.1000976562,       -0.2539062500,       79.6813964844,       22.3083496094,        6.4086914062
1489455761.1449680328,1489455761.1472589970,       -0.6972656250,       -0.1000976562,       -0.2539062500,       79.6813964844,       22.3083496094,        6.4086914062
1489455761.1475400925,1489455761.1499259472,       -0.6606445312,       -0.1372070312,       -0.2514648438,       80.1849365234,       22.7813720703,        2.0904541016
1489455761.1502089500,1489455761.1524970531,       -0.6606445312,       -0.1372070312,       -0.2514648438,       80.1849365234,       22.7813720703,        2.0904541016
1489455761.1527791023,1489455761.1550691128,       -0.6606445312,       -0.1372070312,       -0.2514648438,       78.8116455078,       23.6816406250,       -1.7547607422
1489455761.1553499699,1489455761.1576349735,       -0.6606445312,       -0.1372070312,       -0.2514648438,       78.8116455078,       23.6816406250,       -1.7547607422
1489455761.1579151154,1489455761.1602139473,       -0.6635742188,       -0.0996093750,       -0.2368164062,       76.9348144531,       24.3988037109,       -7.1868896484
1489455761.1604959965,1489455761.1627869606,       -0.6635742188,       -0.0996093750,       -0.2368164062,       76.9348144531,       24.3988037109,       -7.1868896484
1489455761.1630690098,1489455761.1653559208,       -0.6635742188,       -0.0996093750,       -0.2368164062,       73.7304687500,       24.8107910156,      -12.5274658203
1489455761.1656420231,1489455761.1679298878,       -0.6635742188,       -0.0996093750,       -0.2368164062,       73.7304687500,       24.8107910156,      -12.5274658203
1489455761.1682169437,1489455761.1705551147,       -0.6757812500,       -0.0776367188,       -0.2124023438,       70.1904296875,       25.2685546875,      -17.7459716797
1489455761.1708400249,1489455761.1731278896,       -0.6757812500,       -0.0776367188,       -0.2124023438,       70.1904296875,       25.2685546875,      -17.7459716797
1489455761.1734139919,1489455761.1757059097,       -0.6757812500,       -0.0776367188,       -0.2124023438,       70.1904296875,       25.9704589844,      -22.5219726562
1489455761.1759901047,1489455761.1782820225,       -0.6757812500,       -0.0776367188,       -0.2124023438,       65.8721923828,       25.9704589844,      -22.5219726562
1489455761.1785669327,1489455761.1808629036,       -0.7041015625,       -0.0405273438,       -0.2050781250,       65.8721923828,       25.9704589844,      -26.8096923828
1489455761.1811480522,1489455761.1834390163,       -0.7041015625,       -0.0405273438,       -0.2050781250,       60.7757568359,       27.0538330078,      -26.8096923828
1489455761.1837229729,1489455761.1860139370,       -0.7041015625,       -0.0405273438,       -0.2050781250,       60.7757568359,       27.0538330078,      -34.6221923828
1489455761.1862969398,1489455761.1885869503,       -0.7041015625,       -0.0405273438,       -0.2050781250,       55.0689697266,       27.7709960938,      -31.3262939453
1489455761.1889638901,1489455761.1912560463,       -0.7197265625,       -0.0273437500,       -0.1787109375,       55.0689697266,       27.7709960938,      -31.3262939453
1489455761.1915390491,1489455761.1938269138,       -0.7197265625,       -0.0273437500,       -0.1787109375,       49.3774414062,       29.0679931641,      -35.8428955078
1489455761.1941120625,1489455761.1963989735,       -0.7197265625,       -0.0273437500,       -0.1787109375,       49.3774414062,       29.0679931641,      -35.8428955078
1489455761.1967959404,1489455761.1991701126,       -0.7197265625,       -0.0273437500,       -0.1787109375,       42.5262451172,       30.5938720703,      -39.8712158203
1489455761.1994550228,1489455761.2017459869,       -0.7290039062,       -0.0288085938,       -0.1459960938,       42.5262451172,       30.5938720703,      -39.8712158203
1489455761.2020320892,1489455761.2043220997,       -0.7290039062,       -0.0288085938,       -0.1459960938,       34.1644287109,       31.4788818359,      -42.7703857422
1489455761.2046079636,1489455761.2068951130,       -0.7290039062,       -0.0288085938,       -0.1459960938,       34.1644287109,       31.4788818359,      -42.7703857422
1489455761.2071781158,1489455761.2094728947,       -0.7290039062,       -0.0288085938,       -0.0209960938,       25.2990722656,       32.6995849609,      -45.3491210938
1489455761.2097580433,1489455761.2120480537,       -0.7353515625,       -0.0195312500,       -0.1157226562,       25.2990722656,       32.6995849609,      -45.3491210938
1489455761.2123320103,1489455761.2146179676,       -0.7353515625,       -0.0195312500,       -0.1157226562,       17.3645019531,       33.4777832031,      -47.5769042969
1489455761.2149019241,1489455761.2171878815,       -0.7353515625,       -0.0195312500,       -0.1157226562,       17.3645019531,       33.4777832031,      -47.5769042969
1489455761.2174720764,1489455761.2198119164,       -0.7353515625,       -0.0195312500,       -0.1030273438,        9.9029541016,       33.9660644531,      -49.0112304688
1489455761.2200970650,1489455761.2223920822,       -0.7202148438,        0.0063476562,       -0.1030273438,        9.9029541016,       33.9660644531,      -49.0112304688
1489455761.2226750851,1489455761.2249701023,       -0.7202148438,        0.0063476562,       -0.1030273438,        2.0904541016,       34.6221923828,      -50.8117675781
1489455761.2252540588,1489455761.2275409698,       -0.7202148438,        0.0063476562,       -0.1030273438,        3.3111572266,       34.6221923828,      -50.8117675781
1489455761.2278261185,1489455761.2302370071,       -0.7202148438,        0.0063476562,       -0.0634765625,        3.3111572266,       34.7442626953,      -51.7730712891
1489455761.2305269241,1489455761.2329440117,       -0.7270507812,        0.0375976562,       -0.0634765625,       -2.2888183594,       34.7442626953,      -51.7730712891
1489455761.2332320213,1489455761.2356500626,       -0.7270507812,        0.0375976562,       -0.0634765625,       -2.2888183594,       34.1644287109,      -52.8106689453
1489455761.2359390259,1489455761.2383639812,       -0.7270507812,        0.0375976562,       -0.0634765625,       -8.1481933594,       34.1644287109,      -52.8106689453
1489455761.2386519909,1489455761.2410829067,       -0.7338867188,        0.0620117188,       -0.0341796875,       -8.1481933594,       34.4543457031,      -54.2297363281
1489455761.2413740158,1489455761.2437870502,       -0.7338867188,        0.0620117188,       -0.0341796875,      -13.7634277344,       34.4543457031,      -54.2297363281
1489455761.2440769672,1489455761.2464981079,       -0.7338867188,        0.0620117188,       -0.0341796875,      -13.7634277344,       34.8205566406,      -55.3131103516
1489455761.2467908859,1489455761.2492558956,       -0.7338867188,        0.0620117188,       -0.0341796875,      -19.3176269531,       34.8205566406,      -55.3131103516
1489455761.2495479584,1489455761.2519619465,       -0.7460937500,        0.0966796875,       -0.0151367188,      -19.3176269531,       35.5377197266,      -55.6488037109
1489455761.2522540092,1489455761.2546749115,       -0.7460937500,        0.0966796875,       -0.0151367188,      -26.0772705078,       35.5377197266,      -55.6488037109
1489455761.2550160885,1489455761.2574400902,       -0.7460937500,        0.0966796875,       -0.0151367188,      -26.0772705078,       36.6668701172,      -55.4504394531
1489455761.2577340603,1489455761.2604589462,       -0.7460937500,        0.0966796875,       -0.0004882812,      -32.8063964844,       36.6668701172,      -55.4504394531
1489455761.2608630657,1489455761.2632830143,       -0.7290039062,        0.1411132812,       -0.0004882812,      -39.2761230469,       37.5366210938,      -55.2215576172
1489455761.2635760307,1489455761.2659909725,       -0.7290039062,        0.1411132812,       -0.0004882812,      -39.2761230469,       37.5366210938,      -55.2215576172
1489455761.2662830353,1489455761.2686979771,       -0.7290039062,        0.1411132812,       -0.0004882812,      -43.8079833984,       38.7115478516,      -54.2755126953
1489455761.2689819336,1489455761.2712728977,       -0.7343750000,        0.1840820312,        0.0351562500,      -43.8079833984,       38.7115478516,      -54.2755126953
1489455761.2715570927,1489455761.2738499641,       -0.7343750000,        0.1840820312,        0.0351562500,      -47.7142333984,       39.5202636719,      -54.1229248047
1489455761.2741351128,1489455761.2764310837,       -0.7343750000,        0.1840820312,        0.0351562500,      -47.4395751953,       39.5202636719,      -54.1229248047
1489455761.2767150402,1489455761.2790629864,       -0.7343750000,        0.1840820312,        0.0351562500,      -47.4395751953,       39.5202636719,      -54.6417236328
1489455761.2793550491,1489455761.2817709446,       -0.7202148438,        0.2187500000,        0.0605468750,      -51.0864257812,       40.1000976562,      -54.6417236328
1489455761.2820661068,1489455761.2844829559,       -0.7202148438,        0.2187500000,        0.0605468750,      -51.0864257812,       40.1000976562,      -54.1076660156
1489455761.2847759724,1489455761.2871959209,       -0.7202148438,        0.2187500000,        0.0605468750,      -54.2907714844,       40.5426025391,      -54.1076660156
1489455761.2874879837,1489455761.2898650169,       -0.7202148438,        0.2187500000,        0.0605468750,      -54.2907714844,       40.5426025391,      -53.1463623047
1489455761.2901511192,1489455761.2924470901,       -0.7177734375,        0.2587890625,        0.0937500000,      -55.9387207031,       40.4510498047,      -53.1463623047
1489455761.2927320004,1489455761.2950251102,       -0.7177734375,        0.2587890625,        0.0937500000,      -55.9387207031,       40.4510498047,      -52.5360107422
1489455761.2953100204,1489455761.2975978851,       -0.7177734375,        0.2587890625,        0.0937500000,      -56.3964843750,       40.3594970703,      -52.5360107422
1489455761.2978830338,1489455761.3002350330,       -0.7177734375,        0.2587890625,        0.0937500000,      -56.3964843750,       40.3594970703,      -52.5360107422
1489455761.3005208969,1489455761.3028149605,       -0.7192382812,        0.2739257812,        0.1210937500,      -55.6793212891,       39.9627685547,      -52.3834228516
1489455761.3031010628,1489455761.3053970337,       -0.7192382812,        0.2739257812,        0.1210937500,      -55.6793212891,       39.9627685547,      -52.3834228516
1489455761.3056809902,1489455761.3079741001,       -0.7192382812,        0.2739257812,        0.1210937500,      -55.2520751953,       39.2608642578,      -52.3223876953
1489455761.3082571030,1489455761.3107221127,       -0.7192382812,        0.2739257812,        0.1547851562,      -55.2520751953,       39.2608642578,      -52.3223876953
1489455761.3110079765,1489455761.3132970333,       -0.7294921875,        0.2578125000,        0.1547851562,      -55.7250976562,       38.6962890625,      -51.9561767578
1489455761.3135809898,1489455761.3158700466,       -0.7294921875,        0.2578125000,        0.1547851562,      -55.7250976562,       38.6962890625,      -51.9561767578
1489455761.3161520958,1489455761.3184480667,       -0.7294921875,        0.2578125000,        0.1547851562,      -56.3812255859,       37.1704101562,      -51.1169433594
1489455761.3187301159,1489455761.3211209774,       -0.7294921875,        0.2675781250,        0.1596679688,      -56.3812255859,       37.1704101562,      -51.1169433594
1489455761.3214058876,1489455761.3236989975,       -0.7099609375,        0.2675781250,        0.1596679688,      -56.6864013672,       35.5987548828,      -49.9725341797
1489455761.3240940571,1489455761.3263869286,       -0.7099609375,        0.2675781250,        0.1596679688,      -56.6864013672,       35.5987548828,      -49.9725341797
1489455761.3266720772,1489455761.3290200233,       -0.7099609375,        0.2675781250,        0.1596679688,      -56.6711425781,       34.0270996094,      -48.9807128906
1489455761.3293130398,1489455761.3317289352,       -0.6884765625,        0.2954101562,        0.1791992188,      -56.6711425781,       34.0270996094,      -48.9807128906
1489455761.3320190907,1489455761.3344399929,       -0.6884765625,        0.2954101562,        0.1791992188,      -56.7016601562,       31.6925048828,      -47.4548339844
1489455761.3347320557,1489455761.3371469975,       -0.6884765625,        0.2954101562,        0.1791992188,      -56.7016601562,       31.6925048828,      -47.4548339844
1489455761.3374381065,1489455761.3399369717,       -0.6884765625,        0.2954101562,        0.1791992188,      -56.6711425781,       30.0292968750,      -46.1425781250
1489455761.3402309418,1489455761.3426508904,       -0.6708984375,        0.3125000000,        0.1884765625,      -56.6711425781,       30.0292968750,      -46.1425781250
1489455761.3429419994,1489455761.3453590870,       -0.6708984375,        0.3125000000,        0.1884765625,      -56.1065673828,       28.2897949219,      -45.0134277344
1489455761.3456509113,1489455761.3480648994,       -0.6708984375,        0.3125000000,        0.1884765625,      -56.1065673828,       28.2897949219,      -45.0134277344
1489455761.3483550549,1489455761.3507781029,       -0.6708984375,        0.3125000000,        0.1884765625,      -55.3131103516,       25.9857177734,      -44.1589355469
1489455761.3510699272,1489455761.3534889221,       -0.6640625000,        0.3134765625,        0.2099609375,      -55.3131103516,       25.9857177734,      -44.1589355469
1489455761.3537809849,1489455761.3561971188,       -0.6640625000,        0.3134765625,        0.2099609375,      -55.9234619141,       23.4832763672,      -42.9077148438
1489455761.3564879894,1489455761.3590269089,       -0.6640625000,        0.3134765625,        0.2099609375,      -55.9234619141,       23.4832763672,      -42.9077148438
1489455761.3593139648,1489455761.3616099358,       -0.6640625000,        0.3237304688,        0.2158203125,      -57.2814941406,       21.3012695312,      -41.4581298828
1489455761.3618960381,1489455761.3641850948,       -0.6508789062,        0.3237304688,        0.2158203125,      -57.2814941406,       21.3012695312,      -41.4581298828
1489455761.3644700050,1489455761.3667609692,       -0.6508789062,        0.3237304688,        0.2158203125,      -58.6700439453,       18.6309814453,      -39.9932861328
1489455761.3670470715,1489455761.3693480492,       -0.6508789062,        0.3237304688,        0.2158203125,      -58.6700439453,       18.6309814453,      -39.9932861328
1489455761.3696320057,1489455761.3719251156,       -0.6508789062,        0.3364257812,        0.2309570312,      -58.6700439453,       16.2048339844,      -38.5742187500
1489455761.3722069263,1489455761.3745040894,       -0.6455078125,        0.3364257812,        0.2309570312,      -60.5621337891,       16.2048339844,      -38.5742187500
1489455761.3747870922,1489455761.3772900105,       -0.6455078125,        0.3364257812,        0.2309570312,      -60.5621337891,       13.8549804688,      -37.7807617188
1489455761.3775770664,1489455761.3802809715,       -0.6455078125,        0.3364257812,        0.2309570312,      -62.1795654297,       13.8549804688,      -37.7807617188
1489455761.3805749416,1489455761.3829979897,       -0.6459960938,        0.3867187500,        0.2656250000,      -60.7910156250,       11.2762451172,      -37.3077392578
1489455761.3832929134,1489455761.3857109547,       -0.6459960938,        0.3867187500,        0.2656250000,      -60.7910156250,       11.2762451172,      -37.3077392578
1489455761.3860030174,1489455761.3884201050,       -0.6459960938,        0.3867187500,        0.2656250000,      -59.6313476562,        9.1247558594,      -34.9273681641
1489455761.3888370991,1489455761.3912520409,       -0.6459960938,        0.3867187500,        0.2656250000,      -59.6313476562,        9.1247558594,      -34.9273681641
1489455761.3915400505,1489455761.3939559460,       -0.6489257812,        0.4589843750,        0.3173828125,      -58.8836669922,        5.4168701172,      -31.6925048828
1489455761.3942470551,1489455761.3966650963,       -0.6489257812,        0.4589843750,        0.3173828125,      -58.8836669922,        5.4168701172,      -31.6925048828
1489455761.3969531059,1489455761.3993721008,       -0.6489257812,        0.4589843750,        0.3173828125,      -57.2509765625,        1.8615722656,      -29.4189453125
1489455761.3996601105,1489455761.4020800591,       -0.6489257812,        0.4609375000,        0.3222656250,      -57.2509765625,        1.8615722656,      -29.4189453125
1489455761.4023690224,1489455761.4047861099,       -0.6494140625,        0.4609375000,        0.3222656250,      -54.6875000000,       -0.8239746094,      -27.4810791016
1489455761.4050729275,1489455761.4074940681,       -0.6494140625,        0.4609375000,        0.3222656250,      -54.6875000000,       -0.8239746094,      -27.4810791016
1489455761.4077830315,1489455761.4101738930,       -0.6494140625,        0.4609375000,        0.3222656250,      -49.4537353516,       -2.3193359375,      -25.0854492188
1489455761.4104580879,1489455761.4127490520,       -0.6972656250,        0.4775390625,        0.2333984375,      -49.4537353516,       -2.3193359375,      -25.0854492188
1489455761.4130299091,1489455761.4153239727,       -0.6972656250,        0.4775390625,        0.2333984375,      -49.4537353516,       -4.7302246094,      -21.7285156250
1489455761.4156050682,1489455761.4179000854,       -0.6972656250,        0.4775390625,        0.2333984375,      -47.3480224609,       -4.7302246094,      -21.7285156250
1489455761.4181799889,1489455761.4204781055,       -0.6972656250,        0.4775390625,        0.2333984375,      -47.3480224609,       -8.6364746094,      -18.1732177734
1489455761.4207589626,1489455761.4230520725,       -0.6601562500,        0.5107421875,        0.2143554688,      -48.5992431641,       -8.8806152344,      -18.1732177734
1489455761.4233329296,1489455761.4256238937,       -0.6601562500,        0.5107421875,        0.2143554688,      -48.5992431641,       -8.8806152344,      -14.1754150391
1489455761.4259049892,1489455761.4282019138,       -0.6601562500,        0.5107421875,        0.2143554688,      -52.0172119141,      -11.1846923828,      -14.1754150391
1489455761.4284849167,1489455761.4308791161,       -0.6601562500,        0.5107421875,        0.2143554688,      -52.0172119141,      -11.1846923828,      -10.2691650391
1489455761.4311649799,1489455761.4334590435,       -0.6801757812,        0.5629882812,        0.1616210938,      -55.2520751953,      -12.6800537109,       -9.0026855469
1489455761.4337420464,1489455761.4360339642,       -0.6801757812,        0.5629882812,        0.1616210938,      -55.2520751953,      -12.6800537109,       -9.0026855469
1489455761.4363160133,1489455761.4387168884,       -0.6801757812,        0.5629882812,        0.1616210938,      -60.1959228516,      -13.4277343750,       -2.0141601562
1489455761.4391739368,1489455761.4415929317,       -0.6801757812,        0.5629882812,        0.1616210938,      -60.1959228516,      -13.4277343750,       -2.0141601562
1489455761.4418830872,1489455761.4442999363,       -0.6943359375,        0.6655273438,        0.0766601562,      -65.5364990234,      -13.0920410156,        6.4392089844
1489455761.4445879459,1489455761.4470019341,       -0.6943359375,        0.6655273438,        0.0766601562,      -65.5364990234,      -13.0920410156,        6.4392089844
1489455761.4472920895,1489455761.4497210979,       -0.6943359375,        0.6655273438,        0.0766601562,      -68.6340332031,      -12.6342773438,       18.0511474609
1489455761.4500129223,1489455761.4524309635,       -0.6943359375,        0.7905273438,        0.0444335938,      -68.6340332031,      -12.6342773438,       18.0511474609
1489455761.4528329372,1489455761.4552509785,       -0.7192382812,        0.8432617188,        0.0444335938,      -64.3310546875,      -11.7492675781,       30.0140380859
1489455761.4555420876,1489455761.4579610825,       -0.7192382812,        0.8432617188,        0.0444335938,      -64.3310546875,      -11.7492675781,       30.0140380859
1489455761.4582550526,1489455761.4606859684,       -0.7192382812,        0.8432617188,        0.0444335938,      -50.7507324219,      -11.4288330078,       37.7502441406
1489455761.4609780312,1489455761.4633989334,       -0.6660156250,        0.7353515625,       -0.0615234375,      -50.7507324219,      -11.4288330078,       37.7502441406
1489455761.4636919498,1489455761.4661068916,       -0.6660156250,        0.7353515625,       -0.0615234375,      -28.2440185547,      -11.2152099609,       41.0461425781
1489455761.4664011002,1489455761.4688279629,       -0.6660156250,        0.7353515625,       -0.0615234375,      -28.2440185547,      -11.2152099609,       41.0461425781
1489455761.4691140652,1489455761.4714059830,       -0.6660156250,        0.7353515625,       -0.0615234375,       -3.4484863281,       -9.8876953125,       35.9191894531
1489455761.4716858864,1489455761.4739739895,       -0.5996093750,        0.3002929688,       -0.2822265625,       -3.4484863281,       -9.8876953125,       35.9191894531
1489455761.4742529392,1489455761.4765400887,       -0.5996093750,        0.3002929688,       -0.2822265625,       14.0991210938,       -8.8500976562,       23.9562988281
1489455761.4768218994,1489455761.4792039394,       -0.5996093750,        0.3002929688,       -0.2822265625,       14.0991210938,       -8.8500976562,       23.9562988281
1489455761.4794869423,1489455761.4817810059,       -0.5996093750,        0.3002929688,       -0.2822265625,       18.0206298828,       -8.6669921875,       15.1824951172
1489455761.4820630550,1489455761.4843559265,       -0.6289062500,        0.0512695312,       -0.3666992188,       18.0206298828,       -8.6669921875,       15.1824951172
1489455761.4846379757,1489455761.4869339466,       -0.6289062500,        0.0512695312,       -0.3666992188,        9.8724365234,      -11.6882324219,       11.3677978516
1489455761.4872169495,1489455761.4896221161,       -0.6289062500,        0.0512695312,       -0.3666992188,        9.8724365234,      -11.6882324219,       11.3677978516
1489455761.4899098873,1489455761.4922940731,       -0.6289062500,        0.0512695312,       -0.1166992188,       -2.9296875000,      -19.1650390625,        7.9193115234
1489455761.4925789833,1489455761.4951250553,       -0.6772460938,        0.0332031250,       -0.0527343750,       -2.9296875000,      -19.1650390625,        7.9193115234
1489455761.4954240322,1489455761.4978370667,       -0.6772460938,        0.0332031250,       -0.0527343750,      -10.6506347656,      -27.4658203125,        3.7689208984
1489455761.4985129833,1489455761.5009300709,       -0.6772460938,        0.0332031250,       -0.0527343750,      -10.6506347656,      -27.4658203125,        3.7689208984
1489455761.5012190342,1489455761.5036230087,       -0.7700195312,        0.2202148438,        0.1030273438,      -10.2844238281,      -30.0140380859,        3.8299560547
1489455761.5039119720,1489455761.5063130856,       -0.7700195312,        0.2202148438,        0.1030273438,      -10.2844238281,      -30.0140380859,        3.8299560547
1489455761.5066010952,1489455761.5090410709,       -0.7700195312,        0.2202148438,        0.1030273438,       -5.6610107422,      -28.5949707031,        6.7291259766
1489455761.5093250275,1489455761.5117249489,       -0.7700195312,        0.2202148438,        0.1030273438,       -5.6610107422,      -28.5949707031,        6.7291259766
1489455761.5120089054,1489455761.5144119263,       -0.9052734375,        0.2451171875,       -0.0361328125,       -6.2561035156,      -28.0609130859,        8.8806152344
1489455761.5146980286,1489455761.5170989037,       -0.9052734375,        0.2451171875,       -0.0361328125,       -6.2561035156,      -28.0609130859,        8.8806152344
1489455761.5174870491,1489455761.5199029446,       -0.9052734375,        0.2451171875,       -0.0361328125,      -12.4511718750,      -29.7088623047,       10.1318359375
1489455761.5201931000,1489455761.5225939751,       -0.9052734375,        0.2451171875,       -0.0361328125,      -12.4511718750,      -29.7088623047,       10.1318359375
1489455761.5228850842,1489455761.5252881050,       -0.8715820312,        0.0463867188,       -0.0712890625,      -21.5148925781,      -30.7464599609,       11.1999511719
1489455761.5255780220,1489455761.5279769897,       -0.8715820312,        0.0463867188,       -0.0712890625,      -21.5148925781,      -30.7464599609,       11.1999511719
1489455761.5282690525,1489455761.5306019783,       -0.8715820312,        0.0463867188,       -0.0712890625,      -29.1748046875,      -31.1279296875,       12.9394531250
1489455761.5327179432,1489455761.5354380608,       -0.7592773438,        0.0712890625,       -0.1455078125,      -32.5012207031,      -30.9600830078,       14.3432617188
1489455761.5357270241,1489455761.5380179882,       -0.7592773438,        0.0712890625,       -0.1455078125,      -32.5012207031,      -30.9600830078,       14.3432617188
1489455761.5383040905,1489455761.5408000946,       -0.7592773438,        0.0712890625,       -0.1455078125,      -33.5235595703,      -30.8074951172,       14.9688720703
1489455761.5410859585,1489455761.5433750153,       -0.7592773438,        0.2402343750,       -0.1269531250,      -33.5235595703,      -30.8074951172,       14.9688720703
1489455761.5436580181,1489455761.5459480286,       -0.6938476562,        0.2402343750,       -0.1269531250,      -33.5235595703,      -30.0292968750,       14.2059326172
1489455761.5462300777,1489455761.5485188961,       -0.6938476562,        0.2402343750,       -0.1269531250,      -31.9976806641,      -30.0292968750,       14.2059326172
1489455761.5488429070,1489455761.5511310101,       -0.6938476562,        0.2402343750,       -0.1269531250,      -31.9976806641,      -30.0292968750,       12.0086669922
1489455761.5514159203,1489455761.5537040234,       -0.6938476562,        0.3041992188,        0.0161132812,      -28.3203125000,      -29.0832519531,       12.0086669922
1489455761.5539879799,1489455761.5562789440,       -0.6420898438,        0.3041992188,        0.0161132812,      -28.3203125000,      -29.0832519531,        8.7585449219
1489455761.5565600395,1489455761.5588829517,       -0.6420898438,        0.3041992188,        0.0161132812,      -24.1546630859,      -28.5186767578,        8.7585449219
1489455761.5591640472,1489455761.5614550114,       -0.6420898438,        0.3041992188,        0.0161132812,      -24.1546630859,      -28.5186767578,        8.7585449219
1489455761.5617361069,1489455761.5640261173,       -0.6757812500,        0.2470703125,        0.1015625000,      -20.7366943359,      -27.7252197266,        6.1492919922
1489455761.5643069744,1489455761.5665988922,       -0.6757812500,        0.2470703125,        0.1015625000,      -20.7366943359,      -27.7252197266,        6.1492919922
1489455761.5668790340,1489455761.5692160130,       -0.6757812500,        0.2470703125,        0.1015625000,      -18.2800292969,      -25.9399414062,        4.8522949219
1489455761.5694990158,1489455761.5717830658,       -0.6757812500,        0.2470703125,        0.1015625000,      -18.2800292969,      -25.9399414062,        4.8522949219
1489455761.5720651150,1489455761.5743520260,       -0.7338867188,        0.1635742188,        0.0932617188,      -16.6015625000,      -24.1546630859,        4.4860839844
1489455761.5746340752,1489455761.5769200325,       -0.7338867188,        0.1635742188,        0.0932617188,      -16.6015625000,      -24.1546630859,        4.4860839844
1489455761.5772030354,1489455761.5797131062,       -0.7338867188,        0.1635742188,        0.0932617188,      -15.1367187500,      -22.3999023438,        4.9591064453
1489455761.5799970627,1489455761.5822908878,       -0.7338867188,        0.1635742188,        0.0932617188,      -15.1367187500,      -22.3999023438,        4.9591064453
1489455761.5825719833,1489455761.5848679543,       -0.8032226562,        0.1582031250,        0.0664062500,      -13.9007568359,      -20.1721191406,        5.8288574219
1489455761.5852599144,1489455761.5875511169,       -0.8032226562,        0.1582031250,        0.0664062500,      -13.9007568359,      -20.1721191406,        5.8288574219
1489455761.5878329277,1489455761.5903520584,       -0.8032226562,        0.1582031250,        0.0664062500,      -13.8244628906,      -17.8375244141,        6.7443847656
1489455761.5906429291,1489455761.5930640697,       -0.8032226562,        0.1582031250,        0.0664062500,      -13.8244628906,      -17.8375244141,        6.7443847656
1489455761.5933520794,1489455761.5957689285,       -0.8344726562,        0.1420898438,        0.0375976562,      -13.9770507812,      -16.1437988281,        7.5683593750
1489455761.5960590839,1489455761.5984790325,       -0.8344726562,        0.1420898438,        0.0375976562,      -13.9770507812,      -16.1437988281,        7.5683593750
1489455761.5987689495,1489455761.6011900902,       -0.8344726562,        0.1420898438,        0.0375976562,      -13.4429931641,      -14.6026611328,        8.4991455078
1489455761.6014800072,1489455761.6038990021,       -0.8344726562,        0.1420898438,        0.0278320312,      -13.4429931641,      -14.6026611328,        8.4991455078
1489455761.6041889191,1489455761.6066060066,       -0.8134765625,        0.1420898438,        0.0278320312,      -12.9852294922,      -13.2446289062,        9.3841552734
1489455761.6068949699,1489455761.6093230247,       -0.8134765625,        0.1420898438,        0.0278320312,      -12.9852294922,      -13.2446289062,        9.3841552734
1489455761.6096138954,1489455761.6120309830,       -0.8134765625,        0.1420898438,        0.0278320312,      -13.3209228516,      -11.8255615234,        9.8266601562
1489455761.6123209000,1489455761.6147310734,       -0.7724609375,        0.1860351562,        0.0000000000,      -13.3209228516,      -11.8255615234,        9.8266601562
1489455761.6150200367,1489455761.6174399853,       -0.7724609375,        0.1860351562,        0.0000000000,      -13.6718750000,      -11.1541748047,       10.0250244141
1489455761.6177310944,1489455761.6200819016,       -0.7724609375,        0.1860351562,        0.0000000000,      -13.6718750000,      -11.1541748047,       10.0250244141
1489455761.6203680038,1489455761.6226599216,       -0.7724609375,        0.1860351562,        0.0000000000,      -13.5192871094,      -10.2539062500,       10.0250244141
1489455761.6229441166,1489455761.6252388954,       -0.7631835938,        0.1811523438,       -0.0219726562,      -13.5192871094,      -10.2539062500,       10.0250244141
1489455761.6255230904,1489455761.6278209686,       -0.7631835938,        0.1811523438,       -0.0219726562,      -12.9547119141,       -9.2926025391,       10.7116699219
1489455761.6281020641,1489455761.6304750443,       -0.7631835938,        0.1811523438,       -0.0219726562,      -12.9547119141,       -9.2926025391,       10.7116699219
1489455761.6307649612,1489455761.6331460476,       -0.7631835938,        0.1811523438,       -0.0219726562,      -12.9547119141,       -8.6669921875,       11.1083984375
1489455761.6334331036,1489455761.6358070374,       -0.7714843750,        0.1484375000,       -0.0463867188,      -11.7645263672,       -8.6669921875,       11.1083984375
1489455761.6360960007,1489455761.6384699345,       -0.7714843750,        0.1484375000,       -0.0463867188,      -11.7645263672,       -7.9803466797,       11.7950439453
1489455761.6388349533,1489455761.6412520409,       -0.7714843750,        0.1484375000,       -0.0463867188,      -11.0168457031,       -7.9803466797,       11.7950439453
1489455761.6415410042,1489455761.6439568996,       -0.7714843750,        0.1484375000,       -0.0532226562,      -11.0168457031,       -7.6904296875,       13.3209228516
1489455761.6442439556,1489455761.6468091011,       -0.7832031250,        0.1406250000,       -0.0532226562,      -10.8489990234,       -7.6904296875,       13.3209228516
1489455761.6471009254,1489455761.6498351097,       -0.7832031250,        0.1406250000,       -0.0532226562,      -10.8489990234,       -6.8359375000,       15.2740478516
1489455761.6502349377,1489455761.6526570320,       -0.7832031250,        0.1406250000,       -0.0532226562,      -10.7421875000,       -6.8359375000,       15.2740478516
1489455761.6529459953,1489455761.6553568840,       -0.7675781250,        0.1269531250,       -0.0405273438,      -10.4980468750,       -6.9427490234,       16.7541503906
1489455761.6556470394,1489455761.6580588818,       -0.7675781250,        0.1269531250,       -0.0405273438,      -10.4980468750,       -6.9427490234,       16.7541503906
1489455761.6583480835,1489455761.6607689857,       -0.7675781250,        0.1269531250,       -0.0405273438,      -10.2844238281,       -6.3323974609,       17.9138183594
1489455761.6610600948,1489455761.6634769440,       -0.7675781250,        0.1269531250,       -0.0405273438,      -10.2844238281,       -6.3323974609,       17.9138183594
1489455761.6637649536,1489455761.6661798954,       -0.7465820312,        0.1557617188,       -0.0092773438,      -11.6271972656,       -5.4779052734,       18.9514160156
1489455761.6664690971,1489455761.6688969135,       -0.7465820312,        0.1557617188,       -0.0092773438,      -11.6271972656,       -5.4779052734,       18.9514160156
1489455761.6691789627,1489455761.6714699268,       -0.7465820312,        0.1557617188,       -0.0092773438,      -12.2070312500,       -5.2795410156,       19.9584960938
1489455761.6717529297,1489455761.6740460396,       -0.7465820312,        0.1557617188,        0.1157226562,      -12.2070312500,       -5.2795410156,       19.9584960938
1489455761.6743280888,1489455761.6766200066,       -0.7211914062,        0.2094726562,        0.0014648438,      -12.2070312500,       -4.8522949219,       20.0500488281
1489455761.6769039631,1489455761.6792418957,       -0.7211914062,        0.2094726562,        0.0014648438,      -12.0697021484,       -4.8522949219,       20.0500488281
1489455761.6795260906,1489455761.6818161011,       -0.7211914062,        0.2094726562,        0.0014648438,      -12.0697021484,       -4.8522949219,       19.9890136719
1489455761.6820991039,1489455761.6843919754,       -0.7211914062,        0.2094726562,        0.0214843750,      -10.9405517578,       -4.1046142578,       19.9890136719
1489455761.6846730709,1489455761.6869618893,       -0.7285156250,        0.2255859375,        0.0214843750,      -10.9405517578,       -4.1046142578,       19.6075439453
1489455761.6872429848,1489455761.6895380020,       -0.7285156250,        0.2255859375,        0.0214843750,       -9.8876953125,       -3.0822753906,       19.6075439453
1489455761.6898169518,1489455761.6921100616,       -0.7285156250,        0.2255859375,        0.0214843750,       -9.8876953125,       -3.0822753906,       15.7012939453
1489455761.6923871040,1489455761.6946740150,       -0.7285156250,        0.2255859375,        0.0229492188,       -8.3465576172,       -2.3651123047,       18.7530517578
1489455761.6949529648,1489455761.6972470284,       -0.7216796875,        0.2324218750,        0.0229492188,       -8.3465576172,       -2.3651123047,       18.7530517578
1489455761.6975250244,1489455761.6999390125,       -0.7216796875,        0.2324218750,        0.0229492188,       -6.8817138672,       -1.6784667969,       17.6696777344
1489455761.7002170086,1489455761.7025060654,       -0.7216796875,        0.2324218750,        0.0229492188,       -6.8817138672,       -1.6784667969,       17.6696777344
1489455761.7027840614,1489455761.7050740719,       -0.7216796875,        0.2216796875,        0.0146484375,       -5.0201416016,       -1.0681152344,       16.7846679688
1489455761.7053530216,1489455761.7076380253,       -0.7236328125,        0.2216796875,        0.0146484375,       -5.0201416016,       -1.0681152344,       16.7846679688
1489455761.7079169750,1489455761.7103838921,       -0.7236328125,        0.2216796875,        0.0146484375,       -3.8452148438,       -1.0070800781,       15.4571533203
1489455761.7106699944,1489455761.7130799294,       -0.7236328125,        0.2216796875,        0.0146484375,       -3.8452148438,       -1.0070800781,       15.4571533203
1489455761.7134718895,1489455761.7158899307,       -0.7060546875,        0.2387695312,        0.0039062500,       -1.6174316406,       -0.4730224609,       13.9617919922
1489455761.7161769867,1489455761.7185909748,       -0.7060546875,        0.2387695312,        0.0039062500,       -1.6174316406,       -0.4730224609,       13.9617919922
1489455761.7188849449,1489455761.7211771011,       -0.7060546875,        0.2387695312,        0.0039062500,        0.0000000000,       -0.3967285156,       12.7563476562
1489455761.7214570045,1489455761.7237410545,       -0.7060546875,        0.2387695312,        0.0039062500,        0.0000000000,       -0.3967285156,       12.7563476562
1489455761.7240200043,1489455761.7263100147,       -0.6997070312,        0.2705078125,       -0.0219726562,        0.9765625000,       -0.5340576172,       11.6271972656
1489455761.7265889645,1489455761.7289040089,       -0.6997070312,        0.2705078125,       -0.0219726562,        0.9765625000,       -0.5340576172,       11.6271972656
1489455761.7291920185,1489455761.7316019535,       -0.6997070312,        0.2705078125,       -0.0219726562,        1.8157958984,       -0.8544921875,        9.1705322266
1489455761.7318840027,1489455761.7343010902,       -0.6997070312,        0.2705078125,       -0.0219726562,        1.8157958984,       -0.8544921875,        9.1705322266
1489455761.7345809937,1489455761.7369980812,       -0.6889648438,        0.2465820312,       -0.0278320312,        2.4108886719,       -0.9155273438,        7.2479248047
1489455761.7372798920,1489455761.7397038937,       -0.6889648438,        0.2465820312,       -0.0278320312,        2.4108886719,       -0.9155273438,        7.2479248047
1489455761.7399859428,1489455761.7423999310,       -0.6889648438,        0.2465820312,       -0.0278320312,        2.5024414062,       -1.3275146484,        6.4697265625
1489455761.7426800728,1489455761.7450959682,       -0.6889648438,        0.2465820312,       -0.0478515625,        2.5024414062,       -1.3275146484,        6.4697265625
1489455761.7453770638,1489455761.7477939129,       -0.6909179688,        0.2343750000,       -0.0478515625,        1.7242431641,       -1.8005371094,        5.3100585938
1489455761.7480750084,1489455761.7505030632,       -0.6909179688,        0.2343750000,       -0.0478515625,        1.7242431641,       -1.8005371094,        5.3100585938
1489455761.7507839203,1489455761.7532029152,       -0.6909179688,        0.2343750000,       -0.0478515625,        0.6866455078,       -2.3803710938,        4.2266845703
1489455761.7534840107,1489455761.7558960915,       -0.6909179688,        0.2094726562,       -0.0356445312,        0.6866455078,       -2.3803710938,        4.2266845703
1489455761.7561769485,1489455761.7585899830,       -0.6987304688,        0.2094726562,       -0.0356445312,        0.4272460938,       -2.5634765625,        3.4637451172
1489455761.7588820457,1489455761.7612979412,       -0.6987304688,        0.2094726562,       -0.0356445312,        0.4272460938,       -2.5634765625,        3.4637451172
1489455761.7615799904,1489455761.7639970779,       -0.6987304688,        0.2094726562,       -0.0356445312,        0.3662109375,       -2.5634765625,        2.9449462891
1489455761.7642800808,1489455761.7667889595,       -0.6962890625,        0.2285156250,       -0.0410156250,        0.3662109375,       -2.5634765625,        2.9449462891
1489455761.7670719624,1489455761.7694680691,       -0.6962890625,        0.2285156250,       -0.0410156250,        0.1373291016,       -2.9907226562,        2.4566650391
1489455761.7697439194,1489455761.7720289230,       -0.6962890625,        0.2285156250,       -0.0410156250,        0.1373291016,       -2.9907226562,        2.4566650391
1489455761.7723031044,1489455761.7745959759,       -0.6962890625,        0.2285156250,       -0.0410156250,        0.1373291016,       -4.5166015625,        1.7700195312
1489455761.7748711109,1489455761.7771599293,       -0.6953125000,        0.2412109375,       -0.0463867188,        0.5035400391,       -4.5166015625,        1.7700195312
1489455761.7775409222,1489455761.7799029350,       -0.6953125000,        0.2412109375,       -0.0463867188,        0.5035400391,       -4.5166015625,        1.3275146484
1489455761.7801849842,1489455761.7826108932,       -0.6953125000,        0.2412109375,       -0.0463867188,        1.5411376953,       -5.4473876953,        1.3275146484
1489455761.7828900814,1489455761.7853019238,       -0.6953125000,        0.2412109375,       -0.0258789062,        1.5411376953,       -5.4473876953,        0.5035400391
1489455761.7855820656,1489455761.7880029678,       -0.7055664062,        0.2275390625,       -0.0258789062,        2.3498535156,       -5.7067871094,        0.5035400391
1489455761.7882850170,1489455761.7907149792,       -0.7055664062,        0.2275390625,       -0.0258789062,        2.3498535156,       -5.7067871094,        0.6103515625
1489455761.7909948826,1489455761.7934110165,       -0.7055664062,        0.2275390625,       -0.0258789062,        3.1433105469,       -6.1798095703,        0.6103515625
1489455761.7936940193,1489455761.7961111069,       -0.7055664062,        0.1977539062,       -0.0229492188,        3.1433105469,       -6.1798095703,        0.8850097656
1489455761.7963929176,1489455761.7988529205,       -0.7158203125,        0.1977539062,       -0.0229492188,        2.9449462891,       -6.6833496094,        0.8850097656
1489455761.7991259098,1489455761.8014171124,       -0.7158203125,        0.1977539062,       -0.0229492188,        2.9449462891,       -6.6833496094,        1.4801025391
1489455761.8016901016,1489455761.8039851189,       -0.7158203125,        0.1977539062,       -0.0229492188,        2.1820068359,       -6.9885253906,        1.4801025391
1489455761.8042581081,1489455761.8065450191,       -0.7187500000,        0.2143554688,       -0.0102539062,        2.1820068359,       -6.9885253906,        1.4801025391
1489455761.8068199158,1489455761.8091950417,       -0.7187500000,        0.2143554688,       -0.0102539062,        2.2735595703,       -7.2021484375,        1.9073486328
1489455761.8094699383,1489455761.8117589951,       -0.7187500000,        0.2143554688,       -0.0102539062,        2.2735595703,       -7.2021484375,        1.9073486328
1489455761.8120319843,1489455761.8143250942,       -0.7187500000,        0.2143554688,       -0.0102539062,        3.0975341797,       -7.3242187500,        2.5939941406
1489455761.8145990372,1489455761.8168969154,       -0.7055664062,        0.2216796875,       -0.0166015625,        3.0975341797,       -7.3242187500,        2.5939941406
1489455761.8171710968,1489455761.8196411133,       -0.7055664062,        0.2216796875,       -0.0166015625,        3.5705566406,       -7.2174072266,        2.3803710938
1489455761.8199150562,1489455761.8222119808,       -0.7055664062,        0.2216796875,       -0.0166015625,        3.5705566406,       -7.2174072266,        2.3803710938
1489455761.8224849701,1489455761.8247840405,       -0.7055664062,        0.2216796875,       -0.0166015625,        3.4637451172,       -7.0343017578,        1.9531250000
1489455761.8250570297,1489455761.8273549080,       -0.7290039062,        0.2114257812,       -0.0117187500,        3.4637451172,       -7.0343017578,        1.9531250000
1489455761.8276290894,1489455761.8300430775,       -0.7290039062,        0.2114257812,       -0.0117187500,        3.8452148438,       -7.6446533203,        2.1362304688
1489455761.8303248882,1489455761.8327429295,       -0.7290039062,        0.2114257812,       -0.0117187500,        3.8452148438,       -7.6446533203,        2.1362304688
1489455761.8330259323,1489455761.8354411125,       -0.7290039062,        0.2114257812,       -0.0117187500,        4.3334960938,       -7.5378417969,        2.4566650391
1489455761.8357210159,1489455761.8382019997,       -0.7309570312,        0.2080078125,       -0.0117187500,        4.3334960938,       -7.5378417969,        2.4566650391
1489455761.8384969234,1489455761.8408958912,       -0.7309570312,        0.2080078125,       -0.0117187500,        4.8980712891,       -7.2479248047,        2.3956298828
1489455761.8412849903,1489455761.8436648846,       -0.7309570312,        0.2080078125,       -0.0117187500,        4.8980712891,       -7.2479248047,        2.3956298828
1489455761.8439431190,1489455761.8464200497,       -0.7309570312,        0.2241210938,       -0.0166015625,        5.3710937500,       -7.7056884766,        2.3345947266
1489455761.8467030525,1489455761.8498859406,       -0.7182617188,        0.2241210938,       -0.0166015625,        5.3710937500,       -7.7056884766,        2.3345947266
1489455761.8501610756,1489455761.8524520397,       -0.7182617188,        0.2241210938,       -0.0166015625,        5.4626464844,       -8.0413818359,        2.3498535156
1489455761.8527269363,1489455761.8550109863,       -0.7182617188,        0.2241210938,       -0.0166015625,        5.4626464844,       -8.0413818359,        2.3498535156
1489455761.8552839756,1489455761.8575708866,       -0.7001953125,        0.2236328125,       -0.0283203125,        5.4779052734,       -8.3618164062,        2.7313232422
1489455761.8578441143,1489455761.8602020741,       -0.7001953125,        0.2236328125,       -0.0283203125,        5.4779052734,       -8.3618164062,        2.7313232422
1489455761.8604760170,1489455761.8627610207,       -0.7001953125,        0.2236328125,       -0.0283203125,        5.3863525391,       -8.7890625000,        2.4261474609
1489455761.8630380630,1489455761.8653209209,       -0.7001953125,        0.2236328125,       -0.0283203125,        5.3863525391,       -8.7890625000,        2.4261474609
1489455761.8655951023,1489455761.8678820133,       -0.6997070312,        0.2304687500,       -0.0185546875,        5.8898925781,       -8.9874267578,        2.1820068359
1489455761.8681550026,1489455761.8704528809,       -0.6997070312,        0.2304687500,       -0.0185546875,        5.8898925781,       -8.9874267578,        2.1820068359
1489455761.8707270622,1489455761.8730170727,       -0.6997070312,        0.2304687500,       -0.0185546875,        6.9580078125,       -9.1094970703,        2.6397705078
1489455761.8732919693,1489455761.8755829334,       -0.6997070312,        0.2304687500,       -0.0185546875,        6.9580078125,       -9.1094970703,        2.6397705078
1489455761.8758559227,1489455761.8781449795,       -0.7070312500,        0.2197265625,       -0.0229492188,        6.9580078125,       -9.5214843750,        3.1890869141
1489455761.8784179688,1489455761.8807549477,       -0.7070312500,        0.2197265625,       -0.0229492188,        7.5225830078,       -9.5214843750,        3.1890869141
1489455761.8810279369,1489455761.8833119869,       -0.7070312500,        0.2197265625,       -0.0229492188,        7.5225830078,       -9.7656250000,        3.3416748047
1489455761.8835859299,1489455761.8858690262,       -0.7070312500,        0.2197265625,       -0.0229492188,        8.3160400391,       -9.7656250000,        3.3416748047
1489455761.8861439228,1489455761.8884339333,       -0.7309570312,        0.1997070312,        0.0014648438,        8.3160400391,       -9.7656250000,        4.1961669922
1489455761.8887090683,1489455761.8910009861,       -0.7309570312,        0.1997070312,        0.0014648438,        9.0942382812,       -9.0484619141,        4.1961669922
1489455761.8912780285,1489455761.8935699463,       -0.7309570312,        0.1997070312,        0.0014648438,        9.0942382812,       -9.0484619141,        4.1961669922
1489455761.8938469887,1489455761.8961329460,       -0.7309570312,        0.1997070312,        0.0014648438,        9.6282958984,       -8.8653564453,        5.6915283203
1489455761.8964068890,1489455761.8986918926,       -0.7402343750,        0.1962890625,        0.0156250000,        9.6282958984,       -8.8653564453,        5.6915283203
1489455761.8990840912,1489455761.9013888836,       -0.7402343750,        0.1962890625,        0.0156250000,       10.8032226562,       -8.6059570312,        7.1716308594
1489455761.9016699791,1489455761.9039599895,       -0.7402343750,        0.1962890625,        0.0156250000,       10.8032226562,       -8.6059570312,        7.1716308594
1489455761.9043478966,1489455761.9066419601,       -0.7402343750,        0.1962890625,        0.0356445312,       12.2375488281,       -7.7056884766,        8.7432861328
1489455761.9069209099,1489455761.9093759060,       -0.7490234375,        0.2070312500,        0.0356445312,       12.2375488281,       -7.7056884766,        8.7432861328
1489455761.9096629620,1489455761.9120790958,       -0.7490234375,        0.2070312500,        0.0356445312,       14.4958496094,       -6.9274902344,        9.9487304688
1489455761.9123659134,1489455761.9147830009,       -0.7490234375,        0.2070312500,        0.0356445312,       14.4958496094,       -6.9274902344,        9.9487304688
1489455761.9150679111,1489455761.9174840450,       -0.8740234375,        0.1933593750,        0.0473632812,       16.5710449219,       -6.5307617188,       11.1389160156
1489455761.9177739620,1489455761.9201641083,       -0.7651367188,        0.1933593750,        0.0473632812,       16.5710449219,       -6.5307617188,       11.1389160156
1489455761.9204459190,1489455761.9227390289,       -0.7651367188,        0.1933593750,        0.0473632812,       18.1579589844,       -5.2642822266,       12.2375488281
1489455761.9230210781,1489455761.9253199100,       -0.7651367188,        0.1933593750,        0.0473632812,       18.1579589844,       -5.2642822266,       12.2375488281
1489455761.9256010056,1489455761.9278969765,       -0.8046875000,        0.1689453125,        0.0698242188,       19.0429687500,       -3.7078857422,       13.9770507812
1489455761.9281790257,1489455761.9305679798,       -0.8046875000,        0.1689453125,        0.0698242188,       19.0429687500,       -3.7078857422,       13.9770507812
1489455761.9308590889,1489455761.9332768917,       -0.8046875000,        0.1689453125,        0.0698242188,       18.7225341797,       -2.6702880859,       15.9149169922
1489455761.9335660934,1489455761.9359838963,       -0.8046875000,        0.1689453125,        0.0698242188,       18.7225341797,       -2.6702880859,       15.9149169922
1489455761.9362740517,1489455761.9386889935,       -0.7924804688,        0.1684570312,        0.0600585938,       18.1579589844,       -1.6021728516,       18.0969238281
1489455761.9389710426,1489455761.9412639141,       -0.7924804688,        0.1684570312,        0.0600585938,       18.1579589844,       -1.6021728516,       18.0969238281
1489455761.9415459633,1489455761.9438419342,       -0.7924804688,        0.1684570312,        0.0600585938,       17.5323486328,       -0.8850097656,       20.1416015625
1489455761.9441239834,1489455761.9464139938,       -0.7924804688,        0.1684570312,        0.0600585938,       17.5323486328,       -0.8850097656,       20.1416015625
1489455761.9466960430,1489455761.9490609169,       -0.7646484375,        0.1884765625,        0.0234375000,       16.5252685547,       -0.1068115234,       22.4761962891
1489455761.9493520260,1489455761.9517650604,       -0.7646484375,        0.1884765625,        0.0234375000,       16.5252685547,       -0.1068115234,       22.4761962891
1489455761.9520549774,1489455761.9544680119,       -0.7646484375,        0.1884765625,        0.0234375000,       15.3961181641,        1.0681152344,       24.5666503906
1489455761.9547550678,1489455761.9571819305,       -0.7646484375,        0.1884765625,       -0.0053710938,       15.3961181641,        1.0681152344,       24.5666503906
1489455761.9574730396,1489455761.9599010944,       -0.7641601562,        0.1821289062,       -0.0053710938,       15.3656005859,        1.9226074219,       26.0925292969
1489455761.9601919651,1489455761.9626030922,       -0.7641601562,        0.1821289062,       -0.0053710938,       15.3656005859,        1.9226074219,       26.0925292969
1489455761.9628930092,1489455761.9653909206,       -0.7641601562,        0.1821289062,       -0.0053710938,       15.3656005859,        2.5329589844,       27.5726318359
1489455761.9656810760,1489455761.9681038857,       -0.7524414062,        0.1767578125,       -0.0058593750,       15.0299072266,        2.5329589844,       27.5726318359
1489455761.9685010910,1489455761.9708359241,       -0.7524414062,        0.1767578125,       -0.0058593750,       15.1367187500,        2.5634765625,       29.2510986328
1489455761.9711201191,1489455761.9734148979,       -0.7524414062,        0.1767578125,       -0.0058593750,       15.1367187500,        2.5634765625,       29.2510986328
1489455761.9736969471,1489455761.9759900570,       -0.7524414062,        0.1767578125,       -0.0058593750,       15.1367187500,        3.0822753906,       30.8685302734
1489455761.9762740135,1489455761.9785699844,       -0.7534179688,        0.2021484375,       -0.0341796875,       15.2130126953,        3.0822753906,       30.8685302734
1489455761.9788610935,1489455761.9812769890,       -0.7534179688,        0.2021484375,       -0.0341796875,       15.2130126953,        3.0822753906,       32.7606201172
1489455761.9815659523,1489455761.9839890003,       -0.7534179688,        0.2021484375,       -0.0341796875,       16.0522460938,        3.6315917969,       32.7606201172
1489455761.9842779636,1489455761.9867000580,       -0.7534179688,        0.2021484375,       -0.0341796875,       16.0522460938,        7.5378417969,       34.0423583984
1489455761.9869880676,1489455761.9894471169,       -0.7578125000,        0.2011718750,       -0.0341796875,       16.9372558594,        4.0740966797,       34.0423583984
1489455761.9897379875,1489455761.9921529293,       -0.7578125000,        0.2011718750,       -0.0341796875,       16.9372558594,        4.0740966797,       35.0036621094
1489455761.9924418926,1489455761.9948630333,       -0.7578125000,        0.2011718750,       -0.0341796875,       16.9830322266,        4.2114257812,       35.0036621094
1489455761.9951529503,1489455761.9975678921,       -0.7578125000,        0.2011718750,       -0.0190429688,       16.9830322266,        4.2114257812,       36.2243652344
1489455761.9978559017,1489455762.0002191067,       -0.7612304688,        0.2138671875,       -0.0190429688,       16.7236328125,        4.5471191406,       36.2243652344
1489455762.0005021095,1489455762.0027949810,       -0.7612304688,        0.2138671875,       -0.0190429688,       16.7236328125,        4.5471191406,       37.2314453125
1489455762.0030760765,1489455762.0053739548,       -0.7612304688,        0.2138671875,       -0.0190429688,       15.0451660156,        5.4321289062,       37.2314453125
1489455762.0056550503,1489455762.0079519749,       -0.7612304688,        0.2280273438,       -0.0283203125,       15.0451660156,        5.4321289062,       37.2314453125
1489455762.0082349777,1489455762.0106670856,       -0.7597656250,        0.2280273438,       -0.0283203125,       13.5498046875,        5.6762695312,       38.2843017578
1489455762.0109488964,1489455762.0132470131,       -0.7597656250,        0.2280273438,       -0.0283203125,       13.5498046875,        5.6762695312,       38.2843017578
1489455762.0135281086,1489455762.0158190727,       -0.7597656250,        0.2280273438,       -0.0283203125,       11.1236572266,        5.6457519531,       39.5355224609
1489455762.0160989761,1489455762.0183908939,       -0.7446289062,        0.2456054688,       -0.0390625000,       11.1236572266,        5.6457519531,       39.5355224609
1489455762.0186710358,1489455762.0212070942,       -0.7446289062,        0.2456054688,       -0.0390625000,        8.3465576172,        5.1422119141,       40.5883789062
1489455762.0214929581,1489455762.0239078999,       -0.7446289062,        0.2456054688,       -0.0390625000,        8.3465576172,        5.1422119141,       40.5883789062
1489455762.0241949558,1489455762.0266139507,       -0.7446289062,        0.2456054688,       -0.0390625000,        5.9814453125,        4.4403076172,       41.0919189453
1489455762.0269000530,1489455762.0293340683,       -0.7509765625,        0.2685546875,       -0.0556640625,        5.9814453125,        4.4403076172,       41.0919189453
1489455762.0296180248,1489455762.0320351124,       -0.7509765625,        0.2685546875,       -0.0556640625,        5.2337646484,        4.2877197266,       42.1600341797
1489455762.0324289799,1489455762.0348520279,       -0.7509765625,        0.2685546875,       -0.0556640625,        5.2337646484,        4.2877197266,       42.1600341797
1489455762.0351350307,1489455762.0375521183,       -0.7509765625,        0.2685546875,       -0.0556640625,        5.0201416016,        3.4484863281,       43.2128906250
1489455762.0378360748,1489455762.0402650833,       -0.7563476562,        0.2446289062,       -0.0493164062,        5.0201416016,        3.4484863281,       43.2128906250
1489455762.0405499935,1489455762.0429699421,       -0.7563476562,        0.2446289062,       -0.0493164062,        6.0882568359,        2.6092529297,       43.8995361328
1489455762.0434010029,1489455762.0456941128,       -0.7563476562,        0.2446289062,       -0.0493164062,        6.0882568359,        2.6092529297,       43.8995361328
1489455762.0459730625,1489455762.0482649803,       -0.7563476562,        0.2387695312,       -0.0444335938,        7.0190429688,        2.0904541016,       45.1812744141
1489455762.0485420227,1489455762.0509979725,       -0.7680664062,        0.2387695312,       -0.0444335938,        7.0190429688,        2.0904541016,       45.1812744141
1489455762.0512828827,1489455762.0536599159,       -0.7680664062,        0.2387695312,       -0.0444335938,        7.2937011719,        1.0223388672,       46.3409423828
1489455762.0539429188,1489455762.0564479828,       -0.7680664062,        0.2387695312,       -0.0444335938,        7.2937011719,        1.0223388672,       46.3409423828
1489455762.0567309856,1489455762.0597519875,       -0.7880859375,        0.2460937500,       -0.0356445312,        8.1024169922,        0.0762939453,       47.1191406250
1489455762.0600349903,1489455762.0623269081,       -0.7880859375,        0.2460937500,       -0.0356445312,        8.1024169922,        0.0762939453,       47.1191406250
1489455762.0626080036,1489455762.0648920536,       -0.7880859375,        0.2460937500,       -0.0356445312,        9.6740722656,       -0.4730224609,       47.7752685547
1489455762.0651719570,1489455762.0674540997,       -0.7880859375,        0.2460937500,       -0.0356445312,        9.6740722656,       -0.4730224609,       47.7752685547
1489455762.0677320957,1489455762.0701749325,       -0.8027343750,        0.2490234375,       -0.0463867188,       10.0555419922,       -1.2512207031,       47.8515625000
1489455762.0704588890,1489455762.0727469921,       -0.8027343750,        0.2490234375,       -0.0463867188,       10.0555419922,       -1.2512207031,       47.8515625000
1489455762.0730299950,1489455762.0753209591,       -0.8027343750,        0.2490234375,       -0.0463867188,       10.0555419922,       -1.9226074219,       48.1719970703
1489455762.0756030083,1489455762.0778949261,       -0.8027343750,        0.2490234375,       -0.0463867188,       10.0555419922,       -1.9226074219,       48.1719970703
1489455762.0781769753,1489455762.0806159973,       -0.8046875000,        0.2490234375,       -0.0463867188,       10.7116699219,       -2.4566650391,       49.1027832031
1489455762.0808990002,1489455762.0831859112,       -0.8046875000,        0.2490234375,       -0.0463867188,       10.7116699219,       -2.4566650391,       49.1027832031
1489455762.0834670067,1489455762.0857551098,       -0.8046875000,        0.2490234375,       -0.0463867188,       10.5743408203,       -2.8228759766,       49.8809814453
1489455762.0860369205,1489455762.0883240700,       -0.8046875000,        0.2490234375,       -0.0502929688,       10.5743408203,       -2.8228759766,       49.8809814453
1489455762.0886070728,1489455762.0911369324,       -0.8076171875,        0.2631835938,       -0.0502929688,       10.1013183594,       -3.4942626953,       50.2319335938
1489455762.0914208889,1489455762.0937130451,       -0.8076171875,        0.2631835938,       -0.0502929688,       10.1013183594,       -3.4942626953,       50.2319335938
1489455762.0939950943,1489455762.0962860584,       -0.8076171875,        0.2631835938,       -0.0502929688,       10.1470947266,       -3.6621093750,       50.2319335938
1489455762.0966780186,1489455762.0989670753,       -0.8076171875,        0.2382812500,       -0.0703125000,       10.1470947266,       -3.6621093750,       50.2319335938
1489455762.0992510319,1489455762.1016399860,       -0.8002929688,        0.2382812500,       -0.0703125000,        9.8266601562,       -2.6397705078,       50.7202148438
1489455762.1019198895,1489455762.1042089462,       -0.8002929688,        0.2382812500,       -0.0703125000,        9.8266601562,       -2.6397705078,       50.7202148438
1489455762.1044869423,1489455762.1067728996,       -0.8002929688,        0.2382812500,       -0.0703125000,        9.8266601562,       -2.1209716797,       51.8646240234
1489455762.1070530415,1489455762.1093840599,       -0.7890625000,        0.2441406250,       -0.0722656250,        9.2468261719,       -2.1209716797,       51.8646240234
1489455762.1096639633,1489455762.1120369434,       -0.7890625000,        0.2441406250,       -0.0722656250,        9.2468261719,       -1.4648437500,       52.0172119141
1489455762.1123158932,1489455762.1146070957,       -0.7890625000,        0.2441406250,       -0.0722656250,        8.2397460938,       -1.4648437500,       52.0172119141
1489455762.1148850918,1489455762.1171810627,       -0.7890625000,        0.2441406250,       -0.0722656250,        8.2397460938,       -1.4648437500,       52.3376464844
1489455762.1174590588,1489455762.1199059486,       -0.7783203125,        0.2753906250,       -0.0644531250,        6.9580078125,       -0.7629394531,       52.3376464844
1489455762.1202249527,1489455762.1225149632,       -0.7783203125,        0.2753906250,       -0.0644531250,        6.9580078125,       -0.7629394531,       52.9022216797
1489455762.1227951050,1489455762.1250860691,       -0.7783203125,        0.2753906250,       -0.0644531250,        5.4473876953,       -0.5645751953,       52.9022216797
1489455762.1253650188,1489455762.1276469231,       -0.7783203125,        0.2753906250,       -0.0644531250,        5.4473876953,       -0.5645751953,       52.9022216797
1489455762.1279239655,1489455762.1302208900,       -0.7661132812,        0.3129882812,       -0.0297851562,        4.0588378906,       -0.4577636719,       52.9937744141
1489455762.1305019855,1489455762.1327929497,       -0.7661132812,        0.3129882812,       -0.0297851562,        4.0588378906,       -0.4577636719,       52.9937744141
1489455762.1330709457,1489455762.1353549957,       -0.7661132812,        0.3129882812,       -0.0297851562,        2.3803710938,       -0.2593994141,       52.8869628906
1489455762.1356329918,1489455762.1379230022,       -0.7661132812,        0.3129882812,       -0.0297851562,        2.3803710938,       -0.2593994141,       52.8869628906
1489455762.1382009983,1489455762.1406440735,       -0.7641601562,        0.3256835938,       -0.0146484375,       -0.3356933594,        0.0762939453,       51.6510009766
1489455762.1409320831,1489455762.1433489323,       -0.7641601562,        0.3256835938,       -0.0146484375,       -0.3356933594,        0.0762939453,       51.6510009766
1489455762.1436350346,1489455762.1461029053,       -0.7641601562,        0.3256835938,       -0.0146484375,       -2.4871826172,        0.1983642578,       50.7659912109
1489455762.1463840008,1489455762.1486771107,       -0.7641601562,        0.3256835938,       -0.0146484375,       -2.4871826172,        0.1983642578,       50.7659912109
1489455762.1490609646,1489455762.1513619423,       -0.7670898438,        0.3212890625,       -0.0102539062,       -4.6997070312,        0.0152587891,       50.6286621094
1489455762.1516439915,1489455762.1539399624,       -0.7670898438,        0.3212890625,       -0.0102539062,       -4.6997070312,        0.0152587891,       50.6286621094
1489455762.1547870636,1489455762.1570758820,       -0.7670898438,        0.3212890625,       -0.0102539062,       -5.7220458984,       -0.6256103516,       50.3540039062
1489455762.1573579311,1489455762.1597580910,       -0.6420898438,        0.3354492188,       -0.0034179688,       -5.7220458984,       -0.6256103516,       50.3540039062
1489455762.1601409912,1489455762.1624310017,       -0.7485351562,        0.3354492188,       -0.0034179688,       -5.0659179688,       -0.7171630859,       49.6368408203
1489455762.1627130508,1489455762.1649999619,       -0.7485351562,        0.3354492188,       -0.0034179688,       -5.0659179688,       -0.7171630859,       49.6368408203
1489455762.1652810574,1489455762.1675779819,       -0.7485351562,        0.3354492188,       -0.0034179688,       -3.7231445312,       -0.1068115234,       49.7283935547
1489455762.1678569317,1489455762.1702010632,       -0.7338867188,        0.3173828125,        0.0161132812,       -3.7231445312,       -0.1068115234,       49.7283935547
1489455762.1704809666,1489455762.1727650166,       -0.7338867188,        0.3173828125,        0.0161132812,       -2.3651123047,        0.7934570312,       49.2401123047
1489455762.1730439663,1489455762.1753408909,       -0.7338867188,        0.3173828125,        0.0161132812,       -2.3651123047,        0.7934570312,       49.2401123047
1489455762.1756188869,1489455762.1779110432,       -0.7338867188,        0.3173828125,        0.0161132812,       -0.1983642578,        1.0986328125,       48.9959716797
1489455762.1781890392,1489455762.1804850101,       -0.7167968750,        0.3413085938,        0.0131835938,       -0.1983642578,        1.0986328125,       48.9959716797
1489455762.1807620525,1489455762.1830520630,       -0.7167968750,        0.3413085938,        0.0131835938,        2.4871826172,        0.9460449219,       49.0417480469
1489455762.1833300591,1489455762.1856238842,       -0.7167968750,        0.3413085938,        0.0131835938,        2.4871826172,        0.9460449219,       49.0417480469
1489455762.1859009266,1489455762.1881959438,       -0.7167968750,        0.3413085938,        0.0131835938,        2.4871826172,        0.9765625000,       48.8281250000
1489455762.1884729862,1489455762.1907899380,       -0.7124023438,        0.3413085938,        0.0361328125,        4.3182373047,        0.9765625000,       48.8281250000
1489455762.1910679340,1489455762.1933538914,       -0.7124023438,        0.3413085938,        0.0361328125,        4.3182373047,        0.9765625000,       48.8891601562
1489455762.1936340332,1489455762.1959218979,       -0.7124023438,        0.3413085938,        0.0361328125,        5.7678222656,        1.2969970703,       48.8891601562
1489455762.1961989403,1489455762.1984820366,       -0.7124023438,        0.3413085938,        0.0361328125,        5.7678222656,        1.2969970703,       48.8891601562
1489455762.1987619400,1489455762.2010869980,       -0.7231445312,        0.3378906250,        0.0605468750,        6.5002441406,        1.4801025391,       48.7365722656
1489455762.2013680935,1489455762.2036559582,       -0.7231445312,        0.3378906250,        0.0605468750,        6.5002441406,        1.4801025391,       48.7365722656
1489455762.2039339542,1489455762.2062249184,       -0.7231445312,        0.3378906250,        0.0605468750,        6.2255859375,        1.3580322266,       47.8210449219
1489455762.2065010071,1489455762.2089428902,       -0.7231445312,        0.3378906250,        0.0605468750,        6.2255859375,        1.3580322266,       47.8210449219
1489455762.2092220783,1489455762.2115099430,       -0.7231445312,        0.2744140625,        0.0883789062,        5.9509277344,        0.9002685547,       46.6766357422
1489455762.2117879391,1489455762.2140760422,       -0.7231445312,        0.2744140625,        0.0883789062,        5.9509277344,        0.9002685547,       46.6766357422
1489455762.2143549919,1489455762.2166481018,       -0.7231445312,        0.2744140625,        0.0883789062,        7.3394775391,        0.5493164062,       44.2199707031
1489455762.2169260979,1489455762.2192618847,       -0.7231445312,        0.2744140625,        0.0883789062,        7.3394775391,        0.5493164062,       44.2199707031
1489455762.2195420265,1489455762.2218289375,       -0.6884765625,        0.1298828125,        0.0869140625,        9.5672607422,        0.4272460938,       41.6564941406
1489455762.2221078873,1489455762.2243909836,       -0.6884765625,        0.1298828125,        0.0869140625,        9.5672607422,        0.4272460938,       41.6564941406
1489455762.2247769833,1489455762.2270610332,       -0.6884765625,        0.1298828125,        0.0869140625,       12.5732421875,        0.1068115234,       38.3453369141
1489455762.2273440361,1489455762.2296950817,       -0.6884765625,        0.1298828125,        0.0644531250,       12.5732421875,        0.1068115234,       38.3453369141
1489455762.2299859524,1489455762.2324030399,       -0.6660156250,        0.0288085938,        0.0644531250,       15.7623291016,       -0.4577636719,       35.4766845703
1489455762.2326929569,1489455762.2351119518,       -0.6660156250,        0.0288085938,        0.0644531250,       15.7623291016,       -0.4577636719,       35.4766845703
1489455762.2354009151,1489455762.2378261089,       -0.6660156250,        0.0288085938,        0.0644531250,       19.0277099609,       -1.4495849609,       31.6925048828
1489455762.2381150723,1489455762.2405440807,       -0.6660156250,        0.0097656250,        0.0668945312,       19.0277099609,       -1.4495849609,       31.6925048828
1489455762.2408330441,1489455762.2432579994,       -0.6562500000,        0.0097656250,        0.0668945312,       23.0712890625,       -2.3040771484,       28.0609130859
1489455762.2435491085,1489455762.2459669113,       -0.6562500000,        0.0097656250,        0.0668945312,       23.0712890625,       -2.3040771484,       28.0609130859
1489455762.2462570667,1489455762.2487208843,       -0.6562500000,        0.0097656250,        0.0668945312,       28.8543701172,       -2.2583007812,       26.1230468750
1489455762.2492289543,1489455762.2516078949,       -0.6621093750,        0.0639648438,        0.0405273438,       28.8543701172,       -2.2583007812,       26.1230468750
1489455762.2518939972,1489455762.2542710304,       -0.6621093750,        0.0639648438,        0.0405273438,       34.7595214844,       -2.9907226562,       22.2778320312
1489455762.2546091080,1489455762.2571120262,       -0.6621093750,        0.0639648438,        0.0405273438,       34.7595214844,       -2.9907226562,       22.2778320312
1489455762.2573969364,1489455762.2597699165,       -0.6621093750,        0.0639648438,        0.0405273438,       38.6047363281,       -4.1198730469,       15.7318115234
1489455762.2600510120,1489455762.2623360157,       -0.6772460938,        0.0034179688,        0.0288085938,       38.6047363281,       -4.1198730469,       15.7318115234
1489455762.2626190186,1489455762.2649059296,       -0.6772460938,        0.0034179688,        0.0288085938,       40.4815673828,       -4.4708251953,       10.0250244141
1489455762.2651889324,1489455762.2674798965,       -0.6772460938,        0.0034179688,        0.0288085938,       40.4815673828,       -4.4708251953,       10.0250244141
1489455762.2677619457,1489455762.2700600624,       -0.6772460938,        0.0034179688,        0.0058593750,       40.4815673828,       -4.9591064453,        4.5776367188
1489455762.2703421116,1489455762.2726309299,       -0.6679687500,       -0.0488281250,        0.0058593750,       40.2679443359,       -4.9591064453,        4.5776367188
1489455762.2729101181,1489455762.2751998901,       -0.6679687500,       -0.0488281250,        0.0058593750,       40.2679443359,       -4.9591064453,       -0.2136230469
1489455762.2754790783,1489455762.2777628899,       -0.6679687500,       -0.0488281250,        0.0058593750,       38.2843017578,       -6.3171386719,       -0.2136230469
1489455762.2780420780,1489455762.2803699970,       -0.6679687500,       -0.0488281250,       -0.0014648438,       38.2843017578,       -6.3171386719,       -4.6386718750
1489455762.2806489468,1489455762.2829399109,       -0.6484375000,       -0.0649414062,       -0.0014648438,       35.5987548828,       -7.1868896484,       -4.6386718750
1489455762.2832179070,1489455762.2855091095,       -0.6484375000,       -0.0649414062,       -0.0014648438,       35.5987548828,       -7.1868896484,       -8.5449218750
1489455762.2857890129,1489455762.2880771160,       -0.6484375000,       -0.0649414062,       -0.0014648438,       32.1502685547,       -7.7056884766,       -9.0332031250
1489455762.2884709835,1489455762.2907910347,       -0.6484375000,       -0.0610351562,       -0.0136718750,       32.1502685547,       -7.7056884766,       -9.0332031250
1489455762.2910699844,1489455762.2933590412,       -0.6269531250,       -0.0610351562,       -0.0136718750,       28.4729003906,       -7.8125000000,      -13.7786865234
1489455762.2936410904,1489455762.2959270477,       -0.6269531250,       -0.0610351562,       -0.0136718750,       28.4729003906,       -7.8125000000,      -13.7786865234
1489455762.2962079048,1489455762.2984969616,       -0.6269531250,       -0.0610351562,       -0.0136718750,       23.9105224609,       -8.3923339844,      -18.4783935547
1489455762.2987771034,1489455762.3012280464,       -0.6181640625,       -0.0742187500,       -0.0268554688,       23.9105224609,       -8.3923339844,      -18.4783935547
1489455762.3015120029,1489455762.3038001060,       -0.6181640625,       -0.0742187500,       -0.0268554688,       19.0582275391,       -8.7432861328,      -23.3459472656
