time_stamp before, time_stamp after, Acceleration x, Acceleration y, Acceleration z, Gyro x, Gyro y, Gyro z
1489457362.0235209465,1489457362.0327479839,       -0.7436523438,        0.0581054688,        0.0131835938,       -0.6866455078,       -0.5340576172,        0.1525878906
1489457362.0330500603,1489457362.0357649326,       -0.7436523438,        0.0581054688,        0.0131835938,       -0.2593994141,       -0.2136230469,        0.1525878906
1489457362.0360620022,1489457362.0383589268,       -0.7353515625,        0.0625000000,        0.0107421875,       -0.2593994141,       -0.4882812500,        0.0610351562
1489457362.0386331081,1489457362.0409789085,       -0.7353515625,        0.0625000000,        0.0107421875,       -0.3967285156,       -0.4882812500,        0.0610351562
1489457362.0412490368,1489457362.0435340405,       -0.7353515625,        0.0625000000,        0.0107421875,       -0.3967285156,       -0.4882812500,       -0.2136230469
1489457362.0438048840,1489457362.0460939407,       -0.7353515625,        0.0625000000,        0.0107421875,       -0.0915527344,       -0.6408691406,       -0.2136230469
1489457362.0463650227,1489457362.0486450195,       -0.7368164062,        0.0659179688,        0.0029296875,       -0.0915527344,       -0.6408691406,       -0.2593994141
1489457362.0489089489,1489457362.0511980057,       -0.7368164062,        0.0659179688,        0.0029296875,       -0.1525878906,       -0.8392333984,       -0.2593994141
1489457362.0514719486,1489457362.0537500381,       -0.7368164062,        0.0659179688,        0.0029296875,       -0.1525878906,       -0.8392333984,       -0.2593994141
1489457362.0540249348,1489457362.0563020706,       -0.7368164062,        0.0659179688,        0.0029296875,       -0.8544921875,       -0.4577636719,       -0.1831054688
1489457362.0565760136,1489457362.0590190887,       -0.7397460938,        0.0625000000,        0.0092773438,       -0.8544921875,       -0.4577636719,       -0.1831054688
1489457362.0592939854,1489457362.0615839958,       -0.7397460938,        0.0625000000,        0.0092773438,       -1.0223388672,       -0.5493164062,       -0.0915527344
1489457362.0618569851,1489457362.0641489029,       -0.7397460938,        0.0625000000,        0.0092773438,       -1.0223388672,       -0.5493164062,       -0.0915527344
1489457362.0644218922,1489457362.0667169094,       -0.7397460938,        0.0625000000,        0.0092773438,       -0.6256103516,       -0.5035400391,        0.1678466797
1489457362.0669898987,1489457362.0693709850,       -0.7358398438,        0.0664062500,        0.0234375000,       -0.6256103516,       -0.5035400391,        0.1678466797
1489457362.0696430206,1489457362.0719420910,       -0.7358398438,        0.0664062500,        0.0234375000,       -0.5340576172,       -0.3662109375,        0.3814697266
1489457362.0722150803,1489457362.0745019913,       -0.7358398438,        0.0664062500,        0.0234375000,       -0.5340576172,       -0.3662109375,        0.3814697266
1489457362.0747730732,1489457362.0770659447,       -0.7358398438,        0.0664062500,        0.0234375000,       -0.9002685547,       -0.3509521484,        0.0457763672
1489457362.0773398876,1489457362.0797970295,       -0.7348632812,        0.0654296875,        0.0083007812,       -0.9002685547,       -0.3509521484,        0.0457763672
1489457362.0800778866,1489457362.0824580193,       -0.7348632812,        0.0654296875,        0.0083007812,       -0.3814697266,       -0.4425048828,       -0.1373291016
1489457362.0827400684,1489457362.0851230621,       -0.7348632812,        0.0654296875,        0.0083007812,       -0.3814697266,       -0.4425048828,       -0.1373291016
1489457362.0854039192,1489457362.0877830982,       -0.7348632812,        0.0654296875,        0.0068359375,       -0.6103515625,       -0.2441406250,        0.0152587891
1489457362.0880639553,1489457362.0904910564,       -0.7358398438,        0.0625000000,        0.0068359375,       -0.6103515625,       -0.2441406250,        0.0152587891
1489457362.0907740593,1489457362.0931959152,       -0.7358398438,        0.0625000000,        0.0068359375,       -0.8392333984,       -0.3356933594,        0.1525878906
1489457362.0936429501,1489457362.0960559845,       -0.7358398438,        0.0625000000,        0.0068359375,       -0.8392333984,       -0.3356933594,        0.1525878906
1489457362.0963399410,1489457362.0987529755,       -0.7382812500,        0.0634765625,        0.0170898438,       -0.5493164062,       -0.1983642578,        0.1373291016
1489457362.0990879536,1489457362.1015100479,       -0.7382812500,        0.0634765625,        0.0170898438,       -0.5493164062,       -0.1983642578,        0.1373291016
1489457362.1017920971,1489457362.1042029858,       -0.7382812500,        0.0634765625,        0.0170898438,       -0.5645751953,       -0.1831054688,        0.2593994141
1489457362.1044840813,1489457362.1069040298,       -0.7382812500,        0.0634765625,        0.0170898438,       -0.5645751953,       -0.1831054688,        0.2593994141
1489457362.1071848869,1489457362.1097149849,       -0.7416992188,        0.0610351562,        0.0146484375,       -0.8850097656,       -0.1678466797,        0.0457763672
1489457362.1099998951,1489457362.1124160290,       -0.7416992188,        0.0610351562,        0.0146484375,       -0.8850097656,       -0.1678466797,        0.0457763672
1489457362.1126980782,1489457362.1151199341,       -0.7416992188,        0.0610351562,        0.0146484375,       -0.7476806641,        0.0305175781,        0.0762939453
1489457362.1154019833,1489457362.1178140640,       -0.7416992188,        0.0610351562,        0.0156250000,       -0.7476806641,        0.0305175781,        0.0762939453
1489457362.1180961132,1489457362.1205260754,       -0.7392578125,        0.0649414062,        0.0156250000,       -0.4425048828,       -0.0915527344,        0.1220703125
1489457362.1208078861,1489457362.1232309341,       -0.7392578125,        0.0649414062,        0.0156250000,       -0.4425048828,       -0.0915527344,        0.1220703125
1489457362.1235148907,1489457362.1262969971,       -0.7392578125,        0.0649414062,        0.0156250000,       -0.5645751953,       -0.0610351562,        0.1220703125
1489457362.1265881062,1489457362.1294469833,       -0.7358398438,        0.0634765625,        0.0146484375,       -0.5645751953,       -0.0610351562,        0.1220703125
1489457362.1297330856,1489457362.1321508884,       -0.7358398438,        0.0634765625,        0.0146484375,       -0.5950927734,       -0.3051757812,        0.1068115234
1489457362.1324338913,1489457362.1348509789,       -0.7358398438,        0.0634765625,        0.0146484375,       -0.5950927734,       -0.3051757812,        0.1068115234
1489457362.1351320744,1489457362.1375548840,       -0.7358398438,        0.0634765625,        0.0146484375,       -0.4577636719,       -0.4272460938,        0.0457763672
1489457362.1378359795,1489457362.1402649879,       -0.7407226562,        0.0629882812,        0.0180664062,       -0.4577636719,       -0.4272460938,        0.0457763672
1489457362.1405448914,1489457362.1429550648,       -0.7407226562,        0.0629882812,        0.0180664062,       -0.4119873047,       -0.5340576172,        0.1373291016
1489457362.1432359219,1489457362.1456580162,       -0.7407226562,        0.0629882812,        0.0180664062,       -0.4119873047,       -0.5340576172,        0.1373291016
1489457362.1459400654,1489457362.1483530998,       -0.7407226562,        0.0629882812,        0.0209960938,       -0.6713867188,       -0.5187988281,        0.1525878906
1489457362.1486361027,1489457362.1510720253,       -0.7319335938,        0.0625000000,        0.0209960938,       -0.6713867188,       -0.5187988281,        0.1525878906
1489457362.1513550282,1489457362.1537671089,       -0.7319335938,        0.0625000000,        0.0209960938,       -0.6561279297,       -0.5493164062,       -0.1220703125
1489457362.1540489197,1489457362.1564679146,       -0.7319335938,        0.0625000000,        0.0209960938,       -0.6561279297,       -0.5493164062,       -0.1220703125
1489457362.1567509174,1489457362.1591579914,       -0.7392578125,        0.0634765625,        0.0087890625,       -1.0528564453,       -0.5798339844,       -0.1678466797
1489457362.1595470905,1489457362.1618371010,       -0.7392578125,        0.0634765625,        0.0087890625,       -1.0528564453,       -0.5798339844,       -0.1678466797
1489457362.1621139050,1489457362.1644051075,       -0.7392578125,        0.0634765625,        0.0087890625,       -0.4272460938,        0.0457763672,       -0.1525878906
1489457362.1646800041,1489457362.1669778824,       -0.7392578125,        0.0634765625,        0.0087890625,       -0.4272460938,        0.0457763672,       -0.1525878906
1489457362.1672520638,1489457362.1695990562,       -0.7348632812,        0.0664062500,        0.0146484375,       -0.1983642578,       -0.1525878906,       -0.1068115234
1489457362.1698749065,1489457362.1721730232,       -0.7348632812,        0.0664062500,        0.0146484375,       -0.1983642578,       -0.1525878906,       -0.1068115234
1489457362.1724460125,1489457362.1747379303,       -0.7348632812,        0.0664062500,        0.0146484375,       -0.3509521484,       -0.1678466797,        0.0000000000
1489457362.1750121117,1489457362.1773059368,       -0.7348632812,        0.0664062500,        0.0146484375,       -0.3509521484,       -0.1678466797,        0.0000000000
1489457362.1775789261,1489457362.1799919605,       -0.7358398438,        0.0668945312,        0.0229492188,       -0.3509521484,       -0.0610351562,       -0.0305175781
1489457362.1802690029,1489457362.1825649738,       -0.7358398438,        0.0668945312,        0.0229492188,       -0.4272460938,       -0.0610351562,       -0.0305175781
1489457362.1828389168,1489457362.1851279736,       -0.7358398438,        0.0668945312,        0.0229492188,       -0.4272460938,       -0.1373291016,       -0.3356933594
1489457362.1854019165,1489457362.1877019405,       -0.7358398438,        0.0668945312,        0.0229492188,       -0.6408691406,       -0.1373291016,       -0.3356933594
1489457362.1879758835,1489457362.1904420853,       -0.7338867188,        0.0659179688,        0.0161132812,       -0.6408691406,       -0.1373291016,       -0.0915527344
1489457362.1907260418,1489457362.1931450367,       -0.7338867188,        0.0659179688,        0.0161132812,       -0.3204345703,       -0.3662109375,       -0.0915527344
1489457362.1934270859,1489457362.1958420277,       -0.7338867188,        0.0659179688,        0.0161132812,       -0.3204345703,       -0.3662109375,        0.0305175781
1489457362.1961219311,1489457362.1985340118,       -0.7338867188,        0.0659179688,        0.0200195312,       -0.3051757812,       -0.3814697266,        0.0305175781
1489457362.1988239288,1489457362.2012400627,       -0.7358398438,        0.0620117188,        0.0200195312,       -0.3051757812,       -0.3814697266,       -0.2136230469
1489457362.2015221119,1489457362.2039339542,       -0.7358398438,        0.0620117188,        0.0200195312,       -0.5645751953,       -0.2288818359,       -0.2136230469
1489457362.2042160034,1489457362.2066309452,       -0.7358398438,        0.0620117188,        0.0200195312,       -0.5645751953,       -0.2288818359,       -0.2593994141
1489457362.2069120407,1489457362.2093451023,       -0.7358398438,        0.0664062500,        0.0244140625,       -0.6561279297,       -0.0305175781,       -0.2593994141
1489457362.2096269131,1489457362.2120399475,       -0.7363281250,        0.0664062500,        0.0244140625,       -0.6561279297,       -0.0305175781,       -0.5340576172
1489457362.2123219967,1489457362.2147369385,       -0.7363281250,        0.0664062500,        0.0244140625,       -0.4425048828,       -0.1831054688,       -0.5340576172
1489457362.2150180340,1489457362.2174279690,       -0.7363281250,        0.0664062500,        0.0244140625,       -0.4425048828,       -0.1831054688,       -0.4882812500
1489457362.2177119255,1489457362.2200770378,       -0.7333984375,        0.0615234375,        0.0112304688,       -0.2136230469,        0.0610351562,       -0.4882812500
1489457362.2203528881,1489457362.2226440907,       -0.7333984375,        0.0615234375,        0.0112304688,       -0.2136230469,        0.0610351562,       -0.4882812500
1489457362.2230288982,1489457362.2253189087,       -0.7333984375,        0.0615234375,        0.0112304688,       -0.4425048828,        0.0152587891,       -0.2136230469
1489457362.2255930901,1489457362.2278790474,       -0.7333984375,        0.0615234375,        0.0112304688,       -0.4425048828,        0.0152587891,       -0.2136230469
1489457362.2281520367,1489457362.2306621075,       -0.7368164062,        0.0683593750,        0.0083007812,       -0.6256103516,       -0.1678466797,       -0.0610351562
1489457362.2309379578,1489457362.2332270145,       -0.7368164062,        0.0683593750,        0.0083007812,       -0.6256103516,       -0.1678466797,       -0.0610351562
1489457362.2335019112,1489457362.2357990742,       -0.7368164062,        0.0683593750,        0.0083007812,       -0.2746582031,       -0.1220703125,        0.0152587891
1489457362.2360730171,1489457362.2383630276,       -0.7368164062,        0.0683593750,        0.0083007812,       -0.2746582031,       -0.1220703125,        0.0152587891
1489457362.2386391163,1489457362.2411079407,       -0.7397460938,        0.0664062500,        0.0107421875,       -0.4730224609,       -0.3051757812,       -0.2746582031
1489457362.2413918972,1489457362.2438058853,       -0.7397460938,        0.0664062500,        0.0107421875,       -0.4730224609,       -0.3051757812,       -0.2746582031
1489457362.2440869808,1489457362.2466878891,       -0.7397460938,        0.0664062500,        0.0107421875,       -0.3814697266,       -0.1373291016,       -0.2746582031
1489457362.2469720840,1489457362.2496690750,       -0.7397460938,        0.0664062500,        0.0195312500,       -0.3814697266,       -0.1373291016,       -0.2746582031
1489457362.2499461174,1489457362.2522420883,       -0.7387695312,        0.0693359375,        0.0195312500,        0.0457763672,       -0.3204345703,       -0.3204345703
1489457362.2525169849,1489457362.2548139095,       -0.7387695312,        0.0693359375,        0.0195312500,        0.0457763672,       -0.3204345703,       -0.3204345703
1489457362.2550890446,1489457362.2573831081,       -0.7387695312,        0.0693359375,        0.0195312500,       -0.4119873047,       -0.2441406250,       -0.3204345703
1489457362.2576589584,1489457362.2602810860,       -0.7319335938,        0.0585937500,        0.0166015625,       -0.4119873047,       -0.2441406250,       -0.3204345703
1489457362.2605640888,1489457362.2629849911,       -0.7319335938,        0.0585937500,        0.0166015625,        0.0152587891,       -0.0305175781,       -0.3814697266
1489457362.2632648945,1489457362.2656800747,       -0.7319335938,        0.0585937500,        0.0166015625,        0.0152587891,       -0.0305175781,       -0.3814697266
1489457362.2659618855,1489457362.2683770657,       -0.7319335938,        0.0585937500,        0.0166015625,       -0.0152587891,        0.1678466797,       -0.3356933594
1489457362.2686569691,1489457362.2710859776,       -0.7407226562,        0.0595703125,        0.0209960938,       -0.0152587891,        0.1678466797,       -0.3356933594
1489457362.2713699341,1489457362.2737801075,       -0.7407226562,        0.0595703125,        0.0209960938,        0.2441406250,        0.1983642578,       -0.1373291016
1489457362.2740619183,1489457362.2764780521,       -0.7407226562,        0.0595703125,        0.0209960938,        0.2441406250,        0.1983642578,       -0.1373291016
1489457362.2767601013,1489457362.2792060375,       -0.7407226562,        0.0595703125,        0.0209960938,        0.0457763672,       -0.2593994141,       -0.3051757812
1489457362.2794818878,1489457362.2817699909,       -0.7363281250,        0.0629882812,        0.0205078125,        0.0457763672,       -0.2593994141,       -0.3051757812
1489457362.2820448875,1489457362.2843370438,       -0.7363281250,        0.0629882812,        0.0205078125,        0.3356933594,       -0.7629394531,       -0.3967285156
1489457362.2846109867,1489457362.2869009972,       -0.7363281250,        0.0629882812,        0.0205078125,        0.3356933594,       -0.7629394531,       -0.3967285156
1489457362.2872819901,1489457362.2896649837,       -0.7363281250,        0.0629882812,        0.0122070312,        0.2593994141,       -0.4272460938,       -0.3356933594
1489457362.2899489403,1489457362.2923719883,       -0.7338867188,        0.0639648438,        0.0122070312,        0.2593994141,       -0.4272460938,       -0.3356933594
1489457362.2926540375,1489457362.2950720787,       -0.7338867188,        0.0639648438,        0.0122070312,        0.3662109375,       -0.6713867188,       -0.4272460938
1489457362.2953529358,1489457362.2977690697,       -0.7338867188,        0.0639648438,        0.0122070312,        0.3662109375,       -0.6713867188,       -0.4272460938
1489457362.2980499268,1489457362.3003981113,       -0.7397460938,        0.0566406250,        0.0122070312,       -0.2746582031,       -0.1678466797,       -0.1831054688
1489457362.3006739616,1489457362.3029649258,       -0.7397460938,        0.0566406250,        0.0122070312,       -0.2746582031,       -0.1678466797,       -0.1831054688
1489457362.3032400608,1489457362.3055379391,       -0.7397460938,        0.0566406250,        0.0122070312,       -0.6256103516,       -0.3356933594,       -0.1373291016
1489457362.3058149815,1489457362.3081059456,       -0.7397460938,        0.0566406250,        0.0122070312,       -0.6256103516,       -0.3356933594,       -0.1373291016
1489457362.3083798885,1489457362.3107190132,       -0.7348632812,        0.0654296875,        0.0141601562,       -0.3662109375,        0.2746582031,       -0.1220703125
1489457362.3109951019,1489457362.3132939339,       -0.7348632812,        0.0654296875,        0.0141601562,       -0.3662109375,        0.2746582031,       -0.1220703125
1489457362.3135700226,1489457362.3158619404,       -0.7348632812,        0.0654296875,        0.0141601562,       -0.3662109375,        0.1373291016,       -0.3509521484
1489457362.3161358833,1489457362.3184299469,       -0.7348632812,        0.0654296875,        0.0141601562,       -0.1678466797,        0.1373291016,       -0.3509521484
1489457362.3187038898,1489457362.3212559223,       -0.7319335938,        0.0634765625,        0.0200195312,       -0.1678466797,       -0.4730224609,       -0.0915527344
1489457362.3215389252,1489457362.3239519596,       -0.7319335938,        0.0634765625,        0.0200195312,       -0.0457763672,       -0.4730224609,       -0.0915527344
1489457362.3242321014,1489457362.3266510963,       -0.7319335938,        0.0634765625,        0.0200195312,       -0.0457763672,       -0.4730224609,       -0.1373291016
1489457362.3269340992,1489457362.3293519020,       -0.7319335938,        0.0634765625,        0.0200195312,        0.0152587891,       -0.3204345703,       -0.1373291016
1489457362.3296360970,1489457362.3320550919,       -0.7412109375,        0.0629882812,        0.0166015625,        0.0152587891,        3.5858154297,       -0.3356933594
1489457362.3323349953,1489457362.3347549438,       -0.7412109375,        0.0629882812,        0.0166015625,       -0.2746582031,        0.0305175781,       -0.3356933594
1489457362.3350360394,1489457362.3374459743,       -0.7412109375,        0.0629882812,        0.0166015625,       -0.2746582031,       -3.8757324219,       -0.2899169922
1489457362.3377280235,1489457362.3401539326,       -0.7412109375,        0.0629882812,        0.0190429688,       -0.0610351562,       -0.2441406250,       -0.2899169922
1489457362.3404350281,1489457362.3428530693,       -0.7402343750,        0.0620117188,        0.0190429688,       -0.0610351562,       -0.2441406250,       -0.4272460938
1489457362.3431339264,1489457362.3455469608,       -0.7402343750,        0.0620117188,        0.0190429688,       -0.0762939453,       -0.4425048828,       -0.4272460938
1489457362.3458290100,1489457362.3482429981,       -0.7402343750,        0.0620117188,        0.0190429688,       -0.0762939453,       -0.4425048828,       -0.4425048828
1489457362.3485240936,1489457362.3508479595,       -0.7421875000,        0.0649414062,        0.0141601562,       -0.2136230469,       -0.0305175781,       -0.4425048828
1489457362.3512279987,1489457362.3535230160,       -0.7421875000,        0.0649414062,        0.0141601562,       -0.2136230469,       -0.0305175781,       -0.6103515625
1489457362.3537979126,1489457362.3560950756,       -0.7421875000,        0.0649414062,        0.0141601562,       -0.1373291016,       -0.3509521484,       -0.6103515625
1489457362.3563690186,1489457362.3586580753,       -0.7421875000,        0.0649414062,        0.0141601562,       -0.1373291016,       -0.3509521484,       -0.6103515625
1489457362.3589389324,1489457362.3613541126,       -0.7377929688,        0.0639648438,        0.0166015625,       -0.6866455078,       -0.3204345703,       -0.4425048828
1489457362.3616371155,1489457362.3640589714,       -0.7377929688,        0.0639648438,        0.0166015625,       -0.6866455078,       -0.3204345703,       -0.4425048828
1489457362.3643419743,1489457362.3668189049,       -0.7377929688,        0.0639648438,        0.0166015625,       -0.5493164062,       -0.3509521484,       -0.4882812500
1489457362.3671019077,1489457362.3695290089,       -0.7377929688,        0.0639648438,        0.0166015625,       -0.5493164062,       -0.3509521484,       -0.4882812500
1489457362.3698101044,1489457362.3722219467,       -0.7392578125,        0.0600585938,        0.0058593750,       -0.0762939453,       -0.1831054688,       -0.3356933594
1489457362.3725039959,1489457362.3751749992,       -0.7392578125,        0.0600585938,        0.0058593750,       -0.0762939453,       -0.1831054688,       -0.3356933594
1489457362.3754599094,1489457362.3778600693,       -0.7392578125,        0.0600585938,        0.0058593750,       -0.4425048828,       -0.2441406250,        0.0610351562
1489457362.3781421185,1489457362.3808310032,       -0.7392578125,        0.0600585938,        0.0161132812,       -0.4425048828,       -0.2441406250,       -0.0610351562
1489457362.3811149597,1489457362.3840999603,       -0.7348632812,        0.0595703125,        0.0161132812,       -0.3204345703,       -0.3356933594,       -0.0610351562
1489457362.3843810558,1489457362.3869600296,       -0.7348632812,        0.0595703125,        0.0161132812,       -0.2746582031,       -0.0457763672,       -0.2746582031
1489457362.3872439861,1489457362.3896200657,       -0.7348632812,        0.0595703125,        0.0161132812,       -0.2746582031,       -0.0457763672,       -0.2746582031
1489457362.3898949623,1489457362.3921909332,       -0.7368164062,        0.0678710938,        0.0195312500,        3.6315917969,       -0.2746582031,       -0.3509521484
1489457362.3924639225,1489457362.3947548866,       -0.7368164062,        0.0678710938,        0.0195312500,        0.0305175781,       -0.2746582031,       -0.3509521484
1489457362.3950290680,1489457362.3974330425,       -0.7368164062,        0.0678710938,        0.0195312500,        0.0305175781,       -0.2593994141,       -0.2288818359
1489457362.3977088928,1489457362.4000699520,       -0.7368164062,        0.0678710938,        0.0195312500,       -0.1525878906,       -0.2593994141,       -0.2288818359
1489457362.4003510475,1489457362.4027359486,       -0.7324218750,        0.0673828125,        0.0141601562,       -0.1525878906,        3.6468505859,       -0.0915527344
1489457362.4030160904,1489457362.4054019451,       -0.7324218750,        0.0673828125,        0.0141601562,       -0.3509521484,        0.2441406250,       -0.0915527344
1489457362.4056839943,1489457362.4080998898,       -0.7324218750,        0.0673828125,        0.0141601562,       -0.3509521484,        0.2441406250,       -0.3051757812
1489457362.4083809853,1489457362.4107420444,       -0.7324218750,        0.0673828125,        0.0112304688,       -0.1831054688,        0.0152587891,       -0.3051757812
1489457362.4110169411,1489457362.4133069515,       -0.7319335938,        0.0698242188,        0.0112304688,       -0.1831054688,        0.0152587891,       -0.1525878906
1489457362.4135820866,1489457362.4158699512,       -0.7319335938,        0.0698242188,        0.0112304688,       -0.0152587891,       -0.0152587891,       -0.1525878906
1489457362.4162468910,1489457362.4185450077,       -0.7319335938,        0.0698242188,        0.0112304688,       -0.0152587891,       -0.0152587891,       -0.1525878906
1489457362.4188530445,1489457362.4211449623,       -0.7319335938,        0.0600585938,        0.0126953125,        0.1983642578,       -0.4882812500,       -0.3967285156
1489457362.4214189053,1489457362.4237139225,       -0.7333984375,        0.0600585938,        0.0126953125,        0.1983642578,       -0.4882812500,       -0.3967285156
1489457362.4239890575,1489457362.4262828827,       -0.7333984375,        0.0600585938,        0.0126953125,        0.4119873047,       -0.3967285156,       -0.7171630859
1489457362.4265580177,1489457362.4289999008,       -0.7333984375,        0.0600585938,        0.0126953125,        0.4119873047,       -0.3967285156,       -0.7171630859
1489457362.4292759895,1489457362.4315729141,       -0.7304687500,        0.0634765625,        0.0146484375,        0.1525878906,       -0.4882812500,       -0.4577636719
1489457362.4318470955,1489457362.4341499805,       -0.7304687500,        0.0634765625,        0.0146484375,        0.1525878906,       -0.4882812500,       -0.4577636719
1489457362.4344251156,1489457362.4367160797,       -0.7304687500,        0.0634765625,        0.0146484375,       -0.1525878906,       -0.4272460938,       -0.3967285156
1489457362.4369909763,1489457362.4394021034,       -0.7304687500,        0.0634765625,        0.0146484375,       -0.1525878906,       -0.4272460938,       -0.3967285156
1489457362.4396770000,1489457362.4419689178,       -0.7382812500,        0.0620117188,        0.0122070312,       -0.5798339844,        0.0152587891,       -0.2136230469
1489457362.4422440529,1489457362.4445319176,       -0.7382812500,        0.0620117188,        0.0122070312,       -0.5798339844,        0.0152587891,       -0.2136230469
1489457362.4448060989,1489457362.4471011162,       -0.7382812500,        0.0620117188,        0.0122070312,       -0.5493164062,       -0.2441406250,       -0.6561279297
1489457362.4473760128,1489457362.4497230053,       -0.7382812500,        0.0620117188,        0.0122070312,       -0.5493164062,       -0.2441406250,       -0.6561279297
1489457362.4500050545,1489457362.4524149895,       -0.7358398438,        0.0620117188,        0.0200195312,       -0.0915527344,       -0.5798339844,       -0.7781982422
1489457362.4526970387,1489457362.4551200867,       -0.7358398438,        0.0620117188,        0.0200195312,       -0.0915527344,       -0.5798339844,       -0.7781982422
1489457362.4554018974,1489457362.4578158855,       -0.7358398438,        0.0620117188,        0.0200195312,       -0.3051757812,       -0.1678466797,       -0.6256103516
1489457362.4580979347,1489457362.4605278969,       -0.7358398438,        0.0620117188,        0.0200195312,       -0.3051757812,       -0.1678466797,       -0.6256103516
1489457362.4608099461,1489457362.4632260799,       -0.7397460938,        0.0649414062,        0.0200195312,       -0.3662109375,        0.2593994141,       -0.6408691406
1489457362.4635078907,1489457362.4659199715,       -0.7397460938,        0.0649414062,        0.0200195312,       -0.3662109375,        0.2593994141,       -0.6408691406
1489457362.4662029743,1489457362.4686150551,       -0.7397460938,        0.0649414062,        0.0200195312,       -0.1220703125,        0.0610351562,       -0.5340576172
1489457362.4689049721,1489457362.4713189602,       -0.7397460938,        0.0649414062,        0.0185546875,       -0.1220703125,        0.0610351562,       -0.5340576172
1489457362.4716019630,1489457362.4740140438,       -0.7368164062,        0.0659179688,        0.0185546875,       -0.1983642578,        0.1373291016,       -0.3509521484
1489457362.4742949009,1489457362.4767160416,       -0.7368164062,        0.0659179688,        0.0185546875,       -0.1983642578,        0.1373291016,       -0.3509521484
1489457362.4769990444,1489457362.4794640541,       -0.7368164062,        0.0659179688,        0.0185546875,       -0.3051757812,       -0.1373291016,       -0.2441406250
1489457362.4797470570,1489457362.4821660519,       -0.7416992188,        0.0590820312,        0.0146484375,       -0.3051757812,       -0.1373291016,       -0.2441406250
1489457362.4825539589,1489457362.4849660397,       -0.7416992188,        0.0590820312,        0.0146484375,       -0.2136230469,       -0.2899169922,       -0.3356933594
1489457362.4852499962,1489457362.4876608849,       -0.7416992188,        0.0590820312,        0.0146484375,       -0.2136230469,       -0.2899169922,       -0.3356933594
1489457362.4879429340,1489457362.4903059006,       -0.7416992188,        0.0590820312,        0.0146484375,        0.0915527344,        0.0610351562,       -0.2746582031
1489457362.4905810356,1489457362.4928689003,       -0.7363281250,        0.0634765625,        0.0102539062,        0.0915527344,        0.0610351562,       -0.2746582031
1489457362.4931418896,1489457362.4954879284,       -0.7363281250,        0.0634765625,        0.0102539062,        0.0915527344,       -0.2288818359,       -0.4272460938
1489457362.4957640171,1489457362.4980568886,       -0.7363281250,        0.0634765625,        0.0102539062,        0.3662109375,       -0.2288818359,       -0.4272460938
1489457362.4983320236,1489457362.5007419586,       -0.7363281250,        0.0634765625,        0.0102539062,        0.3662109375,       -0.2288818359,       -0.6103515625
1489457362.5010249615,1489457362.5034389496,       -0.7343750000,        0.0605468750,        0.0122070312,       -0.0305175781,       -0.3509521484,       -0.6103515625
1489457362.5037209988,1489457362.5061349869,       -0.7343750000,        0.0605468750,        0.0122070312,       -0.0305175781,        3.5552978516,       -0.3356933594
1489457362.5064179897,1489457362.5088388920,       -0.7343750000,        0.0605468750,        0.0122070312,       -0.4882812500,        0.1373291016,       -0.3356933594
1489457362.5091209412,1489457362.5115399361,       -0.7343750000,        0.0605468750,        0.0078125000,       -0.4882812500,        0.1373291016,       -0.2441406250
1489457362.5118219852,1489457362.5142400265,       -0.7343750000,        0.0668945312,        0.0078125000,       -0.3509521484,        0.0457763672,       -0.2441406250
1489457362.5145230293,1489457362.5169389248,       -0.7343750000,        0.0668945312,        0.0078125000,       -0.3509521484,        0.0457763672,       -0.1525878906
1489457362.5172219276,1489457362.5196468830,       -0.7343750000,        0.0668945312,        0.0078125000,       -0.5187988281,        0.1068115234,       -0.1525878906
1489457362.5199320316,1489457362.5223419666,       -0.7343750000,        0.0615234375,        0.0146484375,       -0.5187988281,        0.1068115234,       -0.3967285156
1489457362.5226230621,1489457362.5251429081,       -0.7299804688,        0.0615234375,        0.0146484375,       -0.3967285156,       -0.2441406250,       -0.3967285156
1489457362.5254240036,1489457362.5278730392,       -0.7299804688,        0.0615234375,        0.0146484375,       -0.3967285156,       -0.2441406250,       -0.2899169922
1489457362.5281670094,1489457362.5307729244,       -0.7299804688,        0.0615234375,        0.0146484375,       -0.4577636719,        0.0305175781,       -0.2899169922
1489457362.5310499668,1489457362.5333359241,       -0.7387695312,        0.0639648438,        0.0117187500,       -0.4577636719,       -3.8757324219,       -0.4425048828
1489457362.5336110592,1489457362.5358989239,       -0.7387695312,        0.0639648438,        0.0117187500,       -0.1068115234,       -0.3051757812,       -0.4425048828
1489457362.5361740589,1489457362.5384678841,       -0.7387695312,        0.0639648438,        0.0117187500,       -0.1068115234,       -0.3051757812,       -0.3051757812
1489457362.5387420654,1489457362.5410358906,       -0.7387695312,        0.0639648438,        0.0117187500,       -0.1525878906,       -0.4425048828,       -0.3051757812
1489457362.5413119793,1489457362.5435969830,       -0.7397460938,        0.0649414062,        0.0180664062,       -0.1525878906,       -0.4425048828,       -0.3051757812
1489457362.5438730717,1489457362.5461659431,       -0.7397460938,        0.0649414062,        0.0180664062,       -0.4272460938,       -0.3662109375,       -0.0915527344
1489457362.5465500355,1489457362.5488960743,       -0.7397460938,        0.0649414062,        0.0180664062,       -0.4272460938,       -0.3662109375,       -0.0915527344
1489457362.5491709709,1489457362.5514640808,       -0.7397460938,        0.0649414062,        0.0180664062,       -0.3356933594,       -0.1678466797,       -0.1220703125
1489457362.5517389774,1489457362.5540258884,       -0.7387695312,        0.0703125000,        0.0117187500,       -0.3356933594,       -0.1678466797,       -0.1220703125
1489457362.5543010235,1489457362.5565879345,       -0.7387695312,        0.0703125000,        0.0117187500,       -0.5035400391,        0.2288818359,       -0.1525878906
1489457362.5568609238,1489457362.5591590405,       -0.7387695312,        0.0703125000,        0.0117187500,       -0.5035400391,        0.2288818359,       -0.1525878906
1489457362.5594348907,1489457362.5617299080,       -0.7387695312,        0.0703125000,        0.0117187500,       -0.3662109375,        0.1983642578,        0.0305175781
1489457362.5620050430,1489457362.5642929077,       -0.7319335938,        0.0678710938,        0.0122070312,       -0.3662109375,        0.1983642578,        0.0305175781
1489457362.5645670891,1489457362.5668580532,       -0.7319335938,        0.0678710938,        0.0122070312,       -0.6103515625,        0.2746582031,       -0.0457763672
1489457362.5671329498,1489457362.5695590973,       -0.7319335938,        0.0678710938,        0.0122070312,       -0.6103515625,        0.2746582031,       -0.0457763672
1489457362.5698349476,1489457362.5721280575,       -0.7319335938,        0.0678710938,        0.0107421875,       -0.5035400391,        0.1220703125,       -0.0915527344
1489457362.5724029541,1489457362.5746929646,       -0.7338867188,        0.0620117188,        0.0107421875,       -0.5035400391,        0.1220703125,       -0.0915527344
1489457362.5749680996,1489457362.5772509575,       -0.7338867188,        0.0620117188,        0.0107421875,       -0.5035400391,       -0.1373291016,       -0.2441406250
1489457362.5775260925,1489457362.5799279213,       -0.7338867188,        0.0620117188,        0.0107421875,       -0.1220703125,       -0.1373291016,       -0.2441406250
1489457362.5802059174,1489457362.5824921131,       -0.7338867188,        0.0629882812,        0.0097656250,       -0.1220703125,       -0.2746582031,       -0.0457763672
1489457362.5827701092,1489457362.5850639343,       -0.7373046875,        0.0629882812,        0.0097656250,        0.3814697266,       -0.2746582031,       -0.0457763672
1489457362.5853390694,1489457362.5876319408,       -0.7373046875,        0.0629882812,        0.0097656250,        0.3814697266,       -0.2746582031,       -0.0457763672
1489457362.5879080296,1489457362.5902049541,       -0.7373046875,        0.0629882812,        0.0097656250,        0.1678466797,       -0.1678466797,       -0.0457763672
1489457362.5904800892,1489457362.5927710533,       -0.7373046875,        0.0688476562,        0.0161132812,        0.1678466797,       -0.1678466797,       -0.0457763672
1489457362.5930449963,1489457362.5953330994,       -0.7353515625,        0.0688476562,        0.0161132812,        0.1373291016,        0.1068115234,       -0.2441406250
1489457362.5956079960,1489457362.5978920460,       -0.7353515625,        0.0688476562,        0.0161132812,        0.1373291016,        0.1068115234,       -0.2441406250
1489457362.5981678963,1489457362.6005630493,       -0.7353515625,        0.0688476562,        0.0161132812,        0.2899169922,       -0.0915527344,       -0.1220703125
1489457362.6008450985,1489457362.6032629013,       -0.7324218750,        0.0644531250,        0.0117187500,        0.2899169922,       -0.0915527344,       -0.1220703125
1489457362.6035449505,1489457362.6059589386,       -0.7324218750,        0.0644531250,        0.0117187500,       -0.3204345703,        0.2899169922,       -0.5187988281
1489457362.6062428951,1489457362.6086609364,       -0.7324218750,        0.0644531250,        0.0117187500,       -0.3204345703,        0.2899169922,       -0.5187988281
1489457362.6090929508,1489457362.6115028858,       -0.7324218750,        0.0644531250,        0.0117187500,       -0.2288818359,        0.0152587891,       -0.4425048828
1489457362.6117839813,1489457362.6142029762,       -0.7431640625,        0.0688476562,        0.0205078125,       -0.2288818359,        0.0152587891,       -0.4425048828
1489457362.6144840717,1489457362.6168971062,       -0.7431640625,        0.0688476562,        0.0205078125,       -0.1525878906,       -0.0610351562,       -0.2441406250
1489457362.6171801090,1489457362.6196429729,       -0.7431640625,        0.0688476562,        0.0205078125,       -0.1525878906,       -0.0610351562,       -0.2441406250
1489457362.6199250221,1489457362.6223499775,       -0.7431640625,        0.0688476562,        0.0205078125,        0.0152587891,       -0.2746582031,       -0.4272460938
1489457362.6226320267,1489457362.6250450611,       -0.7299804688,        0.0654296875,        0.0083007812,        0.0152587891,       -0.2746582031,       -0.4272460938
1489457362.6253259182,1489457362.6277410984,       -0.7299804688,        0.0654296875,        0.0083007812,       -0.4272460938,        0.1220703125,       -0.6103515625
1489457362.6280241013,1489457362.6304590702,       -0.7299804688,        0.0654296875,        0.0083007812,       -0.4272460938,        0.1220703125,       -0.6103515625
1489457362.6307420731,1489457362.6331610680,       -0.7299804688,        0.0625000000,        0.0068359375,       -0.1983642578,        0.2288818359,       -0.5645751953
1489457362.6334450245,1489457362.6359651089,       -0.7314453125,        0.0625000000,        0.0068359375,       -0.1983642578,        0.2288818359,       -0.5645751953
1489457362.6362490654,1489457362.6386699677,       -0.7314453125,        0.0625000000,        0.0068359375,        0.3051757812,       -0.4882812500,       -0.3204345703
1489457362.6389639378,1489457362.6412589550,       -0.7314453125,        0.0625000000,        0.0068359375,        0.3051757812,       -0.4882812500,       -0.3204345703
1489457362.6415340900,1489457362.6438291073,       -0.7397460938,        0.0629882812,        0.0141601562,       -0.2593994141,       -0.3051757812,       -0.2288818359
1489457362.6441030502,1489457362.6463959217,       -0.7397460938,        0.0629882812,        0.0141601562,       -0.2593994141,       -0.3051757812,       -0.2288818359
1489457362.6466701031,1489457362.6489729881,       -0.7397460938,        0.0629882812,        0.0141601562,       -0.5035400391,       -0.0915527344,       -0.3204345703
1489457362.6492559910,1489457362.6516759396,       -0.7397460938,        0.0629882812,        0.0141601562,       -0.5035400391,       -0.0915527344,       -0.3204345703
1489457362.6519579887,1489457362.6543738842,       -0.7319335938,        0.0664062500,        0.0117187500,       -0.6256103516,        0.1678466797,       -0.3204345703
1489457362.6546580791,1489457362.6570758820,       -0.7319335938,        0.0664062500,        0.0117187500,       -0.6256103516,        0.1678466797,       -0.3204345703
1489457362.6573588848,1489457362.6598250866,       -0.7319335938,        0.0664062500,        0.0117187500,       -0.5187988281,        0.3051757812,       -0.5340576172
1489457362.6601068974,1489457362.6625258923,       -0.7319335938,        0.0664062500,        0.0117187500,       -0.5187988281,        0.3051757812,       -0.5340576172
1489457362.6628088951,1489457362.6652240753,       -0.7421875000,        0.0693359375,        0.0117187500,       -0.6713867188,        0.3509521484,       -0.3967285156
1489457362.6655049324,1489457362.6679210663,       -0.7421875000,        0.0693359375,        0.0117187500,       -0.6713867188,        0.3509521484,       -0.3967285156
1489457362.6682059765,1489457362.6705689430,       -0.7421875000,        0.0693359375,        0.0117187500,       -0.6103515625,       -0.0457763672,       -0.7171630859
1489457362.6708440781,1489457362.6731379032,       -0.7421875000,        0.0693359375,        0.0112304688,       -0.6103515625,       -0.0457763672,       -0.7171630859
1489457362.6735188961,1489457362.6758139133,       -0.7363281250,        0.0678710938,        0.0112304688,       -0.0762939453,        0.0457763672,       -0.7476806641
1489457362.6760890484,1489457362.6783781052,       -0.7363281250,        0.0678710938,        0.0112304688,       -0.0762939453,        0.0457763672,       -0.7476806641
1489457362.6786520481,1489457362.6810700893,       -0.7363281250,        0.0678710938,        0.0112304688,        0.5798339844,       -0.0762939453,       -1.2969970703
1489457362.6813440323,1489457362.6836390495,       -0.7363281250,        0.0659179688,        0.0112304688,        0.5798339844,       -0.0762939453,       -1.2969970703
1489457362.6839120388,1489457362.6862080097,       -0.7333984375,        0.0659179688,        0.0112304688,        0.4882812500,       -0.1983642578,       -0.8544921875
1489457362.6864819527,1489457362.6887729168,       -0.7333984375,        0.0659179688,        0.0112304688,        0.4882812500,       -0.1983642578,       -0.8544921875
1489457362.6892139912,1489457362.6915059090,       -0.7333984375,        0.0659179688,        0.0112304688,        0.4882812500,       -0.6103515625,       -0.7019042969
1489457362.6917810440,1489457362.6940710545,       -0.7441406250,        0.0644531250,        0.0092773438,        0.4730224609,       -0.6103515625,       -0.7019042969
1489457362.6943480968,1489457362.6966340542,       -0.7441406250,        0.0644531250,        0.0092773438,        0.4730224609,       -0.6103515625,       -0.7934570312
1489457362.6969089508,1489457362.6992681026,       -0.7441406250,        0.0644531250,        0.0092773438,        0.2136230469,       -0.6103515625,       -0.7934570312
1489457362.6995520592,1489457362.7019670010,       -0.7441406250,        0.0644531250,        0.0092773438,        0.2136230469,       -0.6103515625,       -1.1901855469
1489457362.7022490501,1489457362.7046620846,       -0.7416992188,        0.0610351562,        0.0087890625,        0.2136230469,       -0.4882812500,       -1.1901855469
1489457362.7049438953,1489457362.7073619366,       -0.7416992188,        0.0610351562,        0.0087890625,        0.2136230469,       -0.4882812500,       -1.1138916016
1489457362.7076458931,1489457362.7100698948,       -0.7416992188,        0.0610351562,        0.0087890625,        0.3204345703,       -0.6256103516,       -1.1138916016
1489457362.7103528976,1489457362.7127690315,       -0.7416992188,        0.0610351562,        0.0087890625,        0.3204345703,       -0.6256103516,       -0.8239746094
1489457362.7130510807,1489457362.7154660225,       -0.7353515625,        0.0620117188,        0.0073242188,        0.1983642578,       -0.2746582031,       -0.8239746094
1489457362.7157480717,1489457362.7181639671,       -0.7353515625,        0.0620117188,        0.0073242188,        0.1983642578,       -0.2746582031,       -0.5187988281
1489457362.7184441090,1489457362.7208731174,       -0.7353515625,        0.0620117188,        0.0073242188,       -0.5035400391,        0.1525878906,       -0.5187988281
1489457362.7211558819,1489457362.7235660553,       -0.7353515625,        0.0620117188,        0.0151367188,       -0.5035400391,        0.1525878906,       -0.5645751953
1489457362.7238481045,1489457362.7262630463,       -0.7397460938,        0.0595703125,        0.0151367188,       -0.4730224609,       -0.1678466797,       -0.5645751953
1489457362.7265450954,1489457362.7289619446,       -0.7397460938,        0.0595703125,        0.0151367188,       -0.4730224609,       -0.1678466797,       -0.3356933594
1489457362.7292439938,1489457362.7316598892,       -0.7397460938,        0.0595703125,        0.0151367188,       -0.8239746094,       -0.4425048828,       -0.3356933594
1489457362.7320361137,1489457362.7343430519,       -0.7397460938,        0.0576171875,        0.0214843750,       -0.8239746094,       -0.4425048828,       -0.3356933594
1489457362.7346210480,1489457362.7369139194,       -0.7387695312,        0.0576171875,        0.0214843750,       -0.3509521484,       -0.5645751953,       -0.5187988281
1489457362.7372939587,1489457362.7397649288,       -0.7387695312,        0.0576171875,        0.0214843750,       -0.3509521484,       -0.5645751953,       -0.5187988281
1489457362.7400410175,1489457362.7423319817,       -0.7387695312,        0.0576171875,        0.0214843750,       -0.4882812500,        0.0152587891,       -0.4577636719
1489457362.7426080704,1489457362.7450249195,       -0.7319335938,        0.0659179688,        0.0175781250,       -0.4882812500,        0.0152587891,       -0.4577636719
1489457362.7453000546,1489457362.7475941181,       -0.7319335938,        0.0659179688,        0.0175781250,       -0.5493164062,        0.1373291016,       -0.7171630859
1489457362.7482440472,1489457362.7506918907,       -0.7319335938,        0.0659179688,        0.0175781250,       -0.5493164062,        0.1373291016,       -0.7171630859
1489457362.7509748936,1489457362.7533960342,       -0.7319335938,        0.0659179688,        0.0175781250,       -0.4882812500,        0.0152587891,       -0.5950927734
1489457362.7536780834,1489457362.7560980320,       -0.7319335938,        0.0639648438,        0.0092773438,       -0.4882812500,        0.0152587891,       -0.5950927734
1489457362.7563800812,1489457362.7588329315,       -0.7319335938,        0.0639648438,        0.0092773438,       -0.8392333984,       -0.1373291016,       -0.4882812500
1489457362.7591149807,1489457362.7615330219,       -0.7319335938,        0.0639648438,        0.0092773438,       -0.8392333984,       -0.1373291016,       -0.4882812500
1489457362.7618160248,1489457362.7642290592,       -0.7319335938,        0.0639648438,        0.0161132812,       -0.5645751953,       -0.0305175781,       -0.4730224609
1489457362.7645080090,1489457362.7669301033,       -0.7402343750,        0.0610351562,        0.0161132812,       -0.5645751953,       -0.0305175781,       -0.4730224609
1489457362.7672131062,1489457362.7696399689,       -0.7402343750,        0.0610351562,        0.0161132812,       -0.6256103516,       -0.3356933594,       -0.6103515625
1489457362.7699229717,1489457362.7723419666,       -0.7402343750,        0.0610351562,        0.0161132812,       -0.6256103516,       -0.3356933594,       -0.6103515625
1489457362.7726230621,1489457362.7750370502,       -0.7368164062,        0.0659179688,        0.0097656250,       -0.2899169922,       -0.5035400391,       -0.2593994141
1489457362.7753210068,1489457362.7777400017,       -0.7368164062,        0.0659179688,        0.0097656250,       -0.2899169922,       -0.5035400391,        3.6468505859
1489457362.7780230045,1489457362.7803659439,       -0.7368164062,        0.0659179688,        0.0097656250,       -0.7019042969,       -0.2441406250,        0.0610351562
1489457362.7806420326,1489457362.7829360962,       -0.7368164062,        0.0659179688,        0.0097656250,       -0.7019042969,       -0.2441406250,        0.0610351562
1489457362.7832119465,1489457362.7855100632,       -0.7319335938,        0.0541992188,        0.0092773438,       -0.8850097656,       -0.1220703125,       -0.0305175781
1489457362.7857840061,1489457362.7880749702,       -0.7319335938,        0.0541992188,        0.0092773438,       -0.8850097656,       -0.1220703125,       -0.0305175781
1489457362.7883510590,1489457362.7907190323,       -0.7319335938,        0.0541992188,        0.0092773438,       -0.9613037109,       -0.5035400391,       -0.1831054688
1489457362.7909970284,1489457362.7932848930,       -0.7319335938,        0.0541992188,        0.0092773438,       -0.9613037109,       -0.5035400391,       -0.1831054688
1489457362.7935600281,1489457362.7958500385,       -0.7382812500,        0.0620117188,        0.0166015625,       -1.2817382812,       -0.5340576172,       -0.3662109375
1489457362.7961258888,1489457362.7984240055,       -0.7382812500,        0.0620117188,        0.0166015625,       -1.2817382812,       -0.5340576172,       -0.3662109375
1489457362.7986979485,1489457362.8012111187,       -0.7382812500,        0.0620117188,        0.0166015625,       -0.5340576172,       -0.0610351562,       -0.3051757812
1489457362.8016009331,1489457362.8040020466,       -0.7382812500,        0.0620117188,        0.0166015625,       -0.5340576172,       -0.0610351562,       -0.3051757812
1489457362.8042829037,1489457362.8066849709,       -0.7241210938,        0.0703125000,        0.0039062500,       -0.6561279297,       -0.1831054688,       -0.2136230469
1489457362.8069670200,1489457362.8093690872,       -0.7241210938,        0.0703125000,        0.0039062500,       -0.6561279297,       -0.1831054688,       -0.2136230469
1489457362.8096520901,1489457362.8120551109,       -0.7241210938,        0.0703125000,        0.0039062500,       -0.6561279297,       -0.5798339844,       -0.5798339844
1489457362.8123350143,1489457362.8147299290,       -0.7241210938,        0.0703125000,        0.0117187500,       -0.6561279297,       -0.5798339844,       -0.5798339844
1489457362.8150100708,1489457362.8174068928,       -0.7353515625,        0.0654296875,        0.0117187500,       -0.3662109375,       -0.8087158203,       -0.6866455078
1489457362.8176860809,1489457362.8201088905,       -0.7353515625,        0.0654296875,        0.0117187500,       -0.3662109375,       -0.8087158203,       -0.6866455078
1489457362.8203880787,1489457362.8227880001,       -0.7353515625,        0.0654296875,        0.0117187500,       -0.0305175781,       -0.6713867188,       -0.8392333984
1489457362.8230669498,1489457362.8254671097,       -0.7382812500,        0.0654296875,        0.0161132812,       -0.0305175781,       -0.6713867188,       -0.8392333984
1489457362.8257501125,1489457362.8281528950,       -0.7382812500,        0.0654296875,        0.0161132812,       -0.3662109375,        0.0915527344,       -0.6561279297
1489457362.8284330368,1489457362.8308451176,       -0.7382812500,        0.0654296875,        0.0161132812,       -0.3662109375,        0.0915527344,       -0.6561279297
1489457362.8311259747,1489457362.8335309029,       -0.7382812500,        0.0654296875,        0.0161132812,       -0.1525878906,        0.0152587891,       -0.5798339844
1489457362.8338100910,1489457362.8362009525,       -0.7348632812,        0.0693359375,        0.0126953125,       -0.1525878906,        0.0152587891,       -0.5798339844
1489457362.8364810944,1489457362.8388879299,       -0.7348632812,        0.0693359375,        0.0126953125,        0.1525878906,       -0.4425048828,       -0.5187988281
1489457362.8391709328,1489457362.8415760994,       -0.7348632812,        0.0693359375,        0.0126953125,        0.1525878906,       -0.4425048828,       -0.5187988281
1489457362.8418550491,1489457362.8442540169,       -0.7348632812,        0.0693359375,        0.0126953125,        0.1373291016,       -0.6408691406,       -0.8392333984
1489457362.8445339203,1489457362.8469319344,       -0.7338867188,        0.0576171875,        0.0156250000,        0.1373291016,       -0.6408691406,       -0.8392333984
1489457362.8472108841,1489457362.8496348858,       -0.7338867188,        0.0576171875,        0.0156250000,       -0.0610351562,       -0.5798339844,       -1.0223388672
1489457362.8499150276,1489457362.8523309231,       -0.7338867188,        0.0576171875,        0.0156250000,       -0.0610351562,       -0.5798339844,       -1.0223388672
1489457362.8526129723,1489457362.8551630974,       -0.7338867188,        0.0576171875,        0.0205078125,        0.1373291016,       -0.3051757812,       -0.6866455078
1489457362.8554570675,1489457362.8578801155,       -0.7338867188,        0.0581054688,        0.0205078125,        0.1373291016,       -0.3051757812,       -0.6866455078
1489457362.8581650257,1489457362.8608839512,       -0.7338867188,        0.0581054688,        0.0205078125,        0.4272460938,       -0.3204345703,       -0.7019042969
1489457362.8611690998,1489457362.8635909557,       -0.7338867188,        0.0581054688,        0.0205078125,        0.4272460938,       -0.3204345703,       -0.7019042969
1489457362.8638749123,1489457362.8662869930,       -0.7421875000,        0.0532226562,        0.0117187500,        0.3509521484,       -0.5645751953,       -0.8239746094
1489457362.8666760921,1489457362.8691079617,       -0.7421875000,        0.0532226562,        0.0117187500,        0.3509521484,       -0.5645751953,       -0.8239746094
1489457362.8693909645,1489457362.8718039989,       -0.7421875000,        0.0532226562,        0.0117187500,        0.5493164062,       -0.3356933594,       -0.6256103516
1489457362.8720850945,1489457362.8745019436,       -0.7421875000,        0.0532226562,        0.0117187500,        0.5493164062,       -0.3356933594,       -0.6256103516
1489457362.8747849464,1489457362.8772020340,       -0.7358398438,        0.0585937500,        0.0083007812,       -0.1525878906,       -0.2288818359,       -0.2288818359
1489457362.8774850368,1489457362.8799040318,       -0.7358398438,        0.0585937500,        0.0083007812,       -0.1525878906,       -0.2288818359,       -0.2288818359
1489457362.8801870346,1489457362.8825941086,       -0.7358398438,        0.0585937500,        0.0083007812,       -0.3662109375,       -0.2899169922,       -0.1220703125
1489457362.8828771114,1489457362.8852989674,       -0.7358398438,        0.0585937500,        0.0117187500,       -0.3662109375,       -0.2899169922,       -0.1220703125
1489457362.8855810165,1489457362.8879959583,       -0.7377929688,        0.0625000000,        0.0117187500,       -0.5645751953,       -0.4119873047,        0.0000000000
1489457362.8882780075,1489457362.8906149864,       -0.7377929688,        0.0625000000,        0.0117187500,       -0.5645751953,       -0.4119873047,        0.0000000000
1489457362.8908910751,1489457362.8931820393,       -0.7377929688,        0.0625000000,        0.0117187500,       -0.5340576172,       -0.5340576172,       -0.2746582031
1489457362.8934559822,1489457362.8957459927,       -0.7377929688,        0.0747070312,        0.0083007812,       -0.5340576172,       -0.5340576172,       -0.2746582031
1489457362.8960208893,1489457362.8983199596,       -0.7377929688,        0.0747070312,        0.0083007812,       -0.5340576172,       -0.7171630859,       -0.7019042969
1489457362.8985950947,1489457362.9009399414,       -0.7377929688,        0.0747070312,        0.0083007812,       -0.5493164062,       -0.7171630859,       -0.7019042969
1489457362.9012169838,1489457362.9035060406,       -0.7377929688,        0.0747070312,        0.0083007812,       -0.5493164062,       -0.7171630859,       -0.9307861328
1489457362.9037830830,1489457362.9060769081,       -0.7294921875,        0.0747070312,        0.0141601562,       -0.2441406250,       -0.5950927734,       -0.9307861328
1489457362.9063510895,1489457362.9086410999,       -0.7294921875,        0.0747070312,        0.0141601562,       -0.2441406250,       -0.5950927734,       -0.8697509766
1489457362.9089798927,1489457362.9112949371,       -0.7294921875,        0.0747070312,        0.0141601562,       -0.7324218750,       -0.1068115234,       -0.8697509766
1489457362.9115710258,1489457362.9138650894,       -0.7294921875,        0.0747070312,        0.0141601562,       -0.7324218750,       -0.1068115234,       -0.8697509766
1489457362.9141390324,1489457362.9164340496,       -0.7236328125,        0.0668945312,        0.0083007812,       -0.4882812500,       -0.7171630859,       -0.8239746094
1489457362.9167098999,1489457362.9191460609,       -0.7236328125,        0.0668945312,        0.0083007812,       -0.4882812500,       -0.7171630859,       -0.8239746094
1489457362.9194281101,1489457362.9218459129,       -0.7236328125,        0.0668945312,        0.0083007812,       -0.3509521484,       -0.7171630859,       -0.7019042969
1489457362.9221279621,1489457362.9245440960,       -0.7236328125,        0.0668945312,        0.0083007812,       -0.3509521484,       -0.7171630859,       -0.7019042969
1489457362.9248280525,1489457362.9272449017,       -0.7333984375,        0.0541992188,        0.0175781250,       -0.3509521484,       -0.6866455078,       -0.8392333984
1489457362.9275269508,1489457362.9298989773,       -0.7333984375,        0.0541992188,        0.0175781250,       -0.3509521484,       -0.6866455078,       -0.8392333984
1489457362.9302809238,1489457362.9325768948,       -0.7333984375,        0.0541992188,        0.0175781250,       -0.3204345703,       -0.4882812500,       -0.9002685547
1489457362.9328520298,1489457362.9351420403,       -0.7333984375,        0.0541992188,        0.0175781250,       -0.3204345703,       -0.4882812500,       -0.9002685547
1489457362.9354159832,1489457362.9377059937,       -0.7221679688,        0.0483398438,        0.0151367188,       -0.3051757812,       -0.2288818359,       -0.3814697266
1489457362.9379799366,1489457362.9403600693,       -0.7221679688,        0.0483398438,        0.0151367188,       -0.3051757812,       -0.2288818359,       -0.3814697266
1489457362.9406421185,1489457362.9430620670,       -0.7221679688,        0.0483398438,        0.0151367188,       -0.1831054688,        0.1983642578,        0.0762939453
1489457362.9433429241,1489457362.9457569122,       -0.7221679688,        0.0483398438,        0.0219726562,       -0.1831054688,        0.1983642578,        0.0762939453
1489457362.9460380077,1489457362.9484570026,       -0.7309570312,        0.0576171875,        0.0219726562,        0.0762939453,        0.5950927734,        0.5645751953
1489457362.9487390518,1489457362.9510369301,       -0.7309570312,        0.0576171875,        0.0219726562,        0.0762939453,        0.5950927734,        0.5645751953
1489457362.9513099194,1489457362.9536070824,       -0.7309570312,        0.0576171875,        0.0219726562,        0.5340576172,        0.2288818359,        0.5187988281
1489457362.9538810253,1489457362.9561719894,       -0.7309570312,        0.0717773438,        0.0234375000,        0.5340576172,        0.2288818359,        0.5187988281
1489457362.9564449787,1489457362.9587409496,       -0.7290039062,        0.0717773438,        0.0234375000,        0.9765625000,        0.2441406250,        0.3509521484
1489457362.9590990543,1489457362.9615159035,       -0.7290039062,        0.0717773438,        0.0234375000,        0.9765625000,        0.2441406250,        0.3509521484
1489457362.9617979527,1489457362.9642100334,       -0.7290039062,        0.0717773438,        0.0234375000,        1.6326904297,       -0.1983642578,        0.4119873047
1489457362.9644920826,1489457362.9669051170,       -0.7290039062,        0.0664062500,        0.0214843750,        1.6326904297,       -0.1983642578,        0.4119873047
1489457362.9671878815,1489457362.9696490765,       -0.7290039062,        0.0664062500,        0.0214843750,        2.4414062500,       -0.3051757812,        0.6713867188
1489457362.9699299335,1489457362.9723439217,       -0.7290039062,        0.0664062500,        0.0214843750,        2.4414062500,       -0.3051757812,        0.6713867188
1489457362.9726259708,1489457362.9751169682,       -0.7290039062,        0.0664062500,        0.0214843750,        2.7770996094,        0.1373291016,        0.8544921875
1489457362.9755549431,1489457362.9779629707,       -0.7270507812,        0.0625000000,        0.0195312500,        2.7770996094,        0.1373291016,        0.8544921875
1489457362.9782459736,1489457362.9807419777,       -0.7270507812,        0.0625000000,        0.0195312500,        3.4942626953,        0.3662109375,        1.2664794922
1489457362.9810199738,1489457362.9833190441,       -0.7270507812,        0.0625000000,        0.0195312500,        3.4942626953,        0.3662109375,        1.2664794922
1489457362.9835939407,1489457362.9858829975,       -0.7270507812,        0.0625000000,        0.0195312500,        4.0283203125,        0.1068115234,        1.4648437500
1489457362.9861559868,1489457362.9884529114,       -0.7451171875,        0.0590820312,        0.0112304688,        4.0283203125,        0.1068115234,        1.4648437500
1489457362.9887270927,1489457362.9911460876,       -0.7451171875,        0.0590820312,        0.0112304688,        4.1198730469,       -0.0457763672,        1.4190673828
1489457362.9914278984,1489457362.9938480854,       -0.7451171875,        0.0590820312,        0.0112304688,        4.1198730469,       -0.0457763672,        1.4190673828
1489457362.9942429066,1489457362.9966650009,       -0.7451171875,        0.0629882812,        0.0117187500,        4.0588378906,       -0.0915527344,        1.8615722656
1489457362.9969489574,1489457362.9993629456,       -0.7500000000,        0.0629882812,        0.0117187500,        4.0588378906,       -0.0915527344,        1.8615722656
1489457362.9996440411,1489457363.0020580292,       -0.7500000000,        0.0629882812,        0.0117187500,        4.1351318359,       -0.3509521484,        1.5411376953
1489457363.0023400784,1489457363.0047609806,       -0.7500000000,        0.0629882812,        0.0117187500,        4.1351318359,       -0.3509521484,        1.5411376953
1489457363.0050389767,1489457363.0074520111,       -0.7333984375,        0.0532226562,        0.0053710938,        4.1961669922,       -0.0915527344,        1.4801025391
1489457363.0077309608,1489457363.0100929737,       -0.7333984375,        0.0532226562,        0.0053710938,        4.1961669922,       -0.0915527344,        1.4801025391
1489457363.0103669167,1489457363.0126590729,       -0.7333984375,        0.0532226562,        0.0053710938,        0.2899169922,       -0.1525878906,        1.4343261719
1489457363.0129349232,1489457363.0152230263,       -0.7333984375,        0.0532226562,        0.0053710938,        3.3874511719,       -0.1525878906,        1.4343261719
1489457363.0154979229,1489457363.0177900791,       -0.7338867188,        0.0610351562,        0.0058593750,        3.3874511719,       -0.1525878906,        1.6479492188
1489457363.0180649757,1489457363.0204010010,       -0.7338867188,        0.0610351562,        0.0058593750,        1.9226074219,       -0.0762939453,        1.6479492188
1489457363.0206749439,1489457363.0229680538,       -0.7338867188,        0.0610351562,        0.0058593750,        1.9226074219,       -0.0762939453,        1.7547607422
1489457363.0232410431,1489457363.0255370140,       -0.7338867188,        0.0610351562,        0.0058593750,        1.9378662109,       -0.1525878906,        1.7547607422
1489457363.0258109570,1489457363.0281050205,       -0.7397460938,        0.0649414062,        0.0122070312,        1.9378662109,       -0.1525878906,        1.7547607422
1489457363.0283780098,1489457363.0307180882,       -0.7397460938,        0.0649414062,        0.0122070312,        1.4190673828,        0.2288818359,        2.4871826172
1489457363.0309920311,1489457363.0332798958,       -0.7397460938,        0.0649414062,        0.0122070312,        1.4190673828,        0.2288818359,        2.4871826172
1489457363.0335528851,1489457363.0358440876,       -0.7397460938,        0.0649414062,        0.0122070312,        1.9378662109,        0.2441406250,        2.7618408203
1489457363.0361189842,1489457363.0384190083,       -0.7309570312,        0.0703125000,        0.0083007812,        1.9378662109,        0.2441406250,        2.7618408203
1489457363.0386939049,1489457363.0412659645,       -0.7309570312,        0.0703125000,        0.0083007812,        2.2125244141,        0.1678466797,        3.0059814453
1489457363.0415489674,1489457363.0439460278,       -0.7309570312,        0.0703125000,        0.0083007812,        2.2125244141,        0.1678466797,        3.0059814453
1489457363.0442280769,1489457363.0466279984,       -0.7309570312,        0.0703125000,        0.0112304688,        2.1667480469,        0.1831054688,        3.0364990234
1489457363.0469069481,1489457363.0493159294,       -0.7358398438,        0.0546875000,        0.0112304688,        2.1667480469,        0.1831054688,        3.0364990234
1489457363.0495939255,1489457363.0520019531,       -0.7358398438,        0.0546875000,        0.0112304688,        1.9378662109,        0.4425048828,        3.6621093750
1489457363.0522820950,1489457363.0546839237,       -0.7358398438,        0.0546875000,        0.0112304688,        1.9378662109,        0.4425048828,        3.6621093750
1489457363.0549640656,1489457363.0573649406,       -0.7358398438,        0.0473632812,        0.0224609375,        2.1514892578,        0.7171630859,        4.1809082031
1489457363.0577509403,1489457363.0601580143,       -0.7216796875,        0.0473632812,        0.0224609375,        2.1514892578,        0.7171630859,        4.1809082031
1489457363.0604379177,1489457363.0628330708,       -0.7216796875,        0.0473632812,        0.0224609375,        2.6550292969,        0.5035400391,        4.8980712891
1489457363.0631120205,1489457363.0655119419,       -0.7216796875,        0.0473632812,        0.0224609375,        2.6550292969,        0.5035400391,        4.8980712891
1489457363.0657920837,1489457363.0681989193,       -0.7373046875,        0.0507812500,        0.0205078125,        2.9449462891,        0.5187988281,        5.4321289062
1489457363.0684769154,1489457363.0708839893,       -0.7373046875,        0.0507812500,        0.0205078125,        2.9449462891,        0.5187988281,        5.4321289062
1489457363.0711629391,1489457363.0735640526,       -0.7373046875,        0.0507812500,        0.0205078125,        3.0975341797,        0.7324218750,        6.3781738281
1489457363.0738439560,1489457363.0762450695,       -0.7373046875,        0.0507812500,        0.0205078125,        3.0975341797,        0.7324218750,        6.3781738281
1489457363.0765240192,1489457363.0789279938,       -0.7509765625,        0.0454101562,        0.0161132812,        3.4027099609,        0.9002685547,        7.4768066406
1489457363.0792150497,1489457363.0815958977,       -0.7509765625,        0.0454101562,        0.0161132812,        3.4027099609,        0.9002685547,        7.4768066406
1489457363.0818729401,1489457363.0842490196,       -0.7509765625,        0.0454101562,        0.0161132812,        3.3569335938,        0.2288818359,        8.4991455078
1489457363.0845270157,1489457363.0869059563,       -0.7509765625,        0.0454101562,       -0.1088867188,        3.3569335938,        0.2288818359,        8.4991455078
1489457363.0871849060,1489457363.0896880627,       -0.7397460938,        0.0249023438,       -0.0014648438,        2.2735595703,       -0.7019042969,        9.4146728516
1489457363.0899739265,1489457363.0923900604,       -0.7397460938,        0.0249023438,       -0.0014648438,        2.2735595703,       -0.7019042969,        9.4146728516
1489457363.0926721096,1489457363.0951700211,       -0.7397460938,        0.0249023438,       -0.0014648438,        1.2359619141,       -0.7781982422,        9.8724365234
1489457363.0956149101,1489457363.0980219841,       -0.7568359375,       -0.0166015625,        0.0161132812,        1.2359619141,       -0.7781982422,        9.8724365234
1489457363.0983030796,1489457363.1011340618,       -0.7568359375,       -0.0166015625,        0.0161132812,        0.5035400391,       -0.3509521484,       10.2233886719
1489457363.1014230251,1489457363.1038439274,       -0.7568359375,       -0.0166015625,        0.0161132812,        0.5035400391,       -0.3509521484,       10.2233886719
1489457363.1041309834,1489457363.1065449715,       -0.7568359375,       -0.0166015625,        0.0161132812,       -1.2817382812,       -0.0915527344,       11.4746093750
1489457363.1068320274,1489457363.1092629433,       -0.7539062500,        0.0493164062,       -0.0063476562,       -1.2817382812,       -0.0915527344,       11.4746093750
1489457363.1095490456,1489457363.1119630337,       -0.7539062500,        0.0493164062,       -0.0063476562,       -2.8839111328,       -0.0610351562,       13.2141113281
1489457363.1122488976,1489457363.1146669388,       -0.7539062500,        0.0493164062,       -0.0063476562,       -2.8839111328,       -0.0610351562,       13.2141113281
1489457363.1149530411,1489457363.1173789501,       -0.7539062500,        0.0493164062,        0.0068359375,       -3.5858154297,       -0.2746582031,       13.7481689453
1489457363.1176640987,1489457363.1200280190,       -0.7407226562,        0.0717773438,        0.0068359375,       -3.5858154297,       -0.2746582031,       13.7481689453
1489457363.1203091145,1489457363.1225988865,       -0.7407226562,        0.0717773438,        0.0068359375,       -3.7384033203,       -0.5645751953,       13.9923095703
1489457363.1229770184,1489457363.1252729893,       -0.7407226562,        0.0717773438,        0.0068359375,       -3.7384033203,       -0.5645751953,       13.9923095703
1489457363.1255519390,1489457363.1278450489,       -0.7407226562,        0.0537109375,        0.0014648438,       -3.8757324219,       -1.0986328125,       13.6871337891
1489457363.1281230450,1489457363.1304209232,       -0.7382812500,        0.0537109375,        0.0014648438,       -3.8757324219,       -1.0986328125,       13.6871337891
1489457363.1307001114,1489457363.1329889297,       -0.7382812500,        0.0537109375,        0.0014648438,       -3.4332275391,       -1.2207031250,       14.1448974609
1489457363.1332681179,1489457363.1355528831,       -0.7382812500,        0.0537109375,        0.0014648438,       -3.4332275391,       -1.2207031250,       14.1448974609
1489457363.1358330250,1489457363.1381230354,       -0.7382812500,        0.0737304688,        0.0073242188,       -3.0822753906,       -1.0070800781,       15.1367187500
1489457363.1384029388,1489457363.1407670975,       -0.7402343750,        0.0737304688,        0.0073242188,       -3.0822753906,       -1.0070800781,       15.1367187500
1489457363.1410450935,1489457363.1433320045,       -0.7402343750,        0.0737304688,        0.0073242188,       -3.0822753906,       -1.0528564453,       15.5639648438
1489457363.1436100006,1489457363.1458981037,       -0.7402343750,        0.0737304688,        0.0073242188,       -3.3111572266,       -1.0528564453,       15.5639648438
1489457363.1461760998,1489457363.1484620571,       -0.7299804688,        0.0722656250,        0.0166015625,       -3.3111572266,       -1.0528564453,       15.8996582031
1489457363.1487390995,1489457363.1511170864,       -0.7299804688,        0.0722656250,        0.0166015625,       -2.4871826172,       -1.0375976562,       15.8996582031
1489457363.1513979435,1489457363.1536829472,       -0.7299804688,        0.0722656250,        0.0166015625,       -2.4871826172,       -1.0375976562,       16.7236328125
1489457363.1539609432,1489457363.1562500000,       -0.7299804688,        0.0722656250,        0.0166015625,       -1.2207031250,       -1.0070800781,       16.7236328125
1489457363.1565260887,1489457363.1589660645,       -0.7314453125,        0.0698242188,        0.0244140625,       -1.2207031250,       -1.0070800781,       16.7236328125
1489457363.1592440605,1489457363.1615290642,       -0.7314453125,        0.0698242188,        0.0244140625,        0.2593994141,       -1.3885498047,       17.6849365234
1489457363.1618070602,1489457363.1640949249,       -0.7314453125,        0.0698242188,        0.0244140625,        0.2593994141,       -1.3885498047,       17.6849365234
1489457363.1643729210,1489457363.1666638851,       -0.7314453125,        0.0698242188,        0.0244140625,        0.9307861328,       -1.7547607422,       18.5546875000
1489457363.1669409275,1489457363.1692590714,       -0.7407226562,        0.0703125000,        0.0014648438,        0.9307861328,       -1.7547607422,       18.5546875000
1489457363.1695380211,1489457363.1718339920,       -0.7407226562,        0.0703125000,        0.0014648438,        1.4801025391,       -1.9073486328,       19.3786621094
1489457363.1721138954,1489457363.1743979454,       -0.7407226562,        0.0703125000,        0.0014648438,        1.4801025391,       -1.9073486328,       19.3786621094
1489457363.1746759415,1489457363.1769649982,       -0.7407226562,        0.0703125000,        0.0014648438,        2.1209716797,       -2.3498535156,       20.9350585938
1489457363.1772429943,1489457363.1796169281,       -0.7314453125,        0.0546875000,       -0.0024414062,        2.1209716797,       -2.3498535156,       20.9350585938
1489457363.1799030304,1489457363.1823151112,       -0.7314453125,        0.0546875000,       -0.0024414062,        2.5329589844,       -2.5939941406,       22.6898193359
1489457363.1826000214,1489457363.1850171089,       -0.7314453125,        0.0546875000,       -0.0024414062,        2.5329589844,       -2.5939941406,       22.6898193359
1489457363.1853039265,1489457363.1877260208,       -0.7314453125,        0.0546875000,        0.1225585938,        1.8920898438,       -3.4637451172,       24.6124267578
1489457363.1881179810,1489457363.1904630661,       -0.7319335938,        0.0102539062,        0.0000000000,        1.8920898438,       -3.4637451172,       24.6124267578
1489457363.1907420158,1489457363.1930370331,       -0.7319335938,        0.0102539062,        0.0000000000,        1.3580322266,       -4.4860839844,       26.3671875000
1489457363.1933128834,1489457363.1956059933,       -0.7319335938,        0.0102539062,        0.0000000000,        1.3580322266,       -4.4860839844,       26.3671875000
1489457363.1958830357,1489457363.1981780529,       -0.7319335938,        0.0102539062,       -0.0209960938,        0.5798339844,       -4.7302246094,       28.3203125000
1489457363.1984550953,1489457363.2009029388,       -0.7573242188,        0.0078125000,       -0.0209960938,        0.5798339844,       -4.7302246094,       28.3203125000
1489457363.2011899948,1489457363.2036039829,       -0.7573242188,        0.0078125000,       -0.0209960938,       -0.9002685547,       -4.4097900391,       30.5633544922
1489457363.2038900852,1489457363.2063050270,       -0.7573242188,        0.0078125000,       -0.0209960938,       -0.9002685547,       -4.4097900391,       30.5633544922
1489457363.2065908909,1489457363.2091538906,       -0.7573242188,        0.0356445312,       -0.0283203125,       -3.0822753906,       -4.4555664062,       32.9437255859
1489457363.2094390392,1489457363.2118260860,       -0.7563476562,        0.0356445312,       -0.0283203125,       -3.0822753906,       -4.4555664062,       32.9437255859
1489457363.2121090889,1489457363.2144970894,       -0.7563476562,        0.0356445312,       -0.0283203125,       -4.4403076172,       -5.4473876953,       34.9578857422
1489457363.2148408890,1489457363.2174038887,       -0.7563476562,        0.0356445312,       -0.0283203125,       -4.4403076172,       -5.4473876953,       34.9578857422
1489457363.2176909447,1489457363.2203910351,       -0.7514648438,        0.0273437500,       -0.0009765625,       -4.6234130859,       -5.7678222656,       37.5518798828
1489457363.2206709385,1489457363.2229640484,       -0.7514648438,        0.0273437500,       -0.0009765625,       -4.6234130859,       -5.7678222656,       37.5518798828
1489457363.2232420444,1489457363.2255361080,       -0.7514648438,        0.0273437500,       -0.0009765625,       -6.7901611328,       -5.5389404297,       39.9475097656
1489457363.2258119583,1489457363.2281088829,       -0.7514648438,        0.0273437500,       -0.0009765625,       -6.7901611328,       -5.5389404297,       39.9475097656
1489457363.2283859253,1489457363.2307848930,       -0.7226562500,        0.0493164062,       -0.0004882812,       -9.1705322266,       -5.7525634766,       42.1905517578
1489457363.2310700417,1489457363.2334849834,       -0.7226562500,        0.0493164062,       -0.0004882812,       -9.1705322266,       -5.7525634766,       42.1905517578
1489457363.2337710857,1489457363.2361919880,       -0.7226562500,        0.0493164062,       -0.0004882812,      -10.6964111328,       -5.7525634766,       44.1894531250
1489457363.2364819050,1489457363.2389070988,       -0.7226562500,        0.0771484375,        0.0048828125,      -10.6964111328,       -5.7525634766,       44.1894531250
1489457363.2391989231,1489457363.2416191101,       -0.6938476562,        0.0771484375,        0.0048828125,      -12.2070312500,       -6.5307617188,       46.3256835938
1489457363.2419099808,1489457363.2443239689,       -0.6938476562,        0.0771484375,        0.0048828125,      -12.2070312500,       -6.5307617188,       46.3256835938
1489457363.2446129322,1489457363.2470309734,       -0.6938476562,        0.0771484375,        0.0048828125,      -11.7034912109,       -7.5073242188,       48.5687255859
1489457363.2473199368,1489457363.2497069836,       -0.6958007812,        0.0971679688,        0.0190429688,      -11.7034912109,       -7.5073242188,       48.5687255859
1489457363.2499909401,1489457363.2522881031,       -0.6958007812,        0.0971679688,        0.0190429688,       -9.3994140625,       -8.9263916016,       51.1932373047
1489457363.2526769638,1489457363.2549650669,       -0.6958007812,        0.0971679688,        0.0190429688,       -9.3994140625,       -8.9263916016,       51.1932373047
1489457363.2552449703,1489457363.2575399876,       -0.6958007812,        0.0971679688,        0.0190429688,       -5.4931640625,      -10.1165771484,       54.0466308594
1489457363.2578210831,1489457363.2601630688,       -0.7363281250,        0.0781250000,        0.0039062500,       -6.1798095703,      -10.1165771484,       54.0466308594
1489457363.2604460716,1489457363.2627370358,       -0.7363281250,        0.0781250000,        0.0039062500,       -6.1798095703,      -10.1165771484,       56.3812255859
1489457363.2630190849,1489457363.2653129101,       -0.7363281250,        0.0781250000,        0.0039062500,       -3.4942626953,      -10.5743408203,       56.3812255859
1489457363.2655940056,1489457363.2678871155,       -0.7363281250,        0.0781250000,        0.0039062500,       -3.4942626953,      -10.5743408203,       58.5174560547
1489457363.2681679726,1489457363.2705619335,       -0.7631835938,        0.0410156250,       -0.0341796875,       -1.1901855469,      -10.6964111328,       58.5174560547
1489457363.2708439827,1489457363.2731330395,       -0.7631835938,        0.0410156250,       -0.0341796875,       -1.1901855469,      -10.6964111328,       62.4237060547
1489457363.2734138966,1489457363.2757029533,       -0.7631835938,        0.0410156250,       -0.0341796875,       -0.3509521484,      -11.5966796875,       60.8673095703
1489457363.2759830952,1489457363.2782831192,       -0.7631835938,        0.0410156250,       -0.0341796875,       -0.3509521484,      -11.5966796875,       60.8673095703
1489457363.2785630226,1489457363.2809920311,       -0.7705078125,        0.0444335938,       -0.0361328125,       -0.7019042969,      -12.2375488281,       63.5375976562
1489457363.2812840939,1489457363.2837009430,       -0.7705078125,        0.0444335938,       -0.0361328125,       -0.7019042969,      -12.2375488281,       63.5375976562
1489457363.2839899063,1489457363.2864139080,       -0.7705078125,        0.0444335938,       -0.0361328125,       -1.6479492188,      -12.6953125000,       66.0400390625
1489457363.2867031097,1489457363.2891330719,       -0.7705078125,        0.0444335938,       -0.0566406250,       -1.6479492188,      -12.6953125000,       66.0400390625
1489457363.2894220352,1489457363.2918388844,       -0.7539062500,        0.0395507812,       -0.0566406250,       -4.4555664062,      -12.5427246094,       68.2983398438
1489457363.2921290398,1489457363.2945458889,       -0.7539062500,        0.0395507812,       -0.0566406250,       -4.4555664062,      -12.5427246094,       68.2983398438
1489457363.2948369980,1489457363.2972528934,       -0.7539062500,        0.0395507812,       -0.0566406250,       -9.5520019531,      -12.7410888672,       70.0531005859
1489457363.2975420952,1489457363.2999660969,       -0.6923828125,        0.1010742188,       -0.0185546875,       -9.5520019531,      -12.7410888672,       70.0531005859
1489457363.3002550602,1489457363.3026700020,       -0.6923828125,        0.1010742188,       -0.0185546875,      -15.0146484375,      -13.1835937500,       71.9757080078
1489457363.3029620647,1489457363.3053851128,       -0.6923828125,        0.1010742188,       -0.0185546875,      -15.0146484375,      -13.1835937500,       71.9757080078
1489457363.3056778908,1489457363.3080959320,       -0.6923828125,        0.1010742188,       -0.0185546875,      -19.8822021484,      -15.2130126953,       73.1658935547
1489457363.3083889484,1489457363.3107459545,       -0.6684570312,        0.2407226562,        0.0493164062,      -19.8822021484,      -15.2130126953,       73.1658935547
1489457363.3110330105,1489457363.3133330345,       -0.6684570312,        0.2407226562,        0.0493164062,      -22.5830078125,      -17.8375244141,       73.0438232422
1489457363.3136179447,1489457363.3159101009,       -0.6684570312,        0.2407226562,        0.0493164062,      -22.5830078125,      -17.8375244141,       73.0438232422
1489457363.3163020611,1489457363.3185970783,       -0.6684570312,        0.2407226562,        0.0493164062,      -22.0947265625,      -19.1497802734,       71.9757080078
1489457363.3188710213,1489457363.3211739063,       -0.6767578125,        0.3242187500,        0.0698242188,      -22.0947265625,      -19.1497802734,       71.9757080078
1489457363.3214590549,1489457363.3237569332,       -0.6767578125,        0.3242187500,        0.0698242188,      -18.1121826172,      -18.7988281250,       70.6024169922
1489457363.3240420818,1489457363.3263370991,       -0.6767578125,        0.3242187500,        0.0698242188,      -18.1121826172,      -18.7988281250,       70.6024169922
1489457363.3266210556,1489457363.3289289474,       -0.6767578125,        0.3242187500,        0.0698242188,      -13.0004882812,      -18.6004638672,       69.1833496094
1489457363.3292229176,1489457363.3316400051,       -0.6494140625,        0.2714843750,        0.0664062500,      -13.0004882812,      -18.6004638672,       69.1833496094
1489457363.3319330215,1489457363.3343560696,       -0.6494140625,        0.2714843750,        0.0664062500,       -8.4686279297,      -18.4783935547,       67.5964355469
1489457363.3346440792,1489457363.3371880054,       -0.6494140625,        0.2714843750,        0.0664062500,       -8.4686279297,      -18.4783935547,       67.5964355469
1489457363.3374779224,1489457363.3402209282,       -0.6494140625,        0.1577148438,        0.0214843750,       -6.1798095703,      -17.8833007812,       66.2841796875
1489457363.3405129910,1489457363.3429300785,       -0.6040039062,        0.1577148438,        0.0214843750,       -6.1798095703,      -17.8833007812,       66.2841796875
1489457363.3432209492,1489457363.3456399441,       -0.6040039062,        0.1577148438,        0.0214843750,       -7.7819824219,      -14.8162841797,       66.2994384766
1489457363.3459300995,1489457363.3483510017,       -0.6040039062,        0.1577148438,        0.0214843750,       -7.7819824219,      -14.8162841797,       66.2994384766
1489457363.3486399651,1489457363.3510708809,       -0.5688476562,        0.1025390625,        0.0366210938,      -12.9089355469,      -11.9171142578,       67.3828125000
1489457363.3513638973,1489457363.3537828922,       -0.5688476562,        0.1025390625,        0.0366210938,      -12.9089355469,      -11.9171142578,       67.3828125000
1489457363.3540759087,1489457363.3564970493,       -0.5688476562,        0.1025390625,        0.0366210938,      -21.6827392578,      -11.4288330078,       69.9615478516
1489457363.3567900658,1489457363.3592629433,       -0.5688476562,        0.1025390625,        0.0366210938,      -21.6827392578,      -11.4288330078,       69.9615478516
1489457363.3595581055,1489457363.3619771004,       -0.6596679688,        0.2490234375,        0.1293945312,      -30.2429199219,      -13.1988525391,       71.7773437500
1489457363.3622679710,1489457363.3646860123,       -0.6596679688,        0.2490234375,        0.1293945312,      -30.2429199219,      -13.1988525391,       71.7773437500
1489457363.3649780750,1489457363.3673899174,       -0.6596679688,        0.2490234375,        0.1293945312,      -34.0270996094,      -15.1824951172,       72.5250244141
1489457363.3676819801,1489457363.3700499535,       -0.6596679688,        0.4990234375,        0.1816406250,      -34.0270996094,      -15.1824951172,       72.5250244141
1489457363.3703360558,1489457363.3726251125,       -0.8129882812,        0.3994140625,        0.1816406250,      -30.9295654297,      -16.9830322266,       71.5637207031
1489457363.3729081154,1489457363.3751978874,       -0.8129882812,        0.3994140625,        0.1816406250,      -30.9295654297,      -16.9830322266,       71.5637207031
1489457363.3754839897,1489457363.3777840137,       -0.8129882812,        0.3994140625,        0.1816406250,      -21.7132568359,      -16.5405273438,       70.2819824219
1489457363.3780689240,1489457363.3804059029,       -0.8129882812,        0.3164062500,        0.0512695312,      -21.7132568359,      -16.5405273438,       70.2819824219
1489457363.3808019161,1489457363.3830978870,       -0.8032226562,        0.3164062500,        0.0512695312,       -9.4604492188,      -14.2059326172,       70.4040527344
1489457363.3833820820,1489457363.3856709003,       -0.8032226562,        0.3164062500,        0.0512695312,       -9.4604492188,      -14.2059326172,       70.4040527344
1489457363.3859529495,1489457363.3882400990,       -0.8032226562,        0.3164062500,        0.0512695312,        2.2583007812,      -11.9781494141,       71.8536376953
1489457363.3885209560,1489457363.3909249306,       -0.6259765625,        0.0566406250,       -0.0541992188,        0.6713867188,      -11.9781494141,       71.8536376953
1489457363.3912088871,1489457363.3934960365,       -0.6259765625,        0.0566406250,       -0.0541992188,        0.6713867188,      -10.4980468750,       74.0051269531
1489457363.3937780857,1489457363.3960700035,       -0.6259765625,        0.0566406250,       -0.0541992188,        4.5928955078,      -10.4980468750,       74.0051269531
1489457363.3963520527,1489457363.3986520767,       -0.6259765625,        0.0566406250,       -0.0541992188,        4.5928955078,      -10.4980468750,       77.6824951172
1489457363.3990359306,1489457363.4014680386,       -0.5874023438,       -0.0488281250,        0.0092773438,        0.9307861328,       -9.5672607422,       77.6824951172
1489457363.4017589092,1489457363.4041841030,       -0.5874023438,       -0.0488281250,        0.0092773438,        0.9307861328,       -9.5672607422,       82.4584960938
1489457363.4044721127,1489457363.4068839550,       -0.5874023438,       -0.0488281250,        0.0092773438,       -6.8817138672,       -9.5520019531,       82.4584960938
1489457363.4071710110,1489457363.4096269608,       -0.5874023438,       -0.0488281250,        0.0092773438,       -6.8817138672,       -9.5520019531,       87.0819091797
1489457363.4099140167,1489457363.4123370647,       -0.7358398438,        0.0649414062,        0.1020507812,      -16.1285400391,      -10.6964111328,       87.0819091797
1489457363.4126310349,1489457363.4150519371,       -0.7358398438,        0.0649414062,        0.1020507812,      -16.1285400391,      -10.6964111328,       90.2099609375
1489457363.4153480530,1489457363.4177699089,       -0.7358398438,        0.0649414062,        0.1020507812,      -23.4680175781,      -11.6271972656,       90.2099609375
1489457363.4180629253,1489457363.4204170704,       -0.7358398438,        0.1899414062,        0.1118164062,      -23.4680175781,      -11.6271972656,       91.6442871094
1489457363.4207019806,1489457363.4229950905,       -0.8032226562,        0.1557617188,        0.1118164062,      -27.4810791016,      -11.4898681641,       91.6442871094
1489457363.4232800007,1489457363.4255740643,       -0.8032226562,        0.1557617188,        0.1118164062,      -27.4810791016,      -11.4898681641,       91.6442871094
1489457363.4258589745,1489457363.4281439781,       -0.8032226562,        0.1557617188,        0.1118164062,      -27.8015136719,      -11.0321044922,       93.2006835938
1489457363.4284300804,1489457363.4307649136,       -0.8032226562,        0.1347656250,        0.0112304688,      -27.8015136719,      -11.0321044922,       93.2006835938
1489457363.4310500622,1489457363.4333500862,       -0.6606445312,        0.1347656250,        0.0112304688,      -24.2767333984,      -10.5743408203,       95.0317382812
1489457363.4336340427,1489457363.4359259605,       -0.6606445312,        0.1347656250,        0.0112304688,      -24.2767333984,      -10.5743408203,       95.0317382812
1489457363.4362111092,1489457363.4385008812,       -0.6606445312,        0.1347656250,        0.0112304688,      -21.7895507812,      -11.0626220703,       96.7407226562
1489457363.4388439655,1489457363.4412600994,       -0.5356445312,        0.1132812500,       -0.0390625000,      -21.7895507812,      -11.0626220703,       96.7407226562
1489457363.4415531158,1489457363.4439709187,       -0.5517578125,        0.1132812500,       -0.0390625000,      -23.7274169922,      -12.7563476562,       98.5260009766
1489457363.4443719387,1489457363.4468820095,       -0.5517578125,        0.1132812500,       -0.0390625000,      -23.7274169922,      -12.7563476562,       98.5260009766
1489457363.4471759796,1489457363.4496350288,       -0.5517578125,        0.1132812500,       -0.0390625000,      -28.6407470703,      -14.1448974609,      100.2655029297
1489457363.4499280453,1489457363.4523389339,       -0.5615234375,        0.2070312500,        0.0366210938,      -28.6407470703,      -14.1448974609,      100.2655029297
1489457363.4526309967,1489457363.4550659657,       -0.5615234375,        0.2070312500,        0.0366210938,      -34.3017578125,      -14.9536132812,      101.8371582031
1489457363.4554109573,1489457363.4578189850,       -0.5615234375,        0.2070312500,        0.0366210938,      -34.3017578125,      -14.9536132812,      101.8371582031
1489457363.4581129551,1489457363.4616379738,       -0.5615234375,        0.2070312500,        0.0366210938,      -38.4063720703,      -16.5252685547,      102.1728515625
1489457363.4619269371,1489457363.4642150402,       -0.5629882812,        0.3193359375,        0.1040039062,      -38.4063720703,      -17.7612304688,      100.9063720703
1489457363.4645020962,1489457363.4667909145,       -0.5629882812,        0.3193359375,        0.1040039062,      -38.7268066406,      -17.7612304688,      100.9063720703
1489457363.4670760632,1489457363.4694430828,       -0.5629882812,        0.3193359375,        0.1040039062,      -38.7268066406,      -17.7612304688,       99.4567871094
1489457363.4697279930,1489457363.4720199108,       -0.6596679688,        0.4125976562,        0.1484375000,      -37.2161865234,      -18.7988281250,       99.4567871094
1489457363.4723041058,1489457363.4745969772,       -0.6596679688,        0.4125976562,        0.1484375000,      -37.2161865234,      -18.7988281250,       95.5505371094
1489457363.4748799801,1489457363.4771668911,       -0.6596679688,        0.4125976562,        0.1484375000,      -31.0363769531,      -17.8680419922,       97.0764160156
1489457363.4774529934,1489457363.4797949791,       -0.6596679688,        0.4125976562,        0.1484375000,      -31.0363769531,      -17.8680419922,       97.0764160156
1489457363.4800798893,1489457363.4823679924,       -0.6777343750,        0.4238281250,        0.1035156250,      -20.2484130859,      -16.7083740234,       95.5657958984
1489457363.4826519489,1489457363.4849379063,       -0.6777343750,        0.4238281250,        0.1035156250,      -20.2484130859,      -16.7083740234,       95.5657958984
1489457363.4852230549,1489457363.4875071049,       -0.6777343750,        0.4238281250,        0.1035156250,      -10.9863281250,      -15.9606933594,       94.0551757812
1489457363.4877939224,1489457363.4900910854,       -0.6777343750,        0.4238281250,        0.1035156250,      -10.9863281250,      -15.9606933594,       94.0551757812
1489457363.4903769493,1489457363.4926640987,       -0.6850585938,        0.4980468750,        0.1210937500,       -6.6528320312,      -15.0756835938,       90.7745361328
1489457363.4929471016,1489457363.4952380657,       -0.6850585938,        0.4980468750,        0.1210937500,       -6.6528320312,      -15.0756835938,       90.7745361328
1489457363.4955201149,1489457363.4978098869,       -0.6850585938,        0.4980468750,        0.1210937500,       -5.6457519531,      -14.2822265625,       87.8448486328
1489457363.4980900288,1489457363.5004050732,       -0.6850585938,        0.4980468750,        0.1210937500,       -5.6457519531,      -14.2822265625,       87.8448486328
1489457363.5006859303,1489457363.5029780865,       -0.6503906250,        0.5810546875,        0.0683593750,       -4.3334960938,      -14.0533447266,       85.3271484375
1489457363.5032598972,1489457363.5055499077,       -0.6503906250,        0.5810546875,        0.0683593750,       -4.3334960938,      -14.0533447266,       85.3271484375
1489457363.5058319569,1489457363.5081219673,       -0.6503906250,        0.5810546875,        0.0683593750,       -2.0904541016,      -13.4277343750,       82.1380615234
1489457363.5085139275,1489457363.5109109879,       -0.6503906250,        0.5810546875,        0.0683593750,       -2.0904541016,      -13.4277343750,       82.1380615234
1489457363.5111949444,1489457363.5134890079,       -0.5722656250,        0.5639648438,        0.0683593750,        1.8157958984,      -12.9089355469,       79.1168212891
1489457363.5137720108,1489457363.5160610676,       -0.5722656250,        0.5639648438,        0.0683593750,        0.6561279297,      -12.9089355469,       79.1168212891
1489457363.5163450241,1489457363.5186369419,       -0.5722656250,        0.5639648438,        0.0683593750,        0.6561279297,      -12.9089355469,       76.7669677734
1489457363.5189940929,1489457363.5214219093,       -0.5722656250,        0.5639648438,        0.0986328125,        3.2348632812,      -12.2528076172,       76.7669677734
1489457363.5217111111,1489457363.5241229534,       -0.6235351562,        0.5126953125,        0.0986328125,        3.2348632812,      -12.0391845703,       74.2034912109
1489457363.5244131088,1489457363.5268230438,       -0.6235351562,        0.5126953125,        0.0986328125,        5.3405761719,      -12.0391845703,       74.2034912109
1489457363.5271120071,1489457363.5295429230,       -0.6235351562,        0.5126953125,        0.0986328125,        5.3405761719,      -12.0391845703,       71.2280273438
1489457363.5298318863,1489457363.5322480202,       -0.6054687500,        0.3945312500,        0.0566406250,        6.9274902344,      -12.8784179688,       71.2280273438
1489457363.5325369835,1489457363.5349531174,       -0.6054687500,        0.3945312500,        0.0566406250,        6.9274902344,      -12.8784179688,       69.7021484375
1489457363.5352430344,1489457363.5376598835,       -0.6054687500,        0.3945312500,        0.0566406250,        9.0332031250,      -13.8702392578,       69.7021484375
1489457363.5379490852,1489457363.5403699875,       -0.6054687500,        0.3945312500,        0.0566406250,        9.0332031250,      -13.8702392578,       68.8476562500
1489457363.5406599045,1489457363.5430779457,       -0.5913085938,        0.4194335938,        0.0927734375,       10.2233886719,      -12.8631591797,       68.8476562500
1489457363.5433709621,1489457363.5457820892,       -0.5913085938,        0.4194335938,        0.0927734375,       10.2233886719,       -8.9569091797,       67.0166015625
1489457363.5460729599,1489457363.5484910011,       -0.5913085938,        0.4194335938,        0.0927734375,        8.2397460938,      -10.9405517578,       67.0166015625
1489457363.5487809181,1489457363.5511140823,       -0.5913085938,        0.4194335938,        0.0927734375,        8.2397460938,      -10.9405517578,       63.7359619141
1489457363.5513980389,1489457363.5536870956,       -0.6494140625,        0.5488281250,        0.0820312500,        4.4250488281,      -10.3302001953,       63.7359619141
1489457363.5539689064,1489457363.5562639236,       -0.6494140625,        0.5488281250,        0.0820312500,        4.4250488281,      -10.3302001953,       60.3790283203
1489457363.5565440655,1489457363.5589060783,       -0.6494140625,        0.5488281250,        0.0820312500,        5.5084228516,       -9.6435546875,       60.3790283203
1489457363.5591940880,1489457363.5616068840,       -0.6494140625,        0.5488281250,        0.0615234375,        5.5084228516,       -9.6435546875,       56.4727783203
1489457363.5618920326,1489457363.5643029213,       -0.6254882812,        0.6010742188,        0.0615234375,       10.6048583984,       -7.5073242188,       56.4575195312
1489457363.5645918846,1489457363.5670039654,       -0.6254882812,        0.6010742188,        0.0615234375,       10.6048583984,       -7.5073242188,       52.5512695312
1489457363.5672929287,1489457363.5697200298,       -0.6254882812,        0.6010742188,        0.0615234375,       14.8773193359,       -3.7231445312,       51.8798828125
1489457363.5700080395,1489457363.5724220276,       -0.5004882812,        0.5346679688,        0.0883789062,       14.8773193359,       -3.7231445312,       47.9736328125
1489457363.5728189945,1489457363.5753180981,       -0.5913085938,        0.5346679688,        0.0883789062,       15.0451660156,       -2.0141601562,       46.8902587891
1489457363.5756099224,1489457363.5780179501,       -0.5913085938,        0.5346679688,        0.0883789062,       15.0451660156,       -2.0141601562,       39.0777587891
1489457363.5783090591,1489457363.5811259747,       -0.5913085938,        0.5346679688,        0.0883789062,       13.0462646484,       -0.8697509766,       42.9382324219
1489457363.5814170837,1489457363.5838270187,       -0.5249023438,        0.5625000000,        0.1118164062,       13.0462646484,       -0.8697509766,       39.1540527344
1489457363.5841159821,1489457363.5865299702,       -0.5249023438,        0.5625000000,        0.1118164062,       10.9710693359,       -0.9460449219,       39.1540527344
1489457363.5868198872,1489457363.5892450809,       -0.5249023438,        0.5625000000,        0.1118164062,       10.9710693359,       -0.9460449219,       34.4848632812
1489457363.5895369053,1489457363.5919499397,       -0.5249023438,        0.5625000000,        0.1225585938,       11.2915039062,       -0.8697509766,       34.4848632812
1489457363.5922400951,1489457363.5946528912,       -0.5283203125,        0.6557617188,        0.1225585938,       11.2915039062,       -0.8697509766,       29.1137695312
1489457363.5949420929,1489457363.5973548889,       -0.5283203125,        0.6557617188,        0.1225585938,       11.9934082031,       -0.3662109375,       29.1137695312
1489457363.5976440907,1489457363.6000061035,       -0.5283203125,        0.6557617188,        0.1225585938,       11.9934082031,       -0.3662109375,       23.6053466797
1489457363.6002891064,1489457363.6025791168,       -0.5283203125,        0.6660156250,        0.0937500000,       13.2446289062,       -0.0610351562,       23.6053466797
1489457363.6028618813,1489457363.6051499844,       -0.5537109375,        0.6660156250,        0.0937500000,       13.2446289062,       -0.0610351562,       15.7928466797
1489457363.6054329872,1489457363.6077189445,       -0.5537109375,        0.6660156250,        0.0937500000,       16.4947509766,       -0.9002685547,       17.9901123047
1489457363.6080029011,1489457363.6103029251,       -0.5537109375,        0.6660156250,        0.0937500000,       16.4947509766,       -0.9002685547,       17.9901123047
1489457363.6105890274,1489457363.6128799915,       -0.4765625000,        0.6357421875,        0.0678710938,       17.9443359375,       -4.1046142578,       10.8795166016
1489457363.6131620407,1489457363.6154539585,       -0.4765625000,        0.6357421875,        0.0678710938,       17.9443359375,       -4.1046142578,       10.8795166016
1489457363.6157341003,1489457363.6180241108,       -0.4765625000,        0.6357421875,        0.0678710938,       15.2130126953,       -7.7514648438,        2.8533935547
1489457363.6183021069,1489457363.6206030846,       -0.4765625000,        0.6357421875,        0.0678710938,       15.2130126953,       -7.7514648438,        2.8533935547
1489457363.6208820343,1489457363.6231760979,       -0.4780273438,        0.6811523438,        0.0346679688,       11.2304687500,      -10.3454589844,       -4.6234130859
1489457363.6234560013,1489457363.6257500648,       -0.4780273438,        0.6811523438,        0.0346679688,       11.2304687500,      -10.3454589844,       -4.6234130859
1489457363.6260299683,1489457363.6283209324,       -0.4780273438,        0.6811523438,        0.0346679688,        6.9885253906,      -13.5955810547,      -12.4664306641
1489457363.6286010742,1489457363.6310570240,       -0.4780273438,        0.6811523438,        0.0346679688,        6.9885253906,      -13.5955810547,      -12.4664306641
1489457363.6313400269,1489457363.6336300373,       -0.4233398438,        0.7177734375,        0.0341796875,        5.4473876953,      -15.5181884766,      -20.8892822266
1489457363.6339108944,1489457363.6362059116,       -0.4233398438,        0.7177734375,        0.0341796875,        5.4473876953,      -15.5181884766,      -20.8892822266
1489457363.6365981102,1489457363.6389811039,       -0.4233398438,        0.7177734375,        0.0341796875,        7.2479248047,      -16.2658691406,      -28.0761718750
1489457363.6392829418,1489457363.6417140961,       -0.4233398438,        0.7177734375,        0.0341796875,        7.2479248047,      -16.2658691406,      -28.0761718750
1489457363.6420049667,1489457363.6444211006,       -0.4648437500,        0.6914062500,        0.0595703125,        9.5825195312,      -17.0135498047,      -35.7055664062
1489457363.6447110176,1489457363.6471300125,       -0.4648437500,        0.6914062500,        0.0595703125,        9.5825195312,      -17.0135498047,      -35.7055664062
1489457363.6474220753,1489457363.6497979164,       -0.4648437500,        0.6914062500,        0.0595703125,       11.7340087891,      -17.2119140625,      -43.5180664062
1489457363.6500830650,1489457363.6523718834,       -0.4648437500,        0.6914062500,        0.0761718750,       11.7340087891,      -17.2119140625,      -43.5180664062
1489457363.6526579857,1489457363.6549460888,       -0.5883789062,        0.6718750000,        0.0761718750,       11.7340087891,      -16.9525146484,      -50.0640869141
1489457363.6552319527,1489457363.6575219631,       -0.5883789062,        0.6718750000,        0.0761718750,       14.3432617188,      -16.9525146484,      -50.0640869141
1489457363.6578071117,1489457363.6601760387,       -0.5883789062,        0.6718750000,        0.0761718750,       14.3432617188,      -16.9525146484,      -55.7250976562
1489457363.6604690552,1489457363.6628870964,       -0.5883789062,        0.6718750000,        0.0981445312,       18.5699462891,      -16.3879394531,      -55.7250976562
1489457363.6631779671,1489457363.6655979156,       -0.6772460938,        0.6762695312,        0.0981445312,       18.5699462891,      -12.4816894531,      -61.9659423828
1489457363.6658899784,1489457363.6683039665,       -0.6772460938,        0.6762695312,        0.0981445312,       26.2756347656,      -14.8010253906,      -61.9659423828
1489457363.6685960293,1489457363.6710491180,       -0.6772460938,        0.6762695312,        0.0981445312,       26.2756347656,      -10.8947753906,      -69.6716308594
1489457363.6713430882,1489457363.6737620831,       -0.7592773438,        0.6904296875,        0.1855468750,       35.7208251953,      -11.0931396484,      -69.6716308594
1489457363.6740520000,1489457363.6764690876,       -0.7592773438,        0.6904296875,        0.1855468750,       35.7208251953,       -7.1868896484,      -77.1942138672
1489457363.6767559052,1489457363.6791770458,       -0.7592773438,        0.6904296875,        0.1855468750,       46.6308593750,       -7.5836181641,      -77.1942138672
1489457363.6794679165,1489457363.6818850040,       -0.7592773438,        0.6904296875,        0.1855468750,       46.6308593750,       -7.5836181641,      -83.7402343750
1489457363.6821720600,1489457363.6845860481,       -0.7695312500,        0.6064453125,        0.2656250000,       58.3496093750,       -4.2266845703,      -83.7402343750
1489457363.6848759651,1489457363.6872930527,       -0.7695312500,        0.6064453125,        0.2656250000,       58.3496093750,       -0.3204345703,      -89.3249511719
1489457363.6875810623,1489457363.6900420189,       -0.7695312500,        0.6064453125,        0.2656250000,       67.5048828125,       -1.2817382812,      -89.3249511719
1489457363.6903328896,1489457363.6927449703,       -0.7695312500,        0.6064453125,        0.2656250000,       67.5048828125,        2.6245117188,      -95.1690673828
1489457363.6930329800,1489457363.6955440044,       -0.7949218750,        0.6181640625,        0.2548828125,       73.3184814453,        0.8697509766,      -95.1690673828
1489457363.6958339214,1489457363.6982400417,       -0.7949218750,        0.6181640625,        0.2548828125,       73.3184814453,        0.8697509766,     -104.8431396484
1489457363.6989789009,1489457363.7012801170,       -0.7949218750,        0.6181640625,        0.2548828125,       75.9124755859,        2.1820068359,     -104.8431396484
1489457363.7016720772,1489457363.7039680481,       -0.8374023438,        0.6904296875,        0.2939453125,       75.9124755859,        4.3334960938,     -115.6005859375
1489457363.7042510509,1489457363.7065429688,       -0.8374023438,        0.6904296875,        0.2939453125,       75.1037597656,        4.3334960938,     -115.6005859375
1489457363.7068250179,1489457363.7091419697,       -0.8374023438,        0.6904296875,        0.2939453125,       75.1037597656,        8.2397460938,     -125.0762939453
1489457363.7094299793,1489457363.7118449211,       -0.8374023438,        0.6904296875,        0.2939453125,       70.5413818359,        8.0261230469,     -125.0762939453
1489457363.7121350765,1489457363.7145509720,       -0.9243164062,        0.7285156250,        0.2392578125,       70.5413818359,       11.9323730469,     -135.3302001953
1489457363.7148430347,1489457363.7172529697,       -0.9243164062,        0.7285156250,        0.2392578125,       66.6656494141,       13.3209228516,     -135.3302001953
1489457363.7175450325,1489457363.7199599743,       -0.9243164062,        0.7285156250,        0.2392578125,       66.6656494141,       17.2271728516,     -147.6135253906
1489457363.7202539444,1489457363.7226729393,       -0.9243164062,        0.7285156250,        0.2392578125,       63.7207031250,       19.0124511719,     -147.6135253906
1489457363.7229630947,1489457363.7253820896,       -1.0693359375,        0.8540039062,        0.3212890625,       63.7207031250,       26.8249511719,     -159.5306396484
1489457363.7256729603,1489457363.7280869484,       -1.0693359375,        0.8540039062,        0.3212890625,       59.2956542969,       25.1922607422,     -159.5306396484
1489457363.7283780575,1489457363.7307350636,       -1.0693359375,        0.8540039062,        0.3212890625,       59.2956542969,       29.0985107422,     -169.2047119141
1489457363.7310209274,1489457363.7333130836,       -1.0693359375,        0.8540039062,        0.3447265625,       60.5773925781,       29.2968750000,     -169.2047119141
1489457363.7335979939,1489457363.7358899117,       -1.5117187500,        1.0561523438,        0.3447265625,       60.5773925781,       29.2968750000,     -180.3283691406
1489457363.7361729145,1489457363.7384669781,       -1.5117187500,        1.0561523438,        0.3447265625,       65.9332275391,       31.4636230469,     -180.3283691406
1489457363.7387490273,1489457363.7410449982,       -1.5117187500,        1.0561523438,        0.3447265625,       65.9332275391,       31.4636230469,     -180.3283691406
1489457363.7413289547,1489457363.7436249256,       -1.5117187500,        0.6811523438,        0.0595703125,       73.0895996094,       35.7208251953,     -195.3887939453
1489457363.7439088821,1489457363.7462000847,       -2.3945312500,        0.6923828125,        0.0595703125,       73.0895996094,       35.7208251953,     -195.3887939453
1489457363.7464849949,1489457363.7487740517,       -2.3945312500,        0.6923828125,        0.0595703125,       81.3598632812,       38.6810302734,     -207.8399658203
1489457363.7492320538,1489457363.7515230179,       -2.3945312500,        0.6923828125,        0.0595703125,       81.3598632812,       38.6810302734,     -207.8399658203
1489457363.7518050671,1489457363.7542479038,       -2.6445312500,        0.1689453125,        0.0517578125,       84.5184326172,       37.6586914062,     -215.4541015625
1489457363.7545349598,1489457363.7568309307,       -2.7363281250,        0.1689453125,        0.0517578125,       84.5184326172,       37.6586914062,     -215.4541015625
1489457363.7571170330,1489457363.7596778870,       -2.7363281250,        0.1689453125,        0.0517578125,       80.7800292969,       32.3181152344,     -220.9777832031
1489457363.7599639893,1489457363.7622520924,       -2.7363281250,        0.1689453125,        0.0517578125,       80.7800292969,       32.3181152344,     -220.9777832031
1489457363.7625370026,1489457363.7648360729,       -2.6694335938,       -0.3154296875,        0.0727539062,       75.3784179688,       22.7508544922,     -226.5777587891
1489457363.7652211189,1489457363.7675080299,       -2.6694335938,       -0.3154296875,        0.0727539062,       75.3784179688,       22.7508544922,     -226.5777587891
1489457363.7677919865,1489457363.7702059746,       -2.6694335938,       -0.3154296875,        0.0727539062,       72.8302001953,       10.3302001953,     -237.8082275391
1489457363.7704908848,1489457363.7727730274,       -2.6694335938,       -0.3154296875,        0.0727539062,       72.8302001953,       10.3302001953,     -237.8082275391
1489457363.7730588913,1489457363.7756640911,       -2.5620117188,       -0.7475585938,        0.1308593750,       69.9310302734,       10.0860595703,     -257.9040527344
1489457363.7759530544,1489457363.7782430649,       -2.5620117188,       -0.7475585938,        0.1308593750,       69.9310302734,       10.0860595703,     -257.9040527344
1489457363.7785289288,1489457363.7808198929,       -2.5620117188,       -0.7475585938,        0.1308593750,       69.4122314453,       23.1170654297,     -286.6210937500
1489457363.7811069489,1489457363.7833950520,       -2.5620117188,       -0.7475585938,        0.0058593750,       69.4122314453,       23.1170654297,     -286.6210937500
1489457363.7836821079,1489457363.7859690189,       -1.1474609375,       -0.6816406250,        0.0463867188,       65.6585693359,       27.7252197266,     -301.8646240234
1489457363.7862539291,1489457363.7885360718,       -1.1474609375,       -0.6816406250,        0.0463867188,       65.6585693359,       27.7252197266,     -301.8646240234
1489457363.7888588905,1489457363.7911520004,       -1.1474609375,       -0.6816406250,        0.0463867188,       46.0968017578,       22.3541259766,     -291.7633056641
1489457363.7914340496,1489457363.7937190533,       -1.1474609375,       -0.6816406250,        0.1562500000,       46.0968017578,       22.3541259766,     -291.7633056641
1489457363.7940030098,1489457363.7962920666,       -0.6083984375,        0.0107421875,        0.1562500000,       46.0968017578,       20.7824707031,     -269.5770263672
1489457363.7965760231,1489457363.7988770008,       -0.6083984375,        0.0107421875,        0.1562500000,       17.2576904297,       20.7824707031,     -269.5770263672
1489457363.7991619110,1489457363.8014490604,       -0.6083984375,        0.0107421875,        0.1562500000,       17.2576904297,       20.7824707031,     -244.3389892578
1489457363.8017349243,1489457363.8040239811,       -0.6083984375,        0.7607421875,        0.1538085938,        0.5798339844,       27.6947021484,     -244.3389892578
1489457363.8043060303,1489457363.8065938950,       -0.8583984375,        0.8315429688,        0.1538085938,        0.5798339844,       27.6947021484,     -209.1827392578
1489457363.8068759441,1489457363.8092501163,       -0.8583984375,        0.8315429688,        0.1538085938,       -1.4190673828,       36.9262695312,     -209.1827392578
1489457363.8095309734,1489457363.8118250370,       -0.8583984375,        0.8315429688,        0.1538085938,       -1.4190673828,       36.9262695312,     -209.1827392578
1489457363.8121070862,1489457363.8143939972,       -0.8583984375,        1.6318359375,        0.4780273438,        4.2724609375,       39.7949218750,     -162.3840332031
1489457363.8146750927,1489457363.8169620037,       -1.0483398438,        1.6318359375,        0.4780273438,        4.2724609375,       39.7949218750,     -162.3840332031
1489457363.8172419071,1489457363.8197090626,       -1.0483398438,        1.6318359375,        0.4780273438,        9.9792480469,       37.0330810547,     -115.9210205078
1489457363.8199899197,1489457363.8222808838,       -1.0483398438,        1.6318359375,        0.4780273438,        9.9792480469,       37.0330810547,     -115.9210205078
1489457363.8225619793,1489457363.8248560429,       -0.4233398438,        1.2377929688,        0.5805664062,       21.9268798828,       23.9257812500,      -80.3527832031
1489457363.8251380920,1489457363.8274269104,       -0.3989257812,        1.2377929688,        0.5805664062,       21.9268798828,       23.9257812500,      -80.3527832031
1489457363.8277130127,1489457363.8301270008,       -0.3989257812,        1.2377929688,        0.5805664062,       20.7519531250,       -2.8381347656,      -45.7916259766
1489457363.8305149078,1489457363.8328099251,       -0.3989257812,        1.2377929688,        0.5805664062,       20.7519531250,       -2.8381347656,      -45.7916259766
1489457363.8330900669,1489457363.8353779316,        0.0048828125,        0.5307617188,        0.4252929688,       -7.2326660156,      -24.0020751953,       -8.6517333984
1489457363.8356559277,1489457363.8379409313,        0.0048828125,        0.5307617188,        0.4252929688,       -7.2326660156,      -24.0020751953,       -8.6517333984
1489457363.8382210732,1489457363.8405520916,        0.0048828125,        0.5307617188,        0.4252929688,      -24.7192382812,      -35.9191894531,       15.8386230469
1489457363.8408370018,1489457363.8431279659,        0.0048828125,        0.5307617188,        0.4252929688,      -24.7192382812,      -35.9191894531,       15.8386230469
1489457363.8434109688,1489457363.8457040787,       -0.3383789062,        0.2270507812,       -0.0288085938,      -23.4985351562,      -35.9954833984,       37.8417968750
1489457363.8459880352,1489457363.8482739925,       -0.3383789062,        0.2270507812,       -0.0288085938,      -23.4985351562,      -35.9954833984,       37.8417968750
1489457363.8485579491,1489457363.8509700298,       -0.3383789062,        0.2270507812,       -0.0288085938,      -27.4047851562,      -32.7606201172,       63.8885498047
1489457363.8512630463,1489457363.8536860943,       -0.3383789062,        0.2270507812,       -0.0288085938,      -28.3508300781,      -32.7606201172,       63.8885498047
1489457363.8539769650,1489457363.8564219475,       -0.5283203125,        0.3115234375,       -0.1821289062,      -32.2570800781,      -28.1982421875,       82.5653076172
1489457363.8567080498,1489457363.8591818810,       -0.5283203125,        0.3115234375,       -0.1821289062,      -32.7758789062,      -28.1982421875,       82.5653076172
1489457363.8594748974,1489457363.8618628979,       -0.5283203125,        0.3115234375,       -0.1821289062,      -32.7758789062,      -25.1617431641,       93.5363769531
1489457363.8621530533,1489457363.8646540642,       -0.5283203125,        0.3115234375,       -0.1132812500,      -32.2875976562,      -25.1617431641,       93.5363769531
1489457363.8649570942,1489457363.8672809601,       -0.3642578125,        0.3652343750,       -0.1132812500,      -24.4750976562,      -27.4658203125,      100.1281738281
1489457363.8675680161,1489457363.8699400425,       -0.3642578125,        0.3652343750,       -0.1132812500,      -26.0314941406,      -27.4658203125,      100.1281738281
1489457363.8702270985,1489457363.8725171089,       -0.3642578125,        0.3652343750,       -0.1132812500,      -26.0314941406,      -31.7840576172,      103.1341552734
1489457363.8728020191,1489457363.8750948906,       -0.3642578125,        0.2578125000,       -0.0952148438,      -14.4805908203,      -31.7840576172,      103.1341552734
1489457363.8753819466,1489457363.8776650429,       -0.2290039062,        0.2578125000,       -0.0952148438,      -14.4805908203,      -31.7840576172,      103.1036376953
1489457363.8779499531,1489457363.8802518845,       -0.2290039062,        0.2578125000,       -0.0952148438,       -2.6855468750,      -35.6750488281,      103.1036376953
1489457363.8805360794,1489457363.8828260899,       -0.2290039062,        0.2578125000,       -0.0952148438,       -2.6855468750,      -35.6750488281,      102.6000976562
1489457363.8831090927,1489457363.8853950500,       -0.2290039062,        0.0883789062,       -0.1513671875,        7.6293945312,      -37.5976562500,      102.6000976562
1489457363.8856770992,1489457363.8879621029,       -0.1894531250,        0.0883789062,       -0.1513671875,        7.6293945312,      -37.5976562500,      102.6000976562
1489457363.8882451057,1489457363.8905730247,       -0.1894531250,        0.0883789062,       -0.1513671875,       15.9301757812,      -38.8488769531,      101.0131835938
1489457363.8908588886,1489457363.8931438923,       -0.1894531250,        0.0883789062,       -0.1513671875,       15.9301757812,      -38.8488769531,      101.0131835938
1489457363.8935420513,1489457363.8958339691,       -0.1674804688,       -0.0410156250,       -0.1655273438,       20.8740234375,      -39.3981933594,       99.0142822266
1489457363.8961191177,1489457363.8984050751,       -0.1674804688,       -0.0410156250,       -0.1655273438,       20.8740234375,      -39.3981933594,       99.0142822266
1489457363.8986899853,1489457363.9011089802,       -0.1674804688,       -0.0410156250,       -0.1655273438,       23.0255126953,      -39.3066406250,       96.8017578125
1489457363.9013938904,1489457363.9036870003,       -0.1674804688,       -0.0410156250,       -0.1655273438,       23.0255126953,      -39.3066406250,       96.8017578125
1489457363.9039719105,1489457363.9062590599,       -0.1342773438,       -0.1416015625,       -0.1533203125,       21.6064453125,      -37.7807617188,       93.9941406250
1489457363.9065439701,1489457363.9089779854,       -0.1342773438,       -0.1416015625,       -0.1533203125,       21.6064453125,      -37.7807617188,       93.9941406250
