time_stamp before, time_stamp after, Acceleration x, Acceleration y, Acceleration z, Gyro x, Gyro y, Gyro z
1489457182.0211949348,1489457182.0321409702,       -0.7280273438,        0.0664062500,        0.0546875000,       -0.4119873047,       -0.0152587891,       -0.2746582031
1489457182.0324420929,1489457182.0349330902,       -0.7280273438,        0.0664062500,        0.0546875000,       -0.4119873047,       -0.0152587891,       -0.2746582031
1489457182.0352139473,1489457182.0376210213,       -0.7265625000,        0.0620117188,        0.0527343750,       -0.3051757812,        0.3051757812,       -0.1983642578
1489457182.0379021168,1489457182.0407700539,       -0.7265625000,        0.0620117188,        0.0527343750,       -0.3051757812,        0.3051757812,       -0.1983642578
1489457182.0410530567,1489457182.0434699059,       -0.7265625000,        0.0620117188,        0.0527343750,       -0.3662109375,        0.3662109375,       -0.2441406250
1489457182.0437529087,1489457182.0461680889,       -0.7265625000,        0.0620117188,        0.0527343750,       -0.3662109375,        0.3662109375,       -0.2441406250
1489457182.0464479923,1489457182.0488810539,       -0.7363281250,        0.0659179688,        0.0581054688,        0.0457763672,       -0.1068115234,       -0.1678466797
1489457182.0491609573,1489457182.0515758991,       -0.7363281250,        0.0659179688,        0.0581054688,        0.0457763672,       -0.1068115234,       -0.1678466797
1489457182.0518550873,1489457182.0542728901,       -0.7363281250,        0.0659179688,        0.0581054688,        0.0762939453,       -0.2746582031,       -0.1220703125
1489457182.0545530319,1489457182.0569639206,       -0.7363281250,        0.0673828125,        0.0566406250,        0.0762939453,       -0.2746582031,       -0.1220703125
1489457182.0572440624,1489457182.0596730709,       -0.7260742188,        0.0673828125,        0.0566406250,       -0.3814697266,       -0.1983642578,       -0.0915527344
1489457182.0599520206,1489457182.0623679161,       -0.7260742188,        0.0673828125,        0.0566406250,       -0.3814697266,       -0.1983642578,       -0.0915527344
1489457182.0626471043,1489457182.0650629997,       -0.7260742188,        0.0673828125,        0.0566406250,       -0.3356933594,       -0.0152587891,       -0.4425048828
1489457182.0653409958,1489457182.0677549839,       -0.7309570312,        0.0659179688,        0.0649414062,       -0.3356933594,       -0.0152587891,       -0.4425048828
1489457182.0680348873,1489457182.0703868866,       -0.7309570312,        0.0659179688,        0.0649414062,       -0.2899169922,       -0.2441406250,       -0.0915527344
1489457182.0706589222,1489457182.0729479790,       -0.7309570312,        0.0659179688,        0.0649414062,       -0.2899169922,       -0.2441406250,       -0.0915527344
1489457182.0732200146,1489457182.0755150318,       -0.7309570312,        0.0659179688,        0.0649414062,       -0.5950927734,       -0.2288818359,       -0.0457763672
1489457182.0757889748,1489457182.0780820847,       -0.7285156250,        0.0698242188,        0.0571289062,       -0.5950927734,       -0.2288818359,       -0.0457763672
1489457182.0783569813,1489457182.0807390213,       -0.7285156250,        0.0698242188,        0.0571289062,       -0.3204345703,       -0.4730224609,       -0.1831054688
1489457182.0810151100,1489457182.0833139420,       -0.7285156250,        0.0698242188,        0.0571289062,       -0.3204345703,       -0.4730224609,       -0.1831054688
1489457182.0835890770,1489457182.0858840942,       -0.7285156250,        0.0698242188,        0.0571289062,       -0.4882812500,        0.0915527344,       -0.1831054688
1489457182.0861580372,1489457182.0884499550,       -0.7270507812,        0.0639648438,        0.0590820312,       -0.4882812500,        0.0915527344,       -0.1831054688
1489457182.0887229443,1489457182.0910840034,       -0.7270507812,        0.0639648438,        0.0590820312,       -0.0610351562,        0.0915527344,       -0.2593994141
1489457182.0913600922,1489457182.0936539173,       -0.7270507812,        0.0639648438,        0.0590820312,       -0.0610351562,        0.0915527344,       -0.2593994141
1489457182.0940880775,1489457182.0963869095,       -0.7270507812,        0.0639648438,        0.0590820312,        3.8452148438,       -0.2746582031,       -0.5493164062
1489457182.0966620445,1489457182.0989899635,       -0.7309570312,        0.0683593750,        0.0541992188,        0.2288818359,       -0.2746582031,       -0.5493164062
1489457182.0992739201,1489457182.1016900539,       -0.7309570312,        0.0683593750,        0.0541992188,        0.2288818359,       -0.4119873047,       -0.3356933594
1489457182.1019730568,1489457182.1043961048,       -0.7309570312,        0.0683593750,        0.0541992188,        0.5645751953,       -0.4119873047,       -0.3356933594
1489457182.1046779156,1489457182.1070950031,       -0.7309570312,        0.0683593750,        0.0546875000,        0.5645751953,       -0.1983642578,       -0.1220703125
1489457182.1073770523,1489457182.1098399162,       -0.7294921875,        0.0644531250,        0.0546875000,       -0.3204345703,       -0.1983642578,       -0.1220703125
1489457182.1101210117,1489457182.1125400066,       -0.7294921875,        0.0644531250,        0.0546875000,       -0.3204345703,       -0.2288818359,       -0.1678466797
1489457182.1128211021,1489457182.1152360439,       -0.7294921875,        0.0644531250,        0.0546875000,       -0.6256103516,       -0.2288818359,       -0.1678466797
1489457182.1155180931,1489457182.1179349422,       -0.7368164062,        0.0664062500,        0.0629882812,       -0.6256103516,       -0.0305175781,       -0.3204345703
1489457182.1182179451,1489457182.1206450462,       -0.7368164062,        0.0664062500,        0.0629882812,       -0.3356933594,       -0.0305175781,       -0.3204345703
1489457182.1209270954,1489457182.1233420372,       -0.7368164062,        0.0664062500,        0.0629882812,       -0.3356933594,        3.8757324219,       -0.4730224609
1489457182.1236240864,1489457182.1260449886,       -0.7368164062,        0.0664062500,        0.0629882812,       -0.2288818359,        0.0305175781,       -0.4730224609
1489457182.1263270378,1489457182.1287539005,       -0.7329101562,        0.0722656250,        0.0449218750,       -0.2288818359,       -3.8757324219,       -0.1983642578
1489457182.1292390823,1489457182.1316139698,       -0.7329101562,        0.0722656250,        0.0449218750,       -0.5035400391,       -0.0762939453,       -0.1983642578
1489457182.1318929195,1489457182.1342740059,       -0.7329101562,        0.0722656250,        0.0449218750,       -0.5035400391,        0.0152587891,       -0.0457763672
1489457182.1345889568,1489457182.1372880936,       -0.7329101562,        0.0722656250,        0.0595703125,       -0.6256103516,        0.0152587891,       -0.0457763672
1489457182.1375730038,1489457182.1400439739,       -0.7304687500,        0.0678710938,        0.0595703125,       -0.6256103516,       -0.1678466797,       -0.1831054688
1489457182.1403269768,1489457182.1427390575,       -0.7304687500,        0.0678710938,        0.0595703125,       -0.2593994141,       -0.1678466797,       -0.1831054688
1489457182.1430220604,1489457182.1454370022,       -0.7304687500,        0.0678710938,        0.0595703125,       -0.2593994141,       -0.1220703125,       -0.4119873047
1489457182.1457190514,1489457182.1481399536,       -0.7304687500,        0.0649414062,        0.0571289062,       -0.6256103516,       -0.1220703125,       -0.4119873047
1489457182.1484220028,1489457182.1508500576,       -0.7290039062,        0.0649414062,        0.0571289062,       -0.6256103516,        0.0915527344,       -0.2746582031
1489457182.1511321068,1489457182.1535480022,       -0.7290039062,        0.0649414062,        0.0571289062,       -0.9002685547,        0.0915527344,       -0.2746582031
1489457182.1538300514,1489457182.1562440395,       -0.7290039062,        0.0649414062,        0.0571289062,       -0.9002685547,        0.3051757812,       -0.1373291016
1489457182.1565260887,1489457182.1589469910,       -0.7275390625,        0.0644531250,        0.0595703125,       -0.6256103516,        0.3051757812,       -0.1373291016
1489457182.1593420506,1489457182.1617610455,       -0.7275390625,        0.0644531250,        0.0595703125,       -0.6256103516,        0.2136230469,        0.0152587891
1489457182.1620430946,1489457182.1644608974,       -0.7275390625,        0.0644531250,        0.0595703125,       -0.3509521484,        0.2136230469,        0.0152587891
1489457182.1647419930,1489457182.1671659946,       -0.7275390625,        0.0644531250,        0.0595703125,       -0.3509521484,       -0.0610351562,       -0.1373291016
1489457182.1674499512,1489457182.1698439121,       -0.7299804688,        0.0659179688,        0.0561523438,       -0.3509521484,       -0.0610351562,       -0.1373291016
1489457182.1701200008,1489457182.1724169254,       -0.7299804688,        0.0659179688,        0.0561523438,       -0.3509521484,       -0.0610351562,       -0.0152587891
1489457182.1726911068,1489457182.1749830246,       -0.7299804688,        0.0659179688,        0.0561523438,       -0.0610351562,       -0.0610351562,       -0.0152587891
1489457182.1752560139,1489457182.1775479317,       -0.7299804688,        0.0659179688,        0.0668945312,       -0.0610351562,       -0.0610351562,        0.0000000000
1489457182.1778209209,1489457182.1802809238,       -0.7324218750,        0.0693359375,        0.0668945312,        0.0152587891,        0.1525878906,        0.0000000000
1489457182.1805570126,1489457182.1828498840,       -0.7324218750,        0.0693359375,        0.0668945312,        0.0152587891,        0.1525878906,       -0.0610351562
1489457182.1831240654,1489457182.1854178905,       -0.7324218750,        0.0693359375,        0.0668945312,        0.3662109375,        0.0915527344,       -0.0610351562
1489457182.1856911182,1489457182.1879839897,       -0.7324218750,        0.0649414062,        0.0625000000,        0.3662109375,        0.0915527344,       -0.0610351562
1489457182.1882588863,1489457182.1907830238,       -0.7294921875,        0.0649414062,        0.0625000000,        0.2593994141,        0.1525878906,       -0.1678466797
1489457182.1910650730,1489457182.1934840679,       -0.7294921875,        0.0649414062,        0.0625000000,        0.2593994141,        0.1525878906,       -0.1678466797
1489457182.1937661171,1489457182.1961839199,       -0.7294921875,        0.0649414062,        0.0625000000,       -0.0762939453,        0.3662109375,       -0.3509521484
1489457182.1964659691,1489457182.1988909245,       -0.7294921875,        0.0708007812,        0.0576171875,       -0.0762939453,        0.3662109375,       -0.3509521484
1489457182.1991729736,1489457182.2015919685,       -0.7294921875,        0.0708007812,        0.0576171875,        0.1525878906,        0.0305175781,       -0.4119873047
1489457182.2018749714,1489457182.2042920589,       -0.7294921875,        0.0708007812,        0.0576171875,        0.1525878906,        0.0305175781,       -0.4119873047
1489457182.2045729160,1489457182.2069859505,       -0.7294921875,        0.0708007812,        0.0576171875,        0.1373291016,       -0.0610351562,       -0.1068115234
1489457182.2072670460,1489457182.2096529007,       -0.7329101562,        0.0639648438,        0.0571289062,        0.1373291016,       -0.0610351562,       -0.1068115234
1489457182.2099280357,1489457182.2122230530,       -0.7329101562,        0.0639648438,        0.0571289062,       -0.1220703125,       -0.2746582031,        0.0000000000
1489457182.2124979496,1489457182.2147951126,       -0.7329101562,        0.0639648438,        0.0571289062,       -0.1220703125,       -0.2746582031,        0.0000000000
1489457182.2150709629,1489457182.2173631191,       -0.7329101562,        0.0639648438,        0.0571289062,       -0.2746582031,       -0.1373291016,       -0.0305175781
1489457182.2176380157,1489457182.2200489044,       -0.7255859375,        0.0659179688,        0.0590820312,       -0.2746582031,       -0.1373291016,       -0.0305175781
1489457182.2203309536,1489457182.2227489948,       -0.7255859375,        0.0659179688,        0.0590820312,        0.2746582031,       -0.2593994141,       -0.1068115234
1489457182.2231400013,1489457182.2255609035,       -0.7255859375,        0.0659179688,        0.0590820312,        0.2746582031,       -0.2593994141,       -0.1068115234
1489457182.2258429527,1489457182.2282629013,       -0.7255859375,        0.0659179688,        0.0571289062,       -0.0152587891,        0.1220703125,       -0.0762939453
1489457182.2285449505,1489457182.2309660912,       -0.7314453125,        0.0703125000,        0.0571289062,       -0.0152587891,        0.1220703125,       -0.0762939453
1489457182.2312500477,1489457182.2336659431,       -0.7314453125,        0.0703125000,        0.0571289062,       -0.3967285156,        0.4119873047,       -0.1678466797
1489457182.2339460850,1489457182.2363610268,       -0.7314453125,        0.0703125000,        0.0571289062,       -0.3967285156,        0.4119873047,       -0.1678466797
1489457182.2366418839,1489457182.2390730381,       -0.7260742188,        0.0722656250,        0.0483398438,        0.0915527344,        0.1525878906,       -0.3204345703
1489457182.2393538952,1489457182.2417750359,       -0.7260742188,        0.0722656250,        0.0483398438,        0.0915527344,        0.1525878906,       -0.3204345703
1489457182.2420558929,1489457182.2444710732,       -0.7260742188,        0.0722656250,        0.0483398438,        0.1831054688,        0.0305175781,       -0.3662109375
1489457182.2447540760,1489457182.2472081184,       -0.7260742188,        0.0722656250,        0.0483398438,        0.1831054688,        0.0305175781,       -0.3662109375
1489457182.2474920750,1489457182.2498719692,       -0.7314453125,        0.0639648438,        0.0512695312,        0.0610351562,        0.4272460938,       -0.0915527344
1489457182.2501471043,1489457182.2524390221,       -0.7314453125,        0.0639648438,        0.0512695312,        0.0610351562,        0.4272460938,       -0.0915527344
1489457182.2527129650,1489457182.2550120354,       -0.7314453125,        0.0639648438,        0.0512695312,        0.1220703125,        0.2288818359,        0.1983642578
1489457182.2552859783,1489457182.2575840950,       -0.7314453125,        0.0639648438,        0.0512695312,        0.1220703125,        0.2288818359,        0.1983642578
1489457182.2578570843,1489457182.2602720261,       -0.7319335938,        0.0629882812,        0.0566406250,        0.0457763672,       -0.0762939453,        0.2288818359
1489457182.2605528831,1489457182.2629680634,       -0.7319335938,        0.0629882812,        0.0566406250,        0.0457763672,       -0.0762939453,        0.2288818359
1489457182.2632489204,1489457182.2656569481,       -0.7319335938,        0.0629882812,        0.0566406250,        0.4882812500,       -0.6256103516,       -0.1983642578
1489457182.2659399509,1489457182.2683548927,       -0.7319335938,        0.0629882812,        0.0566406250,        0.4882812500,       -0.6256103516,       -0.1983642578
1489457182.2686359882,1489457182.2710649967,       -0.7319335938,        0.0639648438,        0.0634765625,        0.3204345703,       -0.3814697266,       -0.1983642578
1489457182.2713460922,1489457182.2737569809,       -0.7319335938,        0.0639648438,        0.0634765625,        0.3204345703,       -0.3814697266,       -0.1983642578
1489457182.2740368843,1489457182.2764539719,       -0.7319335938,        0.0639648438,        0.0634765625,       -0.3662109375,       -0.3509521484,       -0.0610351562
1489457182.2767360210,1489457182.2791368961,       -0.7319335938,        0.0664062500,        0.0551757812,       -0.3662109375,       -0.3509521484,       -0.0610351562
1489457182.2794129848,1489457182.2817080021,       -0.7314453125,        0.0664062500,        0.0551757812,       -0.6408691406,       -0.0610351562,        0.0762939453
1489457182.2819819450,1489457182.2842741013,       -0.7314453125,        0.0664062500,        0.0551757812,       -0.6408691406,       -0.0610351562,        0.0762939453
1489457182.2845480442,1489457182.2868371010,       -0.7314453125,        0.0664062500,        0.0551757812,       -0.6408691406,       -0.0305175781,        0.1068115234
1489457182.2872180939,1489457182.2896590233,       -0.7368164062,        0.0644531250,        0.0605468750,       -0.3204345703,       -0.0305175781,        0.1068115234
1489457182.2899339199,1489457182.2922279835,       -0.7368164062,        0.0644531250,        0.0605468750,       -0.3204345703,       -0.1525878906,        0.2288818359
1489457182.2925019264,1489457182.2947909832,       -0.7368164062,        0.0644531250,        0.0605468750,        0.3051757812,       -0.1525878906,        0.2288818359
1489457182.2950649261,1489457182.2973620892,       -0.7368164062,        0.0644531250,        0.0605468750,        0.3051757812,       -0.1525878906,        0.2899169922
1489457182.2976360321,1489457182.3000879288,       -0.7314453125,        0.0742187500,        0.0576171875,       -0.0152587891,       -0.3814697266,        0.2899169922
1489457182.3003630638,1489457182.3026568890,       -0.7314453125,        0.0742187500,        0.0576171875,       -0.0152587891,       -0.3814697266,        0.4730224609
1489457182.3029310703,1489457182.3052229881,       -0.7314453125,        0.0742187500,        0.0576171875,       -0.2746582031,       -0.2899169922,        0.4730224609
1489457182.3054969311,1489457182.3077850342,       -0.7314453125,        0.0742187500,        0.0576171875,       -0.2746582031,       -0.2899169922,        0.4730224609
1489457182.3080599308,1489457182.3104810715,       -0.7348632812,        0.0688476562,        0.0517578125,       -0.7934570312,       -0.1525878906,        0.4119873047
1489457182.3107650280,1489457182.3131809235,       -0.7348632812,        0.0688476562,        0.0517578125,       -0.7934570312,       -0.1525878906,        0.4119873047
1489457182.3134620190,1489457182.3158769608,       -0.7348632812,        0.0688476562,        0.0517578125,       -0.5950927734,       -0.1983642578,        0.1678466797
1489457182.3161590099,1489457182.3185739517,       -0.7348632812,        0.0688476562,        0.0517578125,       -0.5950927734,       -0.1983642578,        0.1678466797
1489457182.3188660145,1489457182.3212800026,       -0.7250976562,        0.0712890625,        0.0527343750,       -0.4272460938,        0.1373291016,        0.1373291016
1489457182.3215620518,1489457182.3239810467,       -0.7250976562,        0.0712890625,        0.0527343750,       -0.4272460938,        0.1373291016,        0.1373291016
1489457182.3242650032,1489457182.3266820908,       -0.7250976562,        0.0712890625,        0.0527343750,       -0.0915527344,        0.4882812500,        0.1983642578
1489457182.3269639015,1489457182.3293790817,       -0.7250976562,        0.0712890625,        0.0566406250,       -0.0915527344,        0.4882812500,        0.1983642578
1489457182.3296599388,1489457182.3320779800,       -0.7246093750,        0.0664062500,        0.0566406250,        0.0457763672,        0.2288818359,        0.3509521484
1489457182.3323590755,1489457182.3348529339,       -0.7246093750,        0.0664062500,        0.0566406250,        0.0457763672,        0.2288818359,        0.3509521484
1489457182.3351290226,1489457182.3374280930,       -0.7246093750,        0.0664062500,        0.0566406250,       -0.1068115234,        0.1373291016,        0.4272460938
1489457182.3377020359,1489457182.3402009010,       -0.7299804688,        0.0751953125,        0.0473632812,       -0.1068115234,        0.1373291016,        0.4272460938
1489457182.3404819965,1489457182.3428640366,       -0.7299804688,        0.0751953125,        0.0473632812,       -0.0305175781,        0.1220703125,        0.5187988281
1489457182.3431429863,1489457182.3456299305,       -0.7299804688,        0.0751953125,        0.0473632812,       -0.0305175781,        0.1220703125,        0.5187988281
1489457182.3459100723,1489457182.3482871056,       -0.7299804688,        0.0751953125,        0.0473632812,        0.4577636719,       -0.1678466797,        0.4272460938
1489457182.3489708900,1489457182.3512649536,       -0.7275390625,        0.0556640625,        0.0620117188,        0.4577636719,       -0.1678466797,        0.4272460938
1489457182.3516480923,1489457182.3539431095,       -0.7275390625,        0.0556640625,        0.0620117188,        0.2136230469,        0.0305175781,        0.4119873047
1489457182.3542189598,1489457182.3565111160,       -0.7275390625,        0.0556640625,        0.0620117188,        0.2136230469,        0.0305175781,        0.4119873047
1489457182.3567850590,1489457182.3591051102,       -0.7275390625,        0.0556640625,        0.0620117188,        0.5187988281,       -0.2136230469,        0.6103515625
1489457182.3593881130,1489457182.3618059158,       -0.7387695312,        0.0649414062,        0.0615234375,        0.5187988281,       -0.2136230469,        0.6103515625
1489457182.3620870113,1489457182.3645040989,       -0.7387695312,        0.0649414062,        0.0615234375,        0.1220703125,       -0.1068115234,        0.6866455078
1489457182.3647871017,1489457182.3672010899,       -0.7387695312,        0.0649414062,        0.0615234375,        0.1220703125,       -0.1068115234,        0.6866455078
1489457182.3674840927,1489457182.3699150085,       -0.7387695312,        0.0742187500,        0.0537109375,        0.0305175781,        0.3814697266,        0.5340576172
1489457182.3701949120,1489457182.3726110458,       -0.7363281250,        0.0742187500,        0.0537109375,        0.0305175781,        0.3814697266,        0.5340576172
1489457182.3728950024,1489457182.3753120899,       -0.7363281250,        0.0742187500,        0.0537109375,        0.4730224609,        0.0762939453,        0.6103515625
1489457182.3755919933,1489457182.3780100346,       -0.7363281250,        0.0742187500,        0.0537109375,        0.4730224609,        0.0762939453,        0.6103515625
1489457182.3782908916,1489457182.3806281090,       -0.7353515625,        0.0673828125,        0.0590820312,        0.7781982422,       -0.4119873047,        0.3967285156
1489457182.3809020519,1489457182.3831899166,       -0.7353515625,        0.0673828125,        0.0590820312,        0.7781982422,       -0.4119873047,        0.3967285156
1489457182.3834640980,1489457182.3857550621,       -0.7353515625,        0.0673828125,        0.0590820312,        1.1596679688,       -0.4425048828,        0.7476806641
1489457182.3860290051,1489457182.3883240223,       -0.7353515625,        0.0673828125,        0.0590820312,        1.1596679688,       -0.4425048828,        0.7476806641
1489457182.3885979652,1489457182.3909339905,       -0.7353515625,        0.0668945312,        0.0478515625,        1.4953613281,       -0.1831054688,        0.7019042969
1489457182.3912079334,1489457182.3935019970,       -0.7353515625,        0.0668945312,        0.0478515625,        1.4953613281,       -0.1831054688,        0.7019042969
1489457182.3937759399,1489457182.3960680962,       -0.7353515625,        0.0668945312,        0.0478515625,        1.0528564453,        0.0000000000,        0.3662109375
1489457182.3963439465,1489457182.3986330032,       -0.7353515625,        0.0668945312,        0.0478515625,        1.0528564453,        0.0000000000,        0.3662109375
1489457182.3989720345,1489457182.4012839794,       -0.7265625000,        0.0659179688,        0.0444335938,        1.0528564453,       -0.1373291016,        0.2593994141
1489457182.4015600681,1489457182.4038519859,       -0.7265625000,        0.0659179688,        0.0444335938,        0.8697509766,       -0.1373291016,        0.2593994141
1489457182.4041259289,1489457182.4064199924,       -0.7265625000,        0.0659179688,        0.0444335938,        0.8697509766,        3.7689208984,        0.8850097656
1489457182.4066920280,1489457182.4091560841,       -0.7265625000,        0.0659179688,        0.0444335938,        0.5798339844,        0.0915527344,        0.8850097656
1489457182.4094400406,1489457182.4118549824,       -0.7333984375,        0.0771484375,        0.0498046875,        0.5798339844,       -3.8146972656,        1.0833740234
1489457182.4121360779,1489457182.4145519733,       -0.7333984375,        0.0771484375,        0.0498046875,        1.4038085938,       -0.2593994141,        1.0833740234
1489457182.4149339199,1489457182.4173541069,       -0.7333984375,        0.0771484375,        0.0498046875,        1.4038085938,       -0.2593994141,        0.9002685547
1489457182.4176359177,1489457182.4200661182,       -0.7333984375,        0.0771484375,        0.0493164062,        1.7852783203,       -0.1373291016,        0.9002685547
1489457182.4203479290,1489457182.4227650166,       -0.7348632812,        0.0722656250,        0.0493164062,        1.7852783203,       -0.1373291016,        0.9918212891
1489457182.4230470657,1489457182.4254610538,       -0.7348632812,        0.0722656250,        0.0493164062,        1.2969970703,       -0.0915527344,        0.9918212891
1489457182.4257431030,1489457182.4281570911,       -0.7348632812,        0.0722656250,        0.0493164062,        1.2969970703,       -0.0915527344,        0.5493164062
1489457182.4284389019,1489457182.4308600426,       -0.7324218750,        0.0639648438,        0.0590820312,        1.5563964844,       -0.1525878906,        0.5493164062
1489457182.4311408997,1489457182.4335579872,       -0.7324218750,        0.0639648438,        0.0590820312,        1.5563964844,       -0.1525878906,        0.8239746094
1489457182.4338390827,1489457182.4362530708,       -0.7324218750,        0.0639648438,        0.0590820312,        1.4801025391,       -0.2441406250,        0.8239746094
1489457182.4365339279,1489457182.4389441013,       -0.7324218750,        0.0639648438,        0.0590820312,        1.4801025391,       -0.2441406250,        1.0681152344
1489457182.4392180443,1489457182.4415099621,       -0.7275390625,        0.0678710938,        0.0478515625,        2.1057128906,       -0.0762939453,        1.0681152344
1489457182.4417839050,1489457182.4440770149,       -0.7275390625,        0.0678710938,        0.0478515625,        2.1057128906,       -0.0762939453,        0.9460449219
1489457182.4443509579,1489457182.4466400146,       -0.7275390625,        0.0678710938,        0.0478515625,        1.7700195312,       -0.1831054688,        0.9460449219
1489457182.4469139576,1489457182.4492919445,       -0.7275390625,        0.0678710938,        0.0478515625,        1.7700195312,       -0.1831054688,        0.9460449219
1489457182.4495730400,1489457182.4519879818,       -0.7309570312,        0.0673828125,        0.0576171875,        1.3885498047,       -0.0915527344,        1.1444091797
1489457182.4522678852,1489457182.4546840191,       -0.7309570312,        0.0673828125,        0.0576171875,        1.3885498047,       -0.0915527344,        1.1444091797
1489457182.4549660683,1489457182.4573779106,       -0.7309570312,        0.0673828125,        0.0576171875,        1.6479492188,       -0.1678466797,        1.1444091797
1489457182.4576580524,1489457182.4600911140,       -0.7309570312,        0.0673828125,        0.0576171875,        1.6479492188,       -0.1678466797,        1.1444091797
1489457182.4603719711,1489457182.4627890587,       -0.7250976562,        0.0620117188,        0.0551757812,        1.8463134766,       -0.0762939453,        0.8392333984
1489457182.4630711079,1489457182.4657540321,       -0.7250976562,        0.0620117188,        0.0551757812,        1.8463134766,       -0.0762939453,        0.8392333984
1489457182.4660329819,1489457182.4684340954,       -0.7250976562,        0.0620117188,        0.0551757812,        2.4566650391,       -0.1831054688,        0.9918212891
1489457182.4691460133,1489457182.4715700150,       -0.7241210938,        0.0698242188,        0.0683593750,        2.4566650391,       -0.1831054688,        1.0833740234
1489457182.4718520641,1489457182.4742660522,       -0.7241210938,        0.0698242188,        0.0683593750,        2.2583007812,       -0.2136230469,        1.0833740234
1489457182.4745469093,1489457182.4769570827,       -0.7241210938,        0.0698242188,        0.0683593750,        2.2583007812,       -0.2136230469,        1.2359619141
1489457182.4772379398,1489457182.4796679020,       -0.7241210938,        0.0698242188,        0.0683593750,        2.0141601562,       -0.2441406250,        1.2359619141
1489457182.4799489975,1489457182.4823648930,       -0.7290039062,        0.0600585938,        0.0571289062,        2.0141601562,       -0.2441406250,        1.3122558594
1489457182.4827530384,1489457182.4851689339,       -0.7290039062,        0.0600585938,        0.0571289062,        1.5869140625,       -0.2899169922,        1.3122558594
1489457182.4854500294,1489457182.4878709316,       -0.7290039062,        0.0600585938,        0.0571289062,        1.5869140625,       -0.2899169922,        1.1138916016
1489457182.4881520271,1489457182.4904830456,       -0.7290039062,        0.0600585938,        0.0581054688,        1.0986328125,       -0.0610351562,        1.1138916016
1489457182.4907569885,1489457182.4930429459,       -0.7358398438,        0.0791015625,        0.0581054688,        1.0986328125,       -0.0610351562,        1.0223388672
1489457182.4933159351,1489457182.4956109524,       -0.7358398438,        0.0791015625,        0.0581054688,        1.0070800781,       -0.2746582031,        1.0223388672
1489457182.4958839417,1489457182.4981789589,       -0.7358398438,        0.0791015625,        0.0581054688,        1.0070800781,       -0.2746582031,        1.0223388672
1489457182.4984519482,1489457182.5007910728,       -0.7358398438,        0.0791015625,        0.0439453125,        1.0070800781,       -0.2746582031,        0.9613037109
1489457182.5010669231,1489457182.5033628941,       -0.7387695312,        0.0737304688,        0.0439453125,        1.0070800781,       -0.2746582031,        0.9613037109
1489457182.5036380291,1489457182.5059299469,       -0.7387695312,        0.0737304688,        0.0439453125,        1.0070800781,       -0.1831054688,        0.8697509766
1489457182.5062038898,1489457182.5085000992,       -0.7387695312,        0.0737304688,        0.0439453125,        1.0070800781,       -0.1831054688,        0.8697509766
1489457182.5087740421,1489457182.5111188889,       -0.7387695312,        0.0751953125,        0.0541992188,        0.6408691406,       -0.1220703125,        0.6408691406
1489457182.5113940239,1489457182.5136890411,       -0.7358398438,        0.0751953125,        0.0541992188,        0.6408691406,       -0.1220703125,        0.6408691406
1489457182.5139629841,1489457182.5162580013,       -0.7358398438,        0.0751953125,        0.0541992188,        0.3356933594,        0.0457763672,        0.5340576172
1489457182.5165319443,1489457182.5189759731,       -0.7358398438,        0.0751953125,        0.0541992188,        0.3356933594,        0.0457763672,        0.5340576172
1489457182.5192520618,1489457182.5215430260,       -0.7358398438,        0.0805664062,        0.0532226562,        0.3204345703,        0.1068115234,        0.7324218750
1489457182.5218191147,1489457182.5241129398,       -0.7270507812,        0.0805664062,        0.0532226562,        0.3204345703,        0.1068115234,        0.7324218750
1489457182.5243880749,1489457182.5266819000,       -0.7270507812,        0.0805664062,        0.0532226562,        0.1525878906,        0.3967285156,        0.3662109375
1489457182.5269570351,1489457182.5293819904,       -0.7270507812,        0.0805664062,        0.0532226562,        0.1525878906,        0.3967285156,        0.3662109375
1489457182.5296630859,1489457182.5320820808,       -0.7353515625,        0.0781250000,        0.0571289062,       -0.1983642578,        0.6713867188,        0.0610351562
1489457182.5323629379,1489457182.5347781181,       -0.7353515625,        0.0781250000,        0.0571289062,       -0.1983642578,        0.6713867188,        0.0610351562
1489457182.5350599289,1489457182.5374801159,       -0.7353515625,        0.0781250000,        0.0571289062,       -0.0457763672,        0.3204345703,       -0.1373291016
1489457182.5377619267,1489457182.5401079655,       -0.7353515625,        0.0781250000,        0.0571289062,       -0.0457763672,        0.3204345703,       -0.1373291016
1489457182.5403859615,1489457182.5426800251,       -0.7324218750,        0.0732421875,        0.0561523438,       -0.0457763672,        0.4272460938,       -0.0152587891
1489457182.5429570675,1489457182.5452480316,       -0.7324218750,        0.0732421875,        0.0561523438,       -0.1525878906,        0.4272460938,       -0.0152587891
1489457182.5456409454,1489457182.5479369164,       -0.7324218750,        0.0732421875,        0.0561523438,       -0.1525878906,        0.4272460938,        0.1525878906
1489457182.5482120514,1489457182.5506510735,       -0.7324218750,        0.0732421875,        0.0561523438,        0.3814697266,        0.4577636719,        0.1525878906
1489457182.5509340763,1489457182.5533530712,       -0.7255859375,        0.0698242188,        0.0532226562,        0.3814697266,        0.4577636719,        0.0610351562
1489457182.5536339283,1489457182.5560479164,       -0.7255859375,        0.0698242188,        0.0532226562,        0.4119873047,        0.1678466797,        0.0610351562
1489457182.5563290119,1489457182.5587430000,       -0.7255859375,        0.0698242188,        0.0532226562,        0.4119873047,       -3.7384033203,        0.0305175781
1489457182.5590739250,1489457182.5614950657,       -0.7255859375,        0.0698242188,        0.0551757812,        0.5645751953,       -0.0305175781,        0.0305175781
1489457182.5617749691,1489457182.5641920567,       -0.7241210938,        0.0727539062,        0.0551757812,        0.5645751953,        3.8757324219,       -0.2136230469
1489457182.5644741058,1489457182.5668919086,       -0.7241210938,        0.0727539062,        0.0551757812,        0.3204345703,        0.1373291016,       -0.2136230469
1489457182.5671739578,1489457182.5696320534,       -0.7241210938,        0.0727539062,        0.0551757812,        0.3204345703,        0.1373291016,       -0.5187988281
1489457182.5699150562,1489457182.5723259449,       -0.7231445312,        0.0864257812,        0.0527343750,        0.7476806641,        0.0000000000,       -0.5187988281
1489457182.5726099014,1489457182.5750219822,       -0.7231445312,        0.0864257812,        0.0527343750,        0.7476806641,        0.0000000000,       -0.4730224609
1489457182.5753030777,1489457182.5777180195,       -0.7231445312,        0.0864257812,        0.0527343750,        1.7242431641,       -0.0457763672,       -0.4730224609
1489457182.5779991150,1489457182.5803940296,       -0.7231445312,        0.0864257812,        0.0527343750,        1.7242431641,       -0.0457763672,       -0.3662109375
1489457182.5806701183,1489457182.5829639435,       -0.7275390625,        0.0722656250,        0.0551757812,        1.5106201172,        0.1525878906,       -0.3662109375
1489457182.5832378864,1489457182.5856928825,       -0.7275390625,        0.0722656250,        0.0551757812,        1.5106201172,        0.1525878906,       -0.4119873047
1489457182.5859699249,1489457182.5882630348,       -0.7275390625,        0.0722656250,        0.0551757812,        1.4801025391,        0.1678466797,       -0.4119873047
1489457182.5885379314,1489457182.5912849903,       -0.7275390625,        0.0722656250,        0.0551757812,        1.4801025391,        0.1678466797,       -0.5035400391
1489457182.5915699005,1489457182.5939879417,       -0.7275390625,        0.0722656250,        0.0502929688,        1.4190673828,        0.2441406250,       -0.5035400391
1489457182.5942690372,1489457182.5966858864,       -0.7275390625,        0.0722656250,        0.0502929688,        1.4190673828,        0.2441406250,       -0.6866455078
1489457182.5969660282,1489457182.5994279385,       -0.7275390625,        0.0722656250,        0.0502929688,        1.3427734375,        0.1068115234,       -0.6866455078
1489457182.5997099876,1489457182.6021270752,       -0.7275390625,        0.0693359375,        0.0512695312,        1.3427734375,        0.1068115234,       -0.4730224609
1489457182.6024079323,1489457182.6048269272,       -0.7260742188,        0.0693359375,        0.0512695312,        0.8239746094,        0.0152587891,       -0.4730224609
1489457182.6051089764,1489457182.6075279713,       -0.7260742188,        0.0693359375,        0.0512695312,        0.8239746094,        0.0152587891,       -0.3204345703
1489457182.6078090668,1489457182.6102368832,       -0.7260742188,        0.0693359375,        0.0512695312,        0.5493164062,       -0.0305175781,       -0.3204345703
1489457182.6106228828,1489457182.6130409241,       -0.7294921875,        0.0678710938,        0.0483398438,        0.5493164062,       -0.0305175781,       -0.3814697266
1489457182.6133229733,1489457182.6157391071,       -0.7294921875,        0.0678710938,        0.0483398438,        0.2288818359,        0.3356933594,       -0.3814697266
1489457182.6160190105,1489457182.6184349060,       -0.7294921875,        0.0678710938,        0.0483398438,        0.2288818359,        0.3356933594,       -0.4577636719
1489457182.6187160015,1489457182.6210319996,       -0.7294921875,        0.0678710938,        0.0483398438,       -0.0915527344,        0.2288818359,       -0.4577636719
1489457182.6213068962,1489457182.6236009598,       -0.7333984375,        0.0717773438,        0.0517578125,       -0.0915527344,        0.2288818359,       -0.4577636719
1489457182.6238760948,1489457182.6261670589,       -0.7333984375,        0.0717773438,        0.0517578125,        0.5340576172,        0.2593994141,       -0.8239746094
1489457182.6264419556,1489457182.6287419796,       -0.7333984375,        0.0717773438,        0.0517578125,        0.5340576172,        0.2593994141,       -0.8239746094
1489457182.6290750504,1489457182.6313719749,       -0.7333984375,        0.0717773438,        0.0517578125,        0.8544921875,        0.2136230469,       -0.8392333984
1489457182.6316480637,1489457182.6339368820,       -0.7353515625,        0.0771484375,        0.0512695312,        0.8544921875,        0.2136230469,       -0.8392333984
1489457182.6342120171,1489457182.6365060806,       -0.7353515625,        0.0771484375,        0.0512695312,        0.8392333984,        0.1220703125,       -0.4119873047
1489457182.6367800236,1489457182.6391661167,       -0.7353515625,        0.0771484375,        0.0512695312,        0.8392333984,        0.1220703125,       -0.4119873047
1489457182.6394410133,1489457182.6418159008,       -0.7353515625,        0.0771484375,        0.0541992188,        0.3662109375,        0.7019042969,       -0.5187988281
1489457182.6420910358,1489457182.6443820000,       -0.7358398438,        0.0756835938,        0.0541992188,        0.3662109375,        0.7019042969,       -0.5187988281
1489457182.6446549892,1489457182.6469509602,       -0.7358398438,        0.0756835938,        0.0541992188,        0.8392333984,        0.9002685547,       -0.5187988281
1489457182.6472260952,1489457182.6496829987,       -0.7358398438,        0.0756835938,        0.0541992188,        0.8392333984,        0.9002685547,       -0.5187988281
1489457182.6499578953,1489457182.6522500515,       -0.7358398438,        0.0756835938,        0.0449218750,        1.3885498047,        0.1068115234,       -0.1678466797
1489457182.6525239944,1489457182.6548199654,       -0.7294921875,        0.0732421875,        0.0449218750,        1.3885498047,        0.1068115234,       -0.1678466797
1489457182.6550951004,1489457182.6573839188,       -0.7294921875,        0.0732421875,        0.0449218750,        1.1901855469,       -0.0610351562,       -0.0152587891
1489457182.6576590538,1489457182.6601669788,       -0.7294921875,        0.0732421875,        0.0449218750,        1.1901855469,       -0.0610351562,       -0.0152587891
1489457182.6604449749,1489457182.6628320217,       -0.7294921875,        0.0634765625,        0.0556640625,        1.0375976562,       -0.0305175781,        0.0000000000
1489457182.6631090641,1489457182.6659801006,       -0.7304687500,        0.0634765625,        0.0556640625,        1.0375976562,       -0.0305175781,        0.0000000000
1489457182.6662640572,1489457182.6686949730,       -0.7304687500,        0.0634765625,        0.0556640625,        0.9155273438,        0.3814697266,        0.1068115234
1489457182.6689779758,1489457182.6713960171,       -0.7304687500,        0.0634765625,        0.0556640625,        0.9155273438,        0.3814697266,        0.1068115234
1489457182.6716780663,1489457182.6740920544,       -0.7299804688,        0.0634765625,        0.0502929688,        1.0375976562,        0.0457763672,        0.1525878906
1489457182.6744830608,1489457182.6769061089,       -0.7299804688,        0.0634765625,        0.0502929688,        1.0375976562,        0.0457763672,        0.1525878906
1489457182.6771860123,1489457182.6796469688,       -0.7299804688,        0.0634765625,        0.0502929688,        1.0070800781,       -0.2593994141,        0.1831054688
1489457182.6799330711,1489457182.6823499203,       -0.7299804688,        0.0634765625,        0.0551757812,        1.0070800781,       -0.2593994141,        0.1831054688
1489457182.6826310158,1489457182.6850550175,       -0.7285156250,        0.0678710938,        0.0551757812,        0.7781982422,        0.0610351562,        0.4272460938
1489457182.6853380203,1489457182.6877539158,       -0.7285156250,        0.0678710938,        0.0551757812,        0.7781982422,        0.0610351562,        0.4272460938
1489457182.6880350113,1489457182.6904759407,       -0.7285156250,        0.0678710938,        0.0551757812,        0.3967285156,        0.2593994141,        0.3204345703
1489457182.6907560825,1489457182.6931700706,       -0.7285156250,        0.0717773438,        0.0532226562,        0.3967285156,        0.2593994141,        0.3204345703
1489457182.6934540272,1489457182.6958699226,       -0.7304687500,        0.0717773438,        0.0532226562,        0.4882812500,        0.3814697266,        0.4119873047
1489457182.6961519718,1489457182.6985819340,       -0.7304687500,        0.0717773438,        0.0532226562,        0.4882812500,        0.3814697266,        0.4119873047
1489457182.6988730431,1489457182.7011659145,       -0.7304687500,        0.0717773438,        0.0532226562,        1.1291503906,        0.2899169922,        0.3814697266
1489457182.7014400959,1489457182.7037310600,       -0.7358398438,        0.0668945312,        0.0512695312,        1.1291503906,        0.2899169922,        0.3814697266
1489457182.7040050030,1489457182.7063059807,       -0.7358398438,        0.0668945312,        0.0512695312,        0.9460449219,        0.2746582031,        0.7629394531
1489457182.7065780163,1489457182.7089979649,       -0.7358398438,        0.0668945312,        0.0512695312,        0.9460449219,        0.2746582031,        0.7629394531
1489457182.7092719078,1489457182.7115750313,       -0.7358398438,        0.0668945312,        0.0512695312,        0.9460449219,        0.0152587891,        0.6561279297
1489457182.7118489742,1489457182.7141449451,       -0.7338867188,        0.0791015625,        0.0561523438,        1.0833740234,        0.0152587891,        0.6561279297
1489457182.7144188881,1489457182.7167160511,       -0.7338867188,        0.0791015625,        0.0561523438,        1.0833740234,       -3.8909912109,        0.4882812500
1489457182.7169909477,1489457182.7193980217,       -0.7338867188,        0.0791015625,        0.0561523438,        1.0833740234,       -0.1068115234,        0.4882812500
1489457182.7196819782,1489457182.7220981121,       -0.7338867188,        0.0791015625,        0.0561523438,        1.0833740234,        3.7994384766,        0.5645751953
1489457182.7223799229,1489457182.7247910500,       -0.7333984375,        0.0693359375,        0.0454101562,        0.7934570312,        0.0610351562,        0.5645751953
1489457182.7250730991,1489457182.7274971008,       -0.7333984375,        0.0693359375,        0.0454101562,        0.7934570312,        0.0610351562,        0.4119873047
1489457182.7277779579,1489457182.7301769257,       -0.7333984375,        0.0693359375,        0.0454101562,        0.1831054688,        0.0000000000,        0.4119873047
1489457182.7304520607,1489457182.7327449322,       -0.7333984375,        0.0693359375,        0.0561523438,        0.1831054688,        0.0000000000,        0.4425048828
1489457182.7330191135,1489457182.7353138924,       -0.7260742188,        0.0722656250,        0.0561523438,       -0.1831054688,        0.4425048828,        0.4425048828
1489457182.7355890274,1489457182.7378809452,       -0.7260742188,        0.0722656250,        0.0561523438,       -0.1831054688,        0.4425048828,        0.4425048828
1489457182.7382640839,1489457182.7406919003,       -0.7260742188,        0.0722656250,        0.0561523438,       -0.1983642578,        0.3967285156,        0.5798339844
1489457182.7409749031,1489457182.7433910370,       -0.7260742188,        0.0747070312,        0.0522460938,       -0.1983642578,        0.3967285156,        0.5798339844
1489457182.7436718941,1489457182.7460870743,       -0.7241210938,        0.0747070312,        0.0522460938,       -0.1831054688,        0.3356933594,        0.2441406250
1489457182.7463710308,1489457182.7488329411,       -0.7241210938,        0.0747070312,        0.0522460938,       -0.1831054688,        0.3356933594,        0.2441406250
1489457182.7491168976,1489457182.7515358925,       -0.7241210938,        0.0747070312,        0.0522460938,       -0.2899169922,        0.4272460938,        0.3051757812
1489457182.7518179417,1489457182.7542400360,       -0.7304687500,        0.0683593750,        0.0541992188,       -0.2899169922,        0.4272460938,        0.3051757812
1489457182.7545208931,1489457182.7569389343,       -0.7304687500,        0.0683593750,        0.0541992188,        0.0762939453,        0.8087158203,        0.5493164062
1489457182.7572200298,1489457182.7596530914,       -0.7304687500,        0.0683593750,        0.0541992188,        0.0762939453,        0.8087158203,        0.5493164062
1489457182.7599349022,1489457182.7623600960,       -0.7304687500,        0.0683593750,        0.0541992188,        0.3509521484,        0.3509521484,        0.5950927734
1489457182.7626419067,1489457182.7650580406,       -0.7270507812,        0.0839843750,        0.0546875000,        0.3509521484,        0.3509521484,        0.5950927734
1489457182.7653410435,1489457182.7677569389,       -0.7270507812,        0.0839843750,        0.0546875000,        0.4730224609,        0.2593994141,        0.2899169922
1489457182.7680399418,1489457182.7704749107,       -0.7270507812,        0.0839843750,        0.0546875000,        0.4730224609,        0.2593994141,        0.2899169922
1489457182.7707579136,1489457182.7731781006,       -0.7270507812,        0.0839843750,        0.0522460938,        0.7324218750,        0.3356933594,        0.0152587891
1489457182.7734611034,1489457182.7759809494,       -0.7363281250,        0.0756835938,        0.0522460938,        0.7324218750,        0.3356933594,       -3.8909912109
1489457182.7762610912,1489457182.7786650658,       -0.7363281250,        0.0756835938,        0.0522460938,        0.8697509766,        0.7629394531,       -0.0457763672
1489457182.7793450356,1489457182.7816410065,       -0.7363281250,        0.0756835938,        0.0522460938,        0.8697509766,        0.7629394531,       -0.2288818359
1489457182.7819159031,1489457182.7842140198,       -0.7280273438,        0.0722656250,        0.0532226562,        1.3122558594,        0.6561279297,       -0.2288818359
1489457182.7844879627,1489457182.7867770195,       -0.7280273438,        0.0722656250,        0.0532226562,        1.3122558594,        0.6561279297,       -0.2288818359
1489457182.7870509624,1489457182.7893838882,       -0.7280273438,        0.0722656250,        0.0532226562,        1.0375976562,        0.4425048828,       -0.0762939453
1489457182.7896659374,1489457182.7920820713,       -0.7280273438,        0.0722656250,        0.0532226562,        1.0375976562,        0.4425048828,       -0.0762939453
1489457182.7923629284,1489457182.7947809696,       -0.7285156250,        0.0678710938,        0.0502929688,        0.7629394531,        0.5645751953,        0.0305175781
1489457182.7950620651,1489457182.7974810600,       -0.7285156250,        0.0678710938,        0.0502929688,        0.7629394531,        0.5645751953,        0.0305175781
1489457182.7977631092,1489457182.8001849651,       -0.7285156250,        0.0678710938,        0.0502929688,        0.7019042969,        0.5035400391,        0.0610351562
1489457182.8004670143,1489457182.8028869629,       -0.7285156250,        0.0678710938,        0.0502929688,        0.7019042969,        0.5035400391,        0.0610351562
1489457182.8032760620,1489457182.8057000637,       -0.7373046875,        0.0683593750,        0.0498046875,        0.5493164062,        0.4577636719,        0.0915527344
1489457182.8059821129,1489457182.8084011078,       -0.7373046875,        0.0683593750,        0.0498046875,        0.5493164062,        0.4577636719,        0.0915527344
1489457182.8086829185,1489457182.8110020161,       -0.7373046875,        0.0683593750,        0.0498046875,        0.5798339844,        0.5187988281,        0.0915527344
1489457182.8112781048,1489457182.8135700226,       -0.7373046875,        0.0683593750,        0.0488281250,        0.5798339844,        0.5187988281,        0.0915527344
1489457182.8138461113,1489457182.8161380291,       -0.7314453125,        0.0722656250,        0.0488281250,       -0.1525878906,        0.9765625000,       -0.0610351562
1489457182.8164119720,1489457182.8187139034,       -0.7314453125,        0.0722656250,        0.0488281250,       -0.1525878906,        0.9765625000,       -0.0610351562
1489457182.8190350533,1489457182.8213250637,       -0.7314453125,        0.0722656250,        0.0488281250,       -0.2441406250,        1.1444091797,        0.0000000000
1489457182.8215999603,1489457182.8238899708,       -0.7314453125,        0.0722656250,        0.0454101562,       -0.2441406250,        1.1444091797,        0.0000000000
1489457182.8241639137,1489457182.8264679909,       -0.7319335938,        0.0673828125,        0.0454101562,       -0.1220703125,        1.2969970703,        0.0305175781
1489457182.8267409801,1489457182.8291749954,       -0.7319335938,        0.0673828125,        0.0454101562,       -0.1220703125,        1.2969970703,        0.0305175781
1489457182.8294489384,1489457182.8317461014,       -0.7319335938,        0.0673828125,        0.0454101562,       -0.0457763672,        0.6103515625,        0.3814697266
1489457182.8320200443,1489457182.8343110085,       -0.7319335938,        0.0712890625,        0.0463867188,       -0.0457763672,        0.6103515625,        0.3814697266
1489457182.8345839977,1489457182.8368790150,       -0.7348632812,        0.0712890625,        0.0463867188,       -0.3509521484,        0.8697509766,        0.3051757812
1489457182.8371539116,1489457182.8399229050,       -0.7348632812,        0.0712890625,        0.0463867188,       -0.3509521484,        0.8697509766,        0.3051757812
1489457182.8402159214,1489457182.8436748981,       -0.7348632812,        0.0712890625,        0.0463867188,       -0.4272460938,        1.0681152344,        0.0762939453
1489457182.8439669609,1489457182.8471939564,       -0.7270507812,        0.0747070312,        0.0483398438,       -0.4272460938,        1.0681152344,        0.3967285156
1489457182.8474879265,1489457182.8502919674,       -0.7270507812,        0.0747070312,        0.0483398438,        0.0762939453,        0.7934570312,        0.3967285156
1489457182.8505830765,1489457182.8530020714,       -0.7270507812,        0.0747070312,        0.0483398438,        0.0762939453,        0.9002685547,        0.3356933594
1489457182.8532838821,1489457182.8557031155,       -0.7285156250,        0.0742187500,        0.0400390625,        0.3204345703,        0.9002685547,        0.3356933594
1489457182.8559849262,1489457182.8584020138,       -0.7285156250,        0.0742187500,        0.0400390625,        0.3204345703,        0.8697509766,        0.0152587891
1489457182.8586840630,1489457182.8611080647,       -0.7285156250,        0.0742187500,        0.0400390625,        0.6256103516,        0.8697509766,        0.0152587891
1489457182.8613910675,1489457182.8638141155,       -0.7285156250,        0.0742187500,        0.0400390625,        0.6256103516,        0.5798339844,        0.2746582031
1489457182.8640949726,1489457182.8665149212,       -0.7138671875,        0.0825195312,        0.0244140625,        1.1444091797,        0.5798339844,        0.2746582031
1489457182.8667979240,1489457182.8692259789,       -0.7138671875,        0.0825195312,        0.0244140625,        1.1444091797,        0.5798339844,        0.2136230469
1489457182.8696179390,1489457182.8720369339,       -0.7138671875,        0.0825195312,        0.0244140625,        1.0681152344,        0.8544921875,        0.2136230469
1489457182.8723180294,1489457182.8747370243,       -0.7138671875,        0.1040039062,        0.0073242188,        1.0681152344,        0.9613037109,        0.2746582031
1489457182.8750200272,1489457182.8774409294,       -0.7304687500,        0.1040039062,        0.0073242188,        1.4038085938,        0.9613037109,        0.2746582031
1489457182.8777229786,1489457182.8801479340,       -0.7304687500,        0.1040039062,        0.0073242188,        1.4038085938,        1.4801025391,        0.2136230469
1489457182.8804330826,1489457182.8828461170,       -0.7304687500,        0.1040039062,        0.0073242188,        2.3803710938,        1.4801025391,        0.2136230469
1489457182.8831279278,1489457182.8855459690,       -0.7416992188,        0.1137695312,        0.0190429688,        2.3803710938,        1.4801025391,       -0.5340576172
1489457182.8858270645,1489457182.8882420063,       -0.7416992188,        0.1137695312,        0.0190429688,        2.6245117188,        1.4953613281,       -0.5340576172
1489457182.8885240555,1489457182.8909559250,       -0.7416992188,        0.1137695312,        0.0190429688,        2.6245117188,        1.4953613281,       -0.5798339844
1489457182.8912379742,1489457182.8936579227,       -0.7416992188,        0.1137695312,        0.0190429688,        3.3721923828,        1.2664794922,       -0.5798339844
1489457182.8939390182,1489457182.8965420723,       -0.7524414062,        0.0859375000,        0.0332031250,        3.3721923828,        1.1138916016,       -0.6256103516
1489457182.8968250751,1489457182.8992400169,       -0.7524414062,        0.0859375000,        0.0332031250,        3.7536621094,        1.1138916016,       -0.6256103516
1489457182.8995590210,1489457182.9021151066,       -0.7524414062,        0.0859375000,        0.0332031250,        3.7536621094,        0.8239746094,       -0.5645751953
1489457182.9023990631,1489457182.9048230648,       -0.7524414062,        0.0815429688,        0.0512695312,        3.8452148438,        0.8239746094,       -0.5645751953
1489457182.9051070213,1489457182.9075279236,       -0.7358398438,        0.0815429688,        0.0512695312,        3.8452148438,        1.2817382812,       -0.4730224609
1489457182.9078090191,1489457182.9102320671,       -0.7358398438,        0.0815429688,        0.0512695312,        2.9907226562,        1.2817382812,       -0.4730224609
1489457182.9105141163,1489457182.9129319191,       -0.7358398438,        0.0815429688,        0.0512695312,        2.9907226562,        1.6784667969,       -0.7476806641
1489457182.9132130146,1489457182.9156329632,       -0.7231445312,        0.0830078125,        0.0629882812,        3.2653808594,        1.6784667969,       -0.7476806641
1489457182.9159140587,1489457182.9183290005,       -0.7231445312,        0.0830078125,        0.0629882812,        3.2653808594,        1.5258789062,       -1.0223388672
1489457182.9186110497,1489457182.9210400581,       -0.7231445312,        0.0830078125,        0.0629882812,        3.9062500000,        1.5258789062,       -1.0223388672
1489457182.9213209152,1489457182.9237380028,       -0.7231445312,        0.0830078125,        0.0629882812,        3.9062500000,        1.4190673828,       -0.7324218750
1489457182.9240200520,1489457182.9264359474,       -0.7001953125,        0.0751953125,        0.0576171875,        5.0811767578,        1.4190673828,       -0.7324218750
1489457182.9267160892,1489457182.9291379452,       -0.7001953125,        0.0751953125,        0.0576171875,        5.0811767578,        1.2054443359,       -0.4577636719
1489457182.9294109344,1489457182.9317030907,       -0.7001953125,        0.0751953125,        0.0576171875,        5.9509277344,        1.2054443359,       -0.4577636719
1489457182.9319779873,1489457182.9342780113,       -0.7001953125,        0.0751953125,        0.0576171875,        5.9509277344,        1.2054443359,       -0.2899169922
1489457182.9346590042,1489457182.9369459152,       -0.6997070312,        0.1083984375,        0.0507812500,        5.9967041016,        1.3275146484,       -0.2899169922
1489457182.9372200966,1489457182.9395179749,       -0.6997070312,        0.1083984375,        0.0507812500,        5.9967041016,        1.3275146484,       -0.1525878906
1489457182.9397931099,1489457182.9420919418,       -0.6997070312,        0.1083984375,        0.0507812500,        5.4016113281,        1.1749267578,       -0.1525878906
1489457182.9423670769,1489457182.9446570873,       -0.6997070312,        0.1083984375,        0.0170898438,        5.4016113281,        1.1749267578,       -0.1525878906
1489457182.9449310303,1489457182.9472219944,       -0.7290039062,        0.0878906250,        0.0170898438,        4.6081542969,        0.9918212891,       -0.1068115234
1489457182.9474980831,1489457182.9499390125,       -0.7290039062,        0.0878906250,        0.0170898438,        4.6081542969,        0.9918212891,       -0.1068115234
1489457182.9502139091,1489457182.9525051117,       -0.7290039062,        0.0878906250,        0.0170898438,        3.1127929688,        1.4343261719,        0.1831054688
1489457182.9527790546,1489457182.9550778866,       -0.7290039062,        0.0878906250,        0.0400390625,        3.1127929688,        1.4343261719,        0.1831054688
1489457182.9553511143,1489457182.9576420784,       -0.7270507812,        0.0864257812,        0.0400390625,        2.6855468750,        1.7089843750,        0.3204345703
1489457182.9579169750,1489457182.9603440762,       -0.7270507812,        0.0864257812,        0.0400390625,        2.6855468750,        1.7089843750,        0.3204345703
1489457182.9606180191,1489457182.9629070759,       -0.7270507812,        0.0864257812,        0.0400390625,        3.0364990234,        1.7852783203,        0.3814697266
1489457182.9631810188,1489457182.9654660225,       -0.7270507812,        0.0747070312,        0.0395507812,        3.0364990234,        1.7852783203,        0.3814697266
1489457182.9657399654,1489457182.9680271149,       -0.7402343750,        0.0747070312,        0.0395507812,        3.4332275391,        2.2430419922,        0.3204345703
1489457182.9683001041,1489457182.9708149433,       -0.7402343750,        0.0747070312,        0.0395507812,        3.4332275391,        2.2430419922,        0.3204345703
1489457182.9710888863,1489457182.9733760357,       -0.7402343750,        0.0747070312,        0.0395507812,        3.6926269531,        1.8310546875,        0.7934570312
1489457182.9736499786,1489457182.9759430885,       -0.7568359375,        0.0214843750,        0.0566406250,        3.6926269531,        1.8310546875,        0.7934570312
1489457182.9762160778,1489457182.9785029888,       -0.7568359375,        0.0214843750,        0.0566406250,        3.1585693359,        0.9002685547,        1.0070800781
1489457182.9787769318,1489457182.9811229706,       -0.7568359375,        0.0214843750,        0.0566406250,        3.1585693359,        0.9002685547,        1.0070800781
1489457182.9813981056,1489457182.9836900234,       -0.7568359375,        0.0214843750,        0.0566406250,        3.1585693359,        0.8239746094,        1.0070800781
1489457182.9839649200,1489457182.9862530231,       -0.7753906250,       -0.0146484375,        0.0747070312,        2.7923583984,        0.8239746094,        1.0070800781
1489457182.9865269661,1489457182.9888520241,       -0.7753906250,       -0.0146484375,        0.0747070312,        2.7923583984,        0.8239746094,        1.3275146484
1489457182.9891259670,1489457182.9914219379,       -0.7753906250,       -0.0146484375,        0.0747070312,        1.5563964844,        1.7700195312,        1.3275146484
1489457182.9916939735,1489457182.9939849377,       -0.7753906250,       -0.0146484375,        0.0747070312,        1.5563964844,        1.7700195312,        2.5787353516
1489457182.9942569733,1489457182.9965479374,       -0.7441406250,        0.0385742188,        0.0629882812,       -1.0223388672,        2.6855468750,        2.5787353516
1489457182.9969320297,1489457182.9993159771,       -0.7441406250,        0.0385742188,        0.0629882812,       -1.0223388672,        2.6855468750,        2.5787353516
1489457182.9995889664,1489457183.0018799305,       -0.7441406250,        0.0385742188,        0.0629882812,       -2.1667480469,        3.3569335938,        3.7994384766
1489457183.0021519661,1489457183.0044488907,       -0.7441406250,        0.0385742188,        0.0629882812,       -2.1667480469,        3.3569335938,        3.7994384766
1489457183.0047230721,1489457183.0070068836,       -0.7158203125,        0.0629882812,        0.0727539062,       -2.0141601562,        3.5705566406,        4.5623779297
1489457183.0072810650,1489457183.0096259117,       -0.7158203125,        0.0629882812,        0.0727539062,       -2.0141601562,        3.5705566406,        4.5623779297
1489457183.0098989010,1489457183.0121889114,       -0.7158203125,        0.0629882812,        0.0727539062,       -1.0833740234,        3.5400390625,        4.9438476562
1489457183.0124619007,1489457183.0147829056,       -0.7158203125,        0.0629882812,        0.0727539062,       -1.0833740234,        3.5400390625,        4.9438476562
1489457183.0151660442,1489457183.0174670219,       -0.7177734375,        0.0732421875,        0.0639648438,        0.2746582031,        3.4179687500,        4.7760009766
1489457183.0177431107,1489457183.0202629566,       -0.7177734375,        0.0732421875,        0.0639648438,        0.2746582031,        3.4179687500,        4.7760009766
1489457183.0205390453,1489457183.0228290558,       -0.7177734375,        0.0732421875,        0.0639648438,        2.0446777344,        3.5247802734,        5.5999755859
1489457183.0231020451,1489457183.0253970623,       -0.7177734375,        0.0732421875,        0.0590820312,        2.0446777344,        3.5247802734,        5.5999755859
1489457183.0256690979,1489457183.0279579163,       -0.7133789062,        0.0664062500,        0.0590820312,        3.0517578125,        4.0283203125,        6.5612792969
1489457183.0282289982,1489457183.0305700302,       -0.7133789062,        0.0664062500,        0.0590820312,        3.0517578125,        4.0283203125,        6.5612792969
1489457183.0308439732,1489457183.0331299305,       -0.7133789062,        0.0664062500,        0.0590820312,        3.7841796875,        4.1351318359,        7.5073242188
1489457183.0334041119,1489457183.0356938839,       -0.7133789062,        0.0664062500,        0.0649414062,        3.7841796875,        4.1351318359,        7.5073242188
1489457183.0359671116,1489457183.0382590294,       -0.7270507812,        0.0576171875,        0.0649414062,        7.6904296875,        3.9520263672,        8.2397460938
1489457183.0385329723,1489457183.0409119129,       -0.7270507812,        0.0576171875,        0.0649414062,        4.1046142578,        3.9520263672,        8.2397460938
1489457183.0411889553,1489457183.0434811115,       -0.7270507812,        0.0576171875,        0.0649414062,        4.1046142578,        3.4179687500,        8.4228515625
1489457183.0437550545,1489457183.0460429192,       -0.7270507812,        0.0180664062,        0.0590820312,        3.1738281250,        3.4179687500,        8.4228515625
1489457183.0463149548,1489457183.0486049652,       -0.7480468750,        0.0180664062,        0.0590820312,        3.1738281250,        3.4179687500,        9.0637207031
1489457183.0488629341,1489457183.0511569977,       -0.7480468750,        0.0180664062,        0.0590820312,        1.7852783203,        3.1890869141,        9.0637207031
1489457183.0514299870,1489457183.0537199974,       -0.7480468750,        0.0180664062,        0.0590820312,        1.7852783203,        3.1890869141,        9.0637207031
1489457183.0539939404,1489457183.0562820435,       -0.7480468750,        0.0219726562,        0.0747070312,        1.4190673828,        4.0435791016,        9.4757080078
1489457183.0565559864,1489457183.0588819981,       -0.7451171875,        0.0219726562,        0.0747070312,        1.4190673828,        4.0435791016,        9.4757080078
1489457183.0592610836,1489457183.0615470409,       -0.7451171875,        0.0219726562,        0.0747070312,        0.0762939453,        5.1116943359,       10.2691650391
1489457183.0618259907,1489457183.0641160011,       -0.7451171875,        0.0219726562,        0.0747070312,        0.0762939453,        5.1116943359,       10.2691650391
1489457183.0643939972,1489457183.0666790009,       -0.7441406250,        0.0771484375,        0.0771484375,       -0.6713867188,        5.6152343750,       11.1694335938
1489457183.0669589043,1489457183.0693969727,       -0.7441406250,        0.0771484375,        0.0771484375,       -0.6713867188,        5.6152343750,       11.1694335938
1489457183.0696749687,1489457183.0719699860,       -0.7441406250,        0.0771484375,        0.0771484375,       -0.7781982422,        6.1950683594,       11.9018554688
1489457183.0722498894,1489457183.0745398998,       -0.7441406250,        0.0771484375,        0.0771484375,       -0.7781982422,        6.1950683594,       11.9018554688
1489457183.0748178959,1489457183.0771040916,       -0.7583007812,        0.0805664062,        0.0703125000,       -0.4272460938,        5.8593750000,       12.2375488281
1489457183.0773820877,1489457183.0798470974,       -0.7583007812,        0.0805664062,        0.0703125000,       -0.4272460938,        5.8593750000,       12.2375488281
1489457183.0801339149,1489457183.0825140476,       -0.7583007812,        0.0805664062,        0.0703125000,        0.7171630859,        5.8593750000,       12.2070312500
1489457183.0827989578,1489457183.0851869583,       -0.7583007812,        0.0805664062,        0.0703125000,        0.7171630859,        5.8593750000,       12.2070312500
1489457183.0854699612,1489457183.0878539085,       -0.7504882812,        0.0615234375,        0.0629882812,        1.9378662109,        5.6915283203,       12.7868652344
1489457183.0881340504,1489457183.0905549526,       -0.7504882812,        0.0615234375,        0.0629882812,        1.9378662109,        5.6915283203,       12.7868652344
1489457183.0908401012,1489457183.0932610035,       -0.7504882812,        0.0615234375,        0.0629882812,        2.3956298828,        6.0882568359,       13.6718750000
1489457183.0935440063,1489457183.0959610939,       -0.7504882812,        0.0615234375,        0.0629882812,        2.3956298828,        6.0882568359,       13.6718750000
1489457183.0962450504,1489457183.0986640453,       -0.7480468750,        0.0458984375,        0.0698242188,        1.7242431641,        6.2103271484,       14.6484375000
1489457183.0989589691,1489457183.1013851166,       -0.7480468750,        0.0458984375,        0.0698242188,        1.7242431641,        6.2103271484,       14.6484375000
1489457183.1016678810,1489457183.1040918827,       -0.7480468750,        0.0458984375,        0.0698242188,       -0.0305175781,        6.5612792969,       15.8996582031
1489457183.1043760777,1489457183.1068038940,       -0.7480468750,        0.0312500000,        0.0620117188,       -0.0305175781,        6.5612792969,       15.8996582031
1489457183.1070899963,1489457183.1095149517,       -0.7456054688,        0.0312500000,        0.0620117188,       -0.4577636719,        6.7901611328,       17.9901123047
1489457183.1098029613,1489457183.1122190952,       -0.7456054688,        0.0312500000,        0.0620117188,       -0.4577636719,        6.7901611328,       17.9901123047
1489457183.1125059128,1489457183.1149320602,       -0.7456054688,        0.0312500000,        0.0620117188,       -1.0375976562,        7.0800781250,       19.8211669922
1489457183.1152169704,1489457183.1176431179,       -0.7465820312,        0.0180664062,        0.0551757812,       -1.0375976562,        7.0800781250,       19.8211669922
1489457183.1179258823,1489457183.1203529835,       -0.7465820312,        0.0180664062,        0.0551757812,       -1.3122558594,        7.2021484375,       22.1099853516
1489457183.1206378937,1489457183.1230609417,       -0.7465820312,        0.0180664062,        0.0551757812,       -1.3122558594,        7.2021484375,       22.1099853516
1489457183.1234469414,1489457183.1258659363,       -0.7465820312,        0.0180664062,        0.0551757812,       -1.7395019531,        7.7514648438,       24.4750976562
1489457183.1261489391,1489457183.1285719872,       -0.7377929688,        0.0112304688,        0.0620117188,       -1.7395019531,        7.7514648438,       24.4750976562
1489457183.1288669109,1489457183.1311559677,       -0.7377929688,        0.0112304688,        0.0620117188,       -2.3651123047,        8.0261230469,       27.2674560547
1489457183.1314330101,1489457183.1337239742,       -0.7377929688,        0.0112304688,        0.0620117188,       -2.3651123047,        8.0261230469,       27.2674560547
1489457183.1340010166,1489457183.1363739967,       -0.7377929688,        0.0112304688,        0.0620117188,       -2.4108886719,        7.9498291016,       30.0903320312
1489457183.1366550922,1489457183.1389610767,       -0.7480468750,        0.0073242188,        0.0498046875,       -2.4108886719,        7.9498291016,       30.0903320312
1489457183.1392500401,1489457183.1416718960,       -0.7480468750,        0.0073242188,        0.0498046875,       -2.4108886719,        6.8817138672,       33.4320068359
1489457183.1419589520,1489457183.1443729401,       -0.7480468750,        0.0073242188,        0.0498046875,       -2.5482177734,        6.8817138672,       33.4320068359
1489457183.1446590424,1489457183.1470699310,       -0.7480468750,       -0.1176757812,        0.0209960938,       -6.4544677734,        5.6610107422,       37.0941162109
1489457183.1473560333,1489457183.1497769356,       -0.7524414062,       -0.0585937500,        0.0209960938,       -4.8675537109,        5.6610107422,       37.0941162109
1489457183.1500630379,1489457183.1524760723,       -0.7524414062,       -0.0585937500,        0.0209960938,       -4.8675537109,        5.0964355469,       39.4592285156
1489457183.1527619362,1489457183.1552960873,       -0.7524414062,       -0.0585937500,        0.0209960938,       -5.7678222656,        5.0964355469,       39.4592285156
1489457183.1555800438,1489457183.1587789059,       -0.7832031250,       -0.0717773438,        0.0639648438,       -5.7678222656,        5.9967041016,       41.1224365234
1489457183.1591470242,1489457183.1614348888,       -0.7832031250,       -0.0717773438,        0.0639648438,       -5.1727294922,        5.9967041016,       41.1224365234
1489457183.1617109776,1489457183.1640019417,       -0.7832031250,       -0.0717773438,        0.0639648438,       -8.4533691406,        6.3018798828,       44.4641113281
1489457183.1642808914,1489457183.1665658951,       -0.7832031250,       -0.0717773438,        0.0639648438,       -8.4533691406,        6.3018798828,       44.4641113281
1489457183.1668460369,1489457183.1691370010,       -0.7778320312,        0.0458984375,        0.0761718750,      -10.3912353516,        6.4849853516,       46.8139648438
1489457183.1694231033,1489457183.1717178822,       -0.7778320312,        0.0458984375,        0.0761718750,      -10.3912353516,        6.4849853516,       46.8139648438
1489457183.1719999313,1489457183.1742889881,       -0.7778320312,        0.0458984375,        0.0761718750,      -10.3912353516,        6.0272216797,       48.3093261719
1489457183.1745688915,1489457183.1768629551,       -0.7778320312,        0.0458984375,        0.0488281250,      -10.4522705078,        6.0272216797,       48.3093261719
1489457183.1771440506,1489457183.1794629097,       -0.8056640625,        0.0859375000,        0.0488281250,      -10.4522705078,        6.0272216797,       50.3997802734
1489457183.1797440052,1489457183.1820330620,       -0.8056640625,        0.0859375000,        0.0488281250,       -9.1400146484,        5.9661865234,       50.3997802734
1489457183.1823110580,1489457183.1846048832,       -0.8056640625,        0.0859375000,        0.0488281250,       -9.1400146484,        5.9661865234,       51.8188476562
1489457183.1848831177,1489457183.1871769428,       -0.8056640625,        0.0859375000,        0.0361328125,       -5.4779052734,        5.9356689453,       51.8188476562
1489457183.1874530315,1489457183.1897931099,       -0.7983398438,        0.0883789062,        0.0361328125,       -5.4779052734,        5.9356689453,       51.8188476562
1489457183.1901800632,1489457183.1924719810,       -0.7983398438,        0.0883789062,        0.0361328125,       -2.3040771484,        6.7443847656,       53.2531738281
1489457183.1927509308,1489457183.1950368881,       -0.7983398438,        0.0883789062,        0.0361328125,       -2.3040771484,        6.7443847656,       53.2531738281
1489457183.1953148842,1489457183.1976099014,       -0.7983398438,        0.0815429688,        0.0166015625,        0.1068115234,        6.5155029297,       54.9011230469
1489457183.1978909969,1489457183.2003378868,       -0.7866210938,        0.0815429688,        0.0166015625,        0.1068115234,        6.5155029297,       54.9011230469
1489457183.2006180286,1489457183.2029149532,       -0.7866210938,        0.0815429688,        0.0166015625,        1.6174316406,        5.9051513672,       56.5948486328
1489457183.2031919956,1489457183.2054870129,       -0.7866210938,        0.0815429688,        0.0166015625,        1.6174316406,        5.9051513672,       56.5948486328
1489457183.2057640553,1489457183.2080540657,       -0.8276367188,        0.1005859375,        0.0112304688,        1.9226074219,        5.6610107422,       58.7768554688
1489457183.2083311081,1489457183.2108829021,       -0.8276367188,        0.1005859375,        0.0112304688,        1.9226074219,        5.6610107422,       58.7768554688
1489457183.2111699581,1489457183.2135879993,       -0.8276367188,        0.1005859375,        0.0112304688,        1.0986328125,        5.3863525391,       61.0504150391
1489457183.2138750553,1489457183.2162890434,       -0.8276367188,        0.1005859375,        0.0112304688,        1.0986328125,        5.3863525391,       61.0504150391
1489457183.2165749073,1489457183.2190339565,       -0.8779296875,        0.0756835938,        0.0131835938,        1.8768310547,        4.7607421875,       63.7969970703
1489457183.2193119526,1489457183.2216050625,       -0.8779296875,        0.0756835938,        0.0131835938,        1.8768310547,        4.7607421875,       63.7969970703
1489457183.2218799591,1489457183.2241730690,       -0.8779296875,        0.0756835938,        0.0131835938,        3.2806396484,        4.2266845703,       66.8334960938
1489457183.2244501114,1489457183.2267498970,       -0.8779296875,        0.0756835938,        0.0131835938,        3.2806396484,        4.2266845703,       66.8334960938
1489457183.2270269394,1489457183.2293570042,       -0.8896484375,        0.0712890625,        0.0234375000,        4.5318603516,        3.6468505859,       69.5495605469
1489457183.2296419144,1489457183.2320590019,       -0.8896484375,        0.0712890625,        0.0234375000,        4.5318603516,        3.6468505859,       69.5495605469
1489457183.2323439121,1489457183.2347669601,       -0.8896484375,        0.0712890625,        0.0234375000,        6.0424804688,        2.5329589844,       71.6552734375
1489457183.2350509167,1489457183.2374699116,       -0.8896484375,        0.0712890625,        0.0234375000,        6.0424804688,        2.5329589844,       71.6552734375
1489457183.2377541065,1489457183.2401759624,       -0.8969726562,        0.0942382812,        0.0463867188,        8.7738037109,        1.6632080078,       73.8067626953
1489457183.2404620647,1489457183.2428750992,       -0.8969726562,        0.0942382812,        0.0463867188,        8.7738037109,        1.6632080078,       73.8067626953
1489457183.2431609631,1489457183.2455780506,       -0.8969726562,        0.0942382812,        0.0463867188,       13.5955810547,        1.6174316406,       77.5451660156
1489457183.2458689213,1489457183.2482879162,       -0.8969726562,        0.1386718750,        0.0468750000,       13.5955810547,        1.6174316406,       77.5451660156
1489457183.2485780716,1489457183.2510430813,       -0.9218750000,        0.1386718750,        0.0468750000,       18.5852050781,        0.4577636719,       82.4737548828
1489457183.2513349056,1489457183.2537529469,       -0.9218750000,        0.1386718750,        0.0468750000,       18.5852050781,        0.4577636719,       82.4737548828
1489457183.2541511059,1489457183.2565729618,       -0.9218750000,        0.1386718750,        0.0468750000,       23.4527587891,       -2.3498535156,       86.0900878906
1489457183.2568631172,1489457183.2592918873,       -1.0639648438,        0.0405273438,        0.0742187500,       23.4527587891,       -2.3498535156,       86.0900878906
1489457183.2595798969,1489457183.2619988918,       -1.0639648438,        0.0405273438,        0.0742187500,       27.9846191406,       -3.0517578125,       88.6535644531
1489457183.2622859478,1489457183.2647039890,       -1.0639648438,        0.0405273438,        0.0742187500,       27.9846191406,       -3.0517578125,       88.6535644531
1489457183.2650010586,1489457183.2674570084,       -1.0639648438,        0.0405273438,        0.0742187500,       32.2418212891,       -2.3803710938,       92.3614501953
1489457183.2677450180,1489457183.2704100609,       -1.1518554688,        0.0053710938,        0.0322265625,       32.2418212891,       -2.3803710938,       92.3614501953
1489457183.2706940174,1489457183.2729849815,       -1.1518554688,        0.0053710938,        0.0322265625,       35.6292724609,       -2.5634765625,       95.9625244141
1489457183.2732660770,1489457183.2755649090,       -1.1518554688,        0.0053710938,        0.0322265625,       35.6292724609,       -2.5634765625,       95.9625244141
1489457183.2758460045,1489457183.2781369686,       -1.1518554688,        0.0053710938,        0.0942382812,       38.5131835938,       -2.5939941406,       98.7701416016
1489457183.2784180641,1489457183.2808539867,       -1.2182617188,        0.0307617188,        0.0942382812,       38.5131835938,       -2.5939941406,       98.7701416016
1489457183.2811419964,1489457183.2835650444,       -1.2182617188,        0.0307617188,        0.0942382812,       40.9851074219,       -2.4261474609,      101.1199951172
1489457183.2838530540,1489457183.2862720490,       -1.2182617188,        0.0307617188,        0.0942382812,       40.9851074219,       -2.4261474609,      101.1199951172
1489457183.2865610123,1489457183.2890160084,       -1.1982421875,       -0.0141601562,        0.1347656250,       41.3513183594,       -2.1514892578,      102.9815673828
1489457183.2893049717,1489457183.2917249203,       -1.1982421875,       -0.0141601562,        0.1347656250,       41.3513183594,       -2.1514892578,      102.9815673828
1489457183.2920129299,1489457183.2944340706,       -1.1982421875,       -0.0141601562,        0.1347656250,       37.9333496094,       -3.0975341797,      103.6071777344
1489457183.2947220802,1489457183.2971420288,       -1.1982421875,       -0.0141601562,        0.1347656250,       37.9333496094,       -3.0975341797,      103.6071777344
1489457183.2974300385,1489457183.2998120785,       -1.1240234375,        0.0688476562,        0.1806640625,       32.9742431641,       -4.8065185547,      104.2480468750
1489457183.3000938892,1489457183.3023869991,       -1.1240234375,        0.0688476562,        0.1806640625,       32.9742431641,       -4.8065185547,      104.2480468750
1489457183.3026680946,1489457183.3049631119,       -1.1240234375,        0.0688476562,        0.1806640625,       29.0679931641,       -6.4239501953,      105.6671142578
1489457183.3052439690,1489457183.3075311184,       -1.1240234375,        0.0688476562,        0.1806640625,       29.3426513672,       -6.4239501953,      105.6671142578
1489457183.3078129292,1489457183.3101100922,       -1.1381835938,        0.2495117188,        0.2143554688,       29.3426513672,      -10.3302001953,      105.6671142578
1489457183.3103950024,1489457183.3126931190,       -1.1381835938,        0.2495117188,        0.2143554688,       26.6723632812,       -8.6212158203,      105.6671142578
1489457183.3129739761,1489457183.3152658939,       -1.1381835938,        0.2495117188,        0.2143554688,       26.6723632812,       -8.6212158203,      104.6447753906
1489457183.3155469894,1489457183.3178400993,       -1.1381835938,        0.2495117188,        0.2143554688,       26.5045166016,      -10.4064941406,      104.6447753906
1489457183.3182320595,1489457183.3206810951,       -1.1625976562,        0.2973632812,        0.1904296875,       26.5045166016,      -10.4064941406,      103.8360595703
1489457183.3209679127,1489457183.3232550621,       -1.1625976562,        0.2973632812,        0.1904296875,       30.1513671875,       -9.3536376953,      103.8360595703
1489457183.3235359192,1489457183.3258349895,       -1.1625976562,        0.2973632812,        0.1904296875,       30.1513671875,       -9.3536376953,      103.8360595703
1489457183.3261148930,1489457183.3284080029,       -1.1625976562,        0.2973632812,        0.1435546875,       36.8957519531,       -8.4228515625,      104.6447753906
1489457183.3286890984,1489457183.3311870098,       -1.1005859375,        0.3491210938,        0.1435546875,       36.8957519531,       -8.4228515625,      104.6447753906
1489457183.3314759731,1489457183.3338999748,       -1.1005859375,        0.3491210938,        0.1435546875,       43.4112548828,       -9.6435546875,      105.2551269531
1489457183.3341879845,1489457183.3366019726,       -1.1005859375,        0.3491210938,        0.1435546875,       43.4112548828,       -9.6435546875,      105.2551269531
1489457183.3368899822,1489457183.3393220901,       -1.1005859375,        0.1962890625,        0.1933593750,       47.2106933594,      -11.0626220703,      102.8289794922
1489457183.3396139145,1489457183.3420310020,       -1.0732421875,        0.1962890625,        0.1933593750,       47.2106933594,      -11.0626220703,      102.8289794922
1489457183.3423221111,1489457183.3447349072,       -1.0732421875,        0.1962890625,        0.1933593750,       49.4079589844,       -9.9029541016,       97.3815917969
1489457183.3450250626,1489457183.3474390507,       -1.0732421875,        0.1962890625,        0.1933593750,       49.4079589844,       -9.9029541016,       97.3815917969
1489457183.3477270603,1489457183.3501551151,       -1.0156250000,        0.2006835938,        0.1723632812,       52.5360107422,       -8.8806152344,       93.0023193359
1489457183.3504450321,1489457183.3528599739,       -1.0156250000,        0.2006835938,        0.1723632812,       52.5360107422,       -8.8806152344,       93.0023193359
1489457183.3531498909,1489457183.3555679321,       -1.0156250000,        0.2006835938,        0.1723632812,       55.0079345703,       -9.4909667969,       90.1184082031
1489457183.3558568954,1489457183.3582720757,       -1.0156250000,        0.2006835938,        0.1723632812,       55.0079345703,       -9.4909667969,       90.1184082031
1489457183.3585610390,1489457183.3609960079,       -0.9448242188,        0.2490234375,        0.1352539062,       54.3670654297,       -9.8419189453,       87.1582031250
1489457183.3612849712,1489457183.3636980057,       -0.9448242188,        0.2490234375,        0.1352539062,       54.3670654297,       -9.8419189453,       87.1582031250
1489457183.3639879227,1489457183.3664040565,       -0.9448242188,        0.2490234375,        0.1352539062,       52.4902343750,       -9.7503662109,       83.8928222656
1489457183.3666939735,1489457183.3691248894,       -0.9448242188,        0.2490234375,        0.1196289062,       52.4902343750,       -9.7503662109,       83.8928222656
1489457183.3694150448,1489457183.3718299866,       -0.9165039062,        0.2207031250,        0.1196289062,       50.4608154297,       -9.9029541016,       80.2154541016
1489457183.3721210957,1489457183.3745379448,       -0.9165039062,        0.2207031250,        0.1196289062,       50.4608154297,       -9.9029541016,       80.2154541016
1489457183.3748281002,1489457183.3772521019,       -0.9165039062,        0.2207031250,        0.1196289062,       48.3551025391,       -9.7656250000,       76.1718750000
1489457183.3775420189,1489457183.3799760342,       -0.8886718750,        0.2104492188,        0.1005859375,       48.3551025391,       -9.7656250000,       76.1718750000
1489457183.3802680969,1489457183.3826899529,       -0.8886718750,        0.2104492188,        0.1005859375,       45.4711914062,       -8.8043212891,       72.0520019531
1489457183.3830900192,1489457183.3855900764,       -0.8886718750,        0.2104492188,        0.1005859375,       45.4711914062,       -8.8043212891,       72.0520019531
1489457183.3858840466,1489457183.3882920742,       -0.8886718750,        0.2104492188,        0.1005859375,       43.3502197266,       -8.6822509766,       67.8863525391
1489457183.3889999390,1489457183.3914270401,       -0.8442382812,        0.1884765625,        0.0610351562,       43.3502197266,       -8.6822509766,       64.1326904297
1489457183.3917210102,1489457183.3941400051,       -0.8442382812,        0.1884765625,        0.0610351562,       40.5426025391,       -9.2773437500,       64.1326904297
1489457183.3944299221,1489457183.3968598843,       -0.8442382812,        0.1884765625,        0.0610351562,       40.5426025391,       -9.2773437500,       60.0433349609
1489457183.3971478939,1489457183.3995709419,       -0.8442382812,        0.1665039062,        0.0283203125,       36.5600585938,       -9.6740722656,       60.0433349609
1489457183.3998610973,1489457183.4022750854,       -0.8286132812,        0.1665039062,        0.0283203125,       36.5600585938,       -9.6740722656,       56.0455322266
1489457183.4025640488,1489457183.4049849510,       -0.8286132812,        0.1665039062,        0.0283203125,       32.0587158203,       -9.6740722656,       56.0455322266
1489457183.4052751064,1489457183.4076869488,       -0.8286132812,        0.1665039062,        0.0283203125,       32.0587158203,       -9.6740722656,       52.3529052734
1489457183.4079771042,1489457183.4104390144,       -0.8115234375,        0.1328125000,        0.0136718750,       26.4892578125,       -9.5367431641,       52.3529052734
1489457183.4107298851,1489457183.4131491184,       -0.8115234375,        0.1328125000,        0.0136718750,       26.4892578125,       -9.5367431641,       48.9196777344
1489457183.4134380817,1489457183.4158599377,       -0.8115234375,        0.1328125000,        0.0136718750,       20.2026367188,       -9.5214843750,       48.9196777344
1489457183.4161500931,1489457183.4185729027,       -0.8115234375,        0.1328125000,        0.0136718750,       20.2026367188,       -9.5214843750,       44.8150634766
1489457183.4188749790,1489457183.4211640358,       -0.8095703125,        0.0634765625,       -0.0156250000,       13.0157470703,       -8.6364746094,       44.8150634766
1489457183.4214479923,1489457183.4237399101,       -0.8095703125,        0.0634765625,       -0.0156250000,       13.0157470703,       -8.6364746094,       44.8150634766
1489457183.4240229130,1489457183.4263260365,       -0.8095703125,        0.0634765625,       -0.0156250000,        4.8675537109,       -8.3160400391,       41.1224365234
1489457183.4266040325,1489457183.4289090633,       -0.8095703125,        0.0634765625,       -0.0156250000,        4.8675537109,       -8.3160400391,       41.1224365234
1489457183.4291899204,1489457183.4314870834,       -0.8090820312,        0.0532226562,       -0.0278320312,       -3.4942626953,       -7.7819824219,       36.8347167969
1489457183.4317650795,1489457183.4340629578,       -0.8090820312,        0.0532226562,       -0.0278320312,       -3.4942626953,       -7.7819824219,       36.8347167969
1489457183.4343409538,1489457183.4366350174,       -0.8090820312,        0.0532226562,       -0.0278320312,      -12.2833251953,       -7.7362060547,       32.3638916016
1489457183.4369161129,1489457183.4393649101,       -0.8090820312,        0.0532226562,       -0.0278320312,      -12.2833251953,       -7.7362060547,       32.3638916016
1489457183.4396469593,1489457183.4419391155,       -0.7729492188,        0.0703125000,       -0.0273437500,      -20.7977294922,       -7.6293945312,       27.5268554688
1489457183.4422199726,1489457183.4445109367,       -0.7729492188,        0.0703125000,       -0.0273437500,      -20.7977294922,       -7.6293945312,       27.5268554688
1489457183.4447910786,1489457183.4470911026,       -0.7729492188,        0.0703125000,       -0.0273437500,      -27.2521972656,       -7.1563720703,       22.2778320312
1489457183.4474840164,1489457183.4499719143,       -0.7729492188,        0.0703125000,        0.0024414062,      -27.2521972656,       -7.1563720703,       22.2778320312
1489457183.4502639771,1489457183.4526839256,       -0.7631835938,        0.1049804688,        0.0024414062,      -30.6396484375,       -6.1645507812,       17.7764892578
1489457183.4529750347,1489457183.4553959370,       -0.7631835938,        0.1049804688,        0.0024414062,      -30.6396484375,       -6.1645507812,       17.7764892578
1489457183.4556849003,1489457183.4581050873,       -0.7631835938,        0.1049804688,        0.0024414062,      -32.7148437500,       -5.6152343750,       13.0615234375
1489457183.4583950043,1489457183.4608590603,       -0.7114257812,        0.0834960938,       -0.0078125000,      -32.7148437500,       -5.6152343750,       13.0615234375
1489457183.4611508846,1489457183.4635629654,       -0.7114257812,        0.0834960938,       -0.0078125000,      -35.1104736328,       -5.6762695312,        7.1105957031
1489457183.4638509750,1489457183.4662690163,       -0.7114257812,        0.0834960938,       -0.0078125000,      -35.1104736328,       -5.6762695312,        7.1105957031
1489457183.4665551186,1489457183.4690148830,       -0.7114257812,        0.0834960938,       -0.0078125000,      -37.6892089844,       -5.5389404297,        0.9155273438
1489457183.4692950249,1489457183.4715828896,       -0.6352539062,        0.0429687500,       -0.0039062500,      -37.6892089844,       -5.5389404297,        0.9155273438
1489457183.4718630314,1489457183.4741559029,       -0.6352539062,        0.0429687500,       -0.0039062500,      -40.3442382812,       -4.6691894531,       -5.7525634766
1489457183.4744338989,1489457183.4767301083,       -0.6352539062,        0.0429687500,       -0.0039062500,      -40.3442382812,       -4.6691894531,       -5.7525634766
1489457183.4770090580,1489457183.4793410301,       -0.6352539062,        0.0429687500,       -0.0039062500,      -42.1752929688,       -4.1809082031,      -12.4664306641
1489457183.4796330929,1489457183.4820530415,       -0.5644531250,        0.0571289062,       -0.0253906250,      -42.1752929688,       -4.1809082031,      -12.4664306641
1489457183.4823420048,1489457183.4847600460,       -0.5644531250,        0.0571289062,       -0.0253906250,      -43.8537597656,       -3.9672851562,      -19.1192626953
1489457183.4850490093,1489457183.4874680042,       -0.5644531250,        0.0571289062,       -0.0253906250,      -43.8537597656,       -3.9672851562,      -19.1192626953
1489457183.4877560139,1489457183.4901800156,       -0.5644531250,        0.0571289062,       -0.0083007812,      -43.8537597656,       -3.3416748047,      -26.2756347656
1489457183.4904699326,1489457183.4928851128,       -0.5078125000,        0.0883789062,       -0.0083007812,      -45.6695556641,       -3.3416748047,      -26.2756347656
1489457183.4931750298,1489457183.4955959320,       -0.5078125000,        0.0883789062,       -0.0083007812,      -45.6695556641,       -1.9836425781,      -33.2336425781
1489457183.4958870411,1489457183.4983129501,       -0.5078125000,        0.0883789062,       -0.0083007812,      -46.5698242188,       -1.9836425781,      -33.2336425781
1489457183.4986019135,1489457183.5010540485,       -0.4682617188,        0.0844726562,       -0.0219726562,      -46.5698242188,       -1.4190673828,      -40.9240722656
1489457183.5013411045,1489457183.5037620068,       -0.4682617188,        0.0844726562,       -0.0219726562,      -46.4172363281,       -1.4190673828,      -40.9240722656
1489457183.5040519238,1489457183.5065999031,       -0.4682617188,        0.0844726562,       -0.0219726562,      -46.4324951172,       -0.8087158203,      -47.9278564453
1489457183.5068919659,1489457183.5096259117,       -0.4682617188,        0.0844726562,       -0.0219726562,      -46.4324951172,       -0.8087158203,      -47.9278564453
1489457183.5099189281,1489457183.5123438835,       -0.4428710938,        0.1054687500,        0.0004882812,      -46.2036132812,       -0.2288818359,      -54.4433593750
1489457183.5127439499,1489457183.5151638985,       -0.4428710938,        0.1054687500,        0.0004882812,      -46.2036132812,       -0.2288818359,      -54.4433593750
1489457183.5154550076,1489457183.5178730488,       -0.4428710938,        0.1054687500,        0.0004882812,      -44.6166992188,        0.3356933594,      -61.0351562500
1489457183.5181639194,1489457183.5204908848,       -0.4428710938,        0.2304687500,        0.0102539062,      -44.6166992188,        0.3356933594,      -61.0351562500
1489457183.5207750797,1489457183.5230669975,       -0.4179687500,        0.1357421875,        0.0102539062,      -42.4194335938,        0.5035400391,      -67.5201416016
1489457183.5233500004,1489457183.5256440639,       -0.4179687500,        0.1357421875,        0.0102539062,      -42.4194335938,        0.5035400391,      -67.5201416016
1489457183.5259261131,1489457183.5282199383,       -0.4179687500,        0.1357421875,        0.0102539062,      -42.4194335938,        0.9307861328,      -73.2116699219
1489457183.5285029411,1489457183.5309140682,       -0.4179687500,        0.1396484375,        0.0166015625,      -41.0614013672,        0.9307861328,      -73.2116699219
1489457183.5312049389,1489457183.5336289406,       -0.4331054688,        0.1396484375,        0.0166015625,      -41.0614013672,        0.9460449219,      -78.1097412109
1489457183.5339200497,1489457183.5363349915,       -0.4331054688,        0.1396484375,        0.0166015625,      -40.4052734375,        0.9460449219,      -78.1097412109
1489457183.5366261005,1489457183.5390439034,       -0.4331054688,        0.1396484375,        0.0166015625,      -40.4052734375,        0.8239746094,      -82.9467773438
1489457183.5393290520,1489457183.5416200161,       -0.4311523438,        0.1640625000,       -0.0043945312,      -40.3594970703,        0.8239746094,      -82.9467773438
1489457183.5419061184,1489457183.5441958904,       -0.4311523438,        0.1640625000,       -0.0043945312,      -40.3594970703,        0.8239746094,      -87.8448486328
1489457183.5444788933,1489457183.5467779636,       -0.4311523438,        0.1640625000,       -0.0043945312,      -40.0238037109,        1.4190673828,      -87.8448486328
1489457183.5470600128,1489457183.5494070053,       -0.4311523438,        0.1640625000,       -0.0043945312,      -40.0238037109,        1.4190673828,      -91.7510986328
1489457183.5496909618,1489457183.5519878864,       -0.4345703125,        0.1547851562,       -0.0170898438,      -39.7644042969,        1.4343261719,      -91.7510986328
1489457183.5522699356,1489457183.5545680523,       -0.4345703125,        0.1547851562,       -0.0170898438,      -39.7644042969,        1.4343261719,      -95.6573486328
1489457183.5548510551,1489457183.5571410656,       -0.4345703125,        0.1547851562,       -0.0170898438,      -39.7644042969,        1.7395019531,      -95.3369140625
1489457183.5574250221,1489457183.5597779751,       -0.4345703125,        0.1547851562,       -0.0170898438,      -39.7644042969,        1.7395019531,      -95.3369140625
1489457183.5600619316,1489457183.5623550415,       -0.4296875000,        0.1748046875,       -0.0468750000,      -41.1071777344,        2.2888183594,      -99.0295410156
1489457183.5626370907,1489457183.5649309158,       -0.4296875000,        0.1748046875,       -0.0468750000,      -41.1071777344,        2.2888183594,      -99.0295410156
1489457183.5652129650,1489457183.5675098896,       -0.4296875000,        0.1748046875,       -0.0468750000,      -42.5872802734,        2.5482177734,     -102.7526855469
1489457183.5677909851,1489457183.5701699257,       -0.4296875000,        0.1748046875,       -0.0468750000,      -42.5872802734,        2.5482177734,     -102.7526855469
1489457183.5704550743,1489457183.5727479458,       -0.4257812500,        0.1816406250,       -0.0615234375,      -44.3267822266,        3.4637451172,     -105.1635742188
1489457183.5730319023,1489457183.5753231049,       -0.4257812500,        0.1816406250,       -0.0615234375,      -44.3267822266,        3.4637451172,     -105.1635742188
1489457183.5757119656,1489457183.5780019760,       -0.4257812500,        0.1816406250,       -0.0615234375,      -46.2341308594,        4.5013427734,     -106.6436767578
1489457183.5782840252,1489457183.5806899071,       -0.4257812500,        0.1816406250,       -0.0615234375,      -46.2341308594,        4.5013427734,     -106.6436767578
1489457183.5809819698,1489457183.5833969116,       -0.4243164062,        0.2192382812,       -0.0527343750,      -48.4771728516,        6.3171386719,     -108.7646484375
1489457183.5836849213,1489457183.5861051083,       -0.4243164062,        0.2192382812,       -0.0527343750,      -48.4771728516,        6.3171386719,     -108.7646484375
1489457183.5863940716,1489457183.5888519287,       -0.4243164062,        0.2192382812,       -0.0527343750,      -49.1638183594,        8.0108642578,     -109.7259521484
1489457183.5891430378,1489457183.5915620327,       -0.4243164062,        0.2446289062,       -0.0429687500,      -49.1638183594,        8.0108642578,     -109.7259521484
1489457183.5918519497,1489457183.5942668915,       -0.4086914062,        0.2446289062,       -0.0429687500,      -49.3011474609,        9.0026855469,     -110.3210449219
1489457183.5945580006,1489457183.5969719887,       -0.4086914062,        0.2446289062,       -0.0429687500,      -49.3011474609,        9.0026855469,     -110.3210449219
1489457183.5972630978,1489457183.5996949673,       -0.4086914062,        0.2446289062,       -0.0429687500,      -49.2858886719,       10.7727050781,     -110.6872558594
1489457183.5999879837,1489457183.6024138927,       -0.4106445312,        0.2763671875,       -0.0585937500,      -49.2858886719,       10.7727050781,     -110.6872558594
1489457183.6027081013,1489457183.6051239967,       -0.4106445312,        0.2763671875,       -0.0585937500,      -48.5229492188,       12.9852294922,     -110.5346679688
1489457183.6054170132,1489457183.6078300476,       -0.4106445312,        0.2763671875,       -0.0585937500,      -48.5229492188,       12.9852294922,     -110.5346679688
1489457183.6081221104,1489457183.6105549335,       -0.4106445312,        0.2763671875,       -0.0585937500,      -48.5382080078,       14.8468017578,     -109.7564697266
1489457183.6108469963,1489457183.6132590771,       -0.4077148438,        0.3105468750,       -0.0664062500,      -48.5382080078,       14.8468017578,     -109.7564697266
1489457183.6135520935,1489457183.6159689426,       -0.4077148438,        0.3105468750,       -0.0664062500,      -48.8128662109,       16.1590576172,     -108.6578369141
1489457183.6162650585,1489457183.6186850071,       -0.4077148438,        0.3105468750,       -0.0664062500,      -48.8128662109,       16.1590576172,     -108.6578369141
1489457183.6189830303,1489457183.6212770939,       -0.4077148438,        0.3105468750,       -0.0571289062,      -48.9501953125,       17.4102783203,     -107.3760986328
1489457183.6215620041,1489457183.6238598824,       -0.4243164062,        0.3237304688,       -0.0571289062,      -48.9501953125,       17.4102783203,     -107.3760986328
1489457183.6241450310,1489457183.6265249252,       -0.4243164062,        0.3237304688,       -0.0571289062,      -48.1262207031,       19.3939208984,     -106.2011718750
1489457183.6268129349,1489457183.6294798851,       -0.4243164062,        0.3237304688,       -0.0571289062,      -48.1262207031,       19.3939208984,     -106.2011718750
1489457183.6297769547,1489457183.6321980953,       -0.4375000000,        0.3569335938,       -0.0410156250,      -46.6918945312,       21.1791992188,     -104.5074462891
1489457183.6324949265,1489457183.6349050999,       -0.4375000000,        0.3569335938,       -0.0410156250,      -46.6918945312,       21.1791992188,     -104.5074462891
1489457183.6352000237,1489457183.6376190186,       -0.4375000000,        0.3569335938,       -0.0410156250,      -44.4946289062,       22.3083496094,     -102.4627685547
1489457183.6379120350,1489457183.6403429508,       -0.4375000000,        0.3569335938,       -0.0410156250,      -44.4946289062,       22.3083496094,     -102.4627685547
1489457183.6407430172,1489457183.6431610584,       -0.4291992188,        0.3784179688,       -0.0405273438,      -42.6788330078,       23.4222412109,     -100.3265380859
1489457183.6434528828,1489457183.6458780766,       -0.4291992188,        0.3784179688,       -0.0405273438,      -42.6788330078,       23.4222412109,     -100.3265380859
1489457183.6461720467,1489457183.6485860348,       -0.4291992188,        0.3784179688,       -0.0405273438,      -41.5802001953,       24.7497558594,      -97.7325439453
1489457183.6488881111,1489457183.6513080597,       -0.4291992188,        0.3784179688,       -0.0405273438,      -41.5802001953,       24.7497558594,      -97.7325439453
1489457183.6515989304,1489457183.6540100574,       -0.4291992188,        0.3925781250,       -0.0336914062,      -39.5050048828,       25.6347656250,      -95.2453613281
1489457183.6543018818,1489457183.6567189693,       -0.4291992188,        0.3925781250,       -0.0336914062,      -39.5050048828,       25.6347656250,      -95.2453613281
1489457183.6570119858,1489457183.6594150066,       -0.4291992188,        0.3925781250,       -0.0336914062,      -38.6810302734,       26.0772705078,      -92.1020507812
1489457183.6597020626,1489457183.6619899273,       -0.4291992188,        0.3671875000,       -0.0170898438,      -38.6810302734,       26.0772705078,      -92.1020507812
1489457183.6622760296,1489457183.6645650864,       -0.4111328125,        0.3671875000,       -0.0170898438,      -38.4216308594,       26.0009765625,      -88.6230468750
1489457183.6648490429,1489457183.6671459675,       -0.4111328125,        0.3671875000,       -0.0170898438,      -38.4216308594,       26.0009765625,      -88.6230468750
1489457183.6674311161,1489457183.6697258949,       -0.4111328125,        0.3671875000,       -0.0170898438,      -42.3278808594,       25.2990722656,      -85.1593017578
1489457183.6700110435,1489457183.6723101139,       -0.4111328125,        0.4096679688,       -0.0122070312,      -39.8712158203,       25.2990722656,      -85.1593017578
1489457183.6725959778,1489457183.6748859882,       -0.4096679688,        0.4096679688,       -0.0122070312,      -39.8712158203,       25.2990722656,      -81.1462402344
1489457183.6751708984,1489457183.6774640083,       -0.4096679688,        0.4096679688,       -0.0122070312,      -42.0074462891,       24.9328613281,      -81.1462402344
1489457183.6777489185,1489457183.6801359653,       -0.4096679688,        0.4096679688,       -0.0122070312,      -42.0074462891,       24.9328613281,      -76.1566162109
1489457183.6804239750,1489457183.6827120781,       -0.3901367188,        0.4462890625,       -0.0180664062,      -43.6248779297,       25.4058837891,      -76.1566162109
1489457183.6830000877,1489457183.6852929592,       -0.3901367188,        0.4462890625,       -0.0180664062,      -43.6248779297,       25.4058837891,      -72.2503662109
1489457183.6855781078,1489457183.6878759861,       -0.3901367188,        0.4462890625,       -0.0180664062,      -44.7082519531,       24.5666503906,      -71.0296630859
1489457183.6881599426,1489457183.6906969547,       -0.3901367188,        0.4462890625,       -0.0180664062,      -44.7082519531,       24.5666503906,      -67.1234130859
1489457183.6909909248,1489457183.6934099197,       -0.4204101562,        0.4931640625,        0.0078125000,      -46.9207763672,       23.5290527344,      -66.7114257812
1489457183.6937029362,1489457183.6961219311,       -0.4204101562,        0.4931640625,        0.0078125000,      -46.9207763672,       23.5290527344,      -58.8989257812
1489457183.6964170933,1489457183.6988420486,       -0.4204101562,        0.4931640625,        0.0078125000,      -47.5921630859,       23.6358642578,      -61.8591308594
1489457183.6991350651,1489457183.7015509605,       -0.4204101562,        0.4931640625,        0.0078125000,      -47.5921630859,       23.6358642578,      -57.9528808594
1489457183.7018449306,1489457183.7042520046,       -0.4306640625,        0.6005859375,       -0.0112304688,      -46.9665527344,       24.8718261719,      -56.4727783203
1489457183.7046499252,1489457183.7070679665,       -0.4306640625,        0.6005859375,       -0.0112304688,      -46.9665527344,       24.8718261719,      -48.6602783203
1489457183.7073600292,1489457183.7098259926,       -0.4306640625,        0.6005859375,       -0.0112304688,      -44.5861816406,       25.3753662109,      -50.3082275391
1489457183.7101180553,1489457183.7125360966,       -0.4306640625,        0.6577148438,       -0.0092773438,      -44.5861816406,       25.3753662109,      -46.4019775391
1489457183.7128279209,1489457183.7152500153,       -0.4326171875,        0.6577148438,       -0.0092773438,      -41.2292480469,       23.4222412109,      -43.5333251953
1489457183.7155470848,1489457183.7179570198,       -0.4326171875,        0.6577148438,       -0.0092773438,      -41.2292480469,       23.4222412109,      -35.7208251953
1489457183.7182478905,1489457183.7205851078,       -0.4326171875,        0.6577148438,       -0.0092773438,      -39.2913818359,       21.8048095703,      -36.9720458984
1489457183.7208719254,1489457183.7231669426,       -0.5034179688,        0.6059570312,        0.0400390625,      -39.2913818359,       21.8048095703,      -36.9720458984
1489457183.7234520912,1489457183.7257440090,       -0.5034179688,        0.6059570312,        0.0400390625,      -38.4063720703,       22.3236083984,      -30.9143066406
1489457183.7260289192,1489457183.7283198833,       -0.5034179688,        0.6059570312,        0.0400390625,      -38.4063720703,       22.3236083984,      -30.9143066406
1489457183.7286040783,1489457183.7310740948,       -0.5034179688,        0.6059570312,        0.0400390625,      -37.6586914062,       23.2696533203,      -24.8107910156
1489457183.7313659191,1489457183.7337839603,       -0.5605468750,        0.4912109375,        0.0307617188,      -37.6586914062,       23.2696533203,      -24.8107910156
1489457183.7340769768,1489457183.7365019321,       -0.5605468750,        0.4912109375,        0.0307617188,      -38.3453369141,       23.0407714844,      -19.2871093750
1489457183.7367949486,1489457183.7392559052,       -0.5605468750,        0.4912109375,        0.0307617188,      -38.3453369141,       23.0407714844,      -19.2871093750
1489457183.7395479679,1489457183.7419629097,       -0.5605468750,        0.4912109375,        0.0307617188,      -41.3818359375,       21.6064453125,      -13.5345458984
1489457183.7422549725,1489457183.7446749210,       -0.5585937500,        0.4365234375,        0.0322265625,      -41.3818359375,       21.6064453125,      -13.5345458984
1489457183.7450129986,1489457183.7476060390,       -0.5585937500,        0.4365234375,        0.0322265625,      -44.6472167969,       20.6146240234,       -7.4157714844
1489457183.7478950024,1489457183.7504439354,       -0.5585937500,        0.4365234375,        0.0322265625,      -44.6472167969,       20.6146240234,       -7.4157714844
1489457183.7507359982,1489457183.7531559467,       -0.5585937500,        0.4487304688,        0.0473632812,      -48.0346679688,       19.9584960938,       -1.7242431641
1489457183.7534449100,1489457183.7558600903,       -0.5498046875,        0.4487304688,        0.0473632812,      -48.0346679688,       19.9584960938,       -1.7242431641
1489457183.7561500072,1489457183.7585730553,       -0.5498046875,        0.4487304688,        0.0473632812,      -49.6826171875,       18.8140869141,        2.5787353516
1489457183.7588739395,1489457183.7612910271,       -0.5498046875,        0.4487304688,        0.0473632812,      -49.6826171875,       18.8140869141,        2.5787353516
1489457183.7615830898,1489457183.7639989853,       -0.5488281250,        0.4404296875,        0.0581054688,      -49.3011474609,       18.6004638672,        7.0800781250
1489457183.7642889023,1489457183.7667140961,       -0.5488281250,        0.4404296875,        0.0581054688,      -49.3011474609,       18.6004638672,        7.0800781250
1489457183.7670030594,1489457183.7694039345,       -0.5488281250,        0.4404296875,        0.0581054688,      -47.5921630859,       17.9748535156,       11.4135742188
1489457183.7697908878,1489457183.7720899582,       -0.5488281250,        0.4404296875,        0.0581054688,      -47.5921630859,       17.9748535156,       11.4135742188
1489457183.7723760605,1489457183.7746689320,       -0.5292968750,        0.3691406250,        0.0766601562,      -46.5698242188,       17.1813964844,       14.9993896484
1489457183.7749519348,1489457183.7772428989,       -0.5292968750,        0.3691406250,        0.0766601562,      -46.5698242188,       17.1813964844,       14.9993896484
1489457183.7775290012,1489457183.7798519135,       -0.5292968750,        0.3691406250,        0.0766601562,      -47.3327636719,       15.7012939453,       18.0664062500
1489457183.7801399231,1489457183.7824299335,       -0.5292968750,        0.3691406250,        0.0766601562,      -47.3327636719,       15.7012939453,       18.0664062500
1489457183.7827150822,1489457183.7850079536,       -0.5009765625,        0.3496093750,        0.0854492188,      -48.6145019531,       14.3890380859,       21.0571289062
1489457183.7852931023,1489457183.7875909805,       -0.5009765625,        0.3496093750,        0.0854492188,      -48.6145019531,       14.3890380859,       21.0571289062
1489457183.7878749371,1489457183.7902131081,       -0.5009765625,        0.3496093750,        0.0854492188,      -49.8962402344,       10.9863281250,       26.6418457031
1489457183.7904970646,1489457183.7927949429,       -0.5009765625,        0.3496093750,        0.3588867188,      -49.8962402344,       10.9863281250,       26.6418457031
1489457183.7930779457,1489457183.7953751087,       -0.8149414062,        0.6435546875,        0.3588867188,      -55.1910400391,        2.2430419922,       39.0625000000
1489457183.7956531048,1489457183.7979500294,       -0.8149414062,        0.6435546875,        0.3588867188,      -55.1910400391,        2.2430419922,       39.0625000000
1489457183.7982308865,1489457183.8006858826,       -0.8149414062,        0.6435546875,        0.3588867188,      -62.7288818359,      -11.0015869141,       59.8907470703
1489457183.8009719849,1489457183.8032660484,       -0.8149414062,        0.9404296875,        0.7597656250,      -62.7288818359,      -11.0015869141,       59.8907470703
1489457183.8035509586,1489457183.8058400154,       -1.5307617188,        0.9404296875,        0.7597656250,      -66.6351318359,      -27.3284912109,       81.5124511719
1489457183.8061249256,1489457183.8084199429,       -1.5307617188,        0.9404296875,        0.7597656250,      -69.3817138672,      -27.3284912109,       81.5124511719
1489457183.8087038994,1489457183.8112020493,       -1.5307617188,        0.9404296875,        0.7597656250,      -69.3817138672,      -36.2701416016,       94.8181152344
1489457183.8114950657,1489457183.8139169216,       -1.9208984375,        0.7641601562,        0.6186523438,      -68.3441162109,      -36.2701416016,       94.8181152344
1489457183.8142099380,1489457183.8166260719,       -1.9208984375,        0.7641601562,        0.6186523438,      -68.3441162109,      -31.2347412109,       96.7407226562
1489457183.8169169426,1489457183.8193221092,       -1.9208984375,        0.7641601562,        0.6186523438,      -51.6815185547,      -31.2347412109,       96.7407226562
1489457183.8196060658,1489457183.8219020367,       -1.9208984375,        0.7641601562,        0.6186523438,      -51.6815185547,      -19.5159912109,       88.1958007812
1489457183.8221869469,1489457183.8244779110,       -1.3554687500,        0.1528320312,        0.0673828125,      -25.3448486328,      -19.1650390625,       88.1958007812
1489457183.8247640133,1489457183.8270580769,       -1.3554687500,        0.1528320312,        0.0673828125,      -25.3448486328,      -19.1650390625,       77.0721435547
1489457183.8273398876,1489457183.8297080994,       -1.3554687500,        0.1528320312,        0.0673828125,       -2.8076171875,       -7.4768066406,       77.0721435547
1489457183.8299911022,1489457183.8324079514,       -1.3554687500,        0.1528320312,        0.0673828125,       -2.8076171875,       -7.4768066406,       65.5822753906
1489457183.8326919079,1489457183.8351149559,       -0.5776367188,       -0.3247070312,       -0.3642578125,       14.3127441406,       -0.6561279297,       65.5822753906
1489457183.8355109692,1489457183.8379299641,       -0.5776367188,       -0.3247070312,       -0.3642578125,       14.3127441406,       -0.6561279297,       58.4259033203
1489457183.8382189274,1489457183.8406429291,       -0.5776367188,       -0.3247070312,       -0.3642578125,       20.0347900391,       -0.4882812500,       58.4259033203
1489457183.8409330845,1489457183.8433520794,       -0.5776367188,       -0.3247070312,       -0.3691406250,       20.0347900391,       -0.4882812500,       57.2662353516
1489457183.8436429501,1489457183.8460578918,       -0.3198242188,       -0.3691406250,       -0.3691406250,       13.5040283203,       -2.8686523438,       57.2662353516
1489457183.8463480473,1489457183.8487639427,       -0.3198242188,       -0.3691406250,       -0.3691406250,       13.5040283203,       -2.8686523438,       62.1948242188
1489457183.8491039276,1489457183.8515200615,       -0.3198242188,       -0.3691406250,       -0.3691406250,       -0.7019042969,       -4.5013427734,       62.1948242188
1489457183.8518049717,1489457183.8542220592,       -0.4448242188,       -0.0502929688,       -0.1650390625,       -0.7019042969,       -4.5013427734,       69.1223144531
1489457183.8545091152,1489457183.8569290638,       -0.4174804688,       -0.0502929688,       -0.1650390625,      -18.7683105469,       -4.0283203125,       69.1223144531
1489457183.8572180271,1489457183.8596410751,       -0.4174804688,       -0.0502929688,       -0.1650390625,      -18.7683105469,       -4.0283203125,       74.1729736328
1489457183.8599309921,1489457183.8623409271,       -0.4174804688,       -0.0502929688,       -0.1650390625,      -39.2456054688,       -2.5024414062,       74.1729736328
1489457183.8626298904,1489457183.8651239872,       -0.3813476562,        0.2802734375,        0.0307617188,      -39.2456054688,       -2.5024414062,       77.1026611328
1489457183.8654160500,1489457183.8678340912,       -0.3813476562,        0.2802734375,        0.0307617188,      -59.0820312500,       -3.6773681641,       77.1026611328
1489457183.8681249619,1489457183.8706119061,       -0.3813476562,        0.2802734375,        0.0307617188,      -59.0820312500,       -3.6773681641,       78.1555175781
1489457183.8708961010,1489457183.8731911182,       -0.3813476562,        0.2802734375,        0.0307617188,      -75.4394531250,       -8.8500976562,       78.1555175781
1489457183.8738579750,1489457183.8761520386,       -0.2573242188,        0.4218750000,        0.1508789062,      -75.4394531250,       -8.8500976562,       79.3914794922
1489457183.8764350414,1489457183.8787350655,       -0.2573242188,        0.4218750000,        0.1508789062,      -90.1031494141,      -14.8925781250,       79.3914794922
1489457183.8790891171,1489457183.8815009594,       -0.2573242188,        0.4218750000,        0.1508789062,      -90.1031494141,      -14.8925781250,       79.0557861328
1489457183.8817949295,1489457183.8842120171,       -0.2573242188,        0.3515625000,        0.1586914062,     -103.0120849609,      -20.9197998047,       79.0557861328
1489457183.8845040798,1489457183.8869218826,       -0.1533203125,        0.3515625000,        0.1586914062,     -103.0120849609,      -20.9197998047,       76.6296386719
1489457183.8872160912,1489457183.8896429539,       -0.1533203125,        0.3515625000,        0.1586914062,     -113.3270263672,      -26.3824462891,       76.6296386719
1489457183.8899350166,1489457183.8923571110,       -0.1533203125,        0.3515625000,        0.1586914062,     -113.3270263672,      -26.3824462891,       72.7691650391
1489457183.8926470280,1489457183.8950669765,       -0.1660156250,        0.4653320312,        0.1103515625,     -114.4409179688,      -31.1737060547,       72.7691650391
1489457183.8953609467,1489457183.8977720737,       -0.1660156250,        0.4653320312,        0.1103515625,     -114.4409179688,      -31.1737060547,       68.4051513672
1489457183.8980650902,1489457183.9004170895,       -0.1660156250,        0.4653320312,        0.1103515625,     -104.3701171875,      -34.9578857422,       68.4051513672
1489457183.9008159637,1489457183.9031059742,       -0.1660156250,        0.4653320312,        0.1103515625,     -104.3701171875,      -34.9578857422,       63.9343261719
1489457183.9033899307,1489457183.9056808949,       -0.3500976562,        0.7812500000,        0.0009765625,      -84.9914550781,      -38.0706787109,       63.9343261719
1489457183.9059660435,1489457183.9082660675,       -0.3500976562,        0.7812500000,        0.0009765625,      -84.9914550781,      -38.0706787109,       63.9343261719
1489457183.9085509777,1489457183.9108440876,       -0.3500976562,        0.7812500000,        0.0009765625,      -58.5784912109,      -39.0472412109,       59.1125488281
1489457183.9111289978,1489457183.9134230614,       -0.3500976562,        0.7812500000,        0.0009765625,      -58.5784912109,      -39.0472412109,       59.1125488281
1489457183.9137060642,1489457183.9160020351,       -0.7485351562,        0.9487304688,        0.0083007812,      -27.7557373047,      -38.1317138672,       53.2531738281
