time_stamp before, time_stamp after, Acceleration x, Acceleration y, Acceleration z, Gyro x, Gyro y, Gyro z
1489457242.0213310719,1489457242.0325999260,       -0.7338867188,        0.0527343750,        0.0229492188,       -0.1525878906,       -0.4730224609,       -0.1831054688
1489457242.0329010487,1489457242.0352749825,       -0.7338867188,        0.0527343750,        0.0258789062,        0.2136230469,       -0.4119873047,       -0.2441406250
1489457242.0355570316,1489457242.0379550457,       -0.7270507812,        0.0527343750,        0.0258789062,        0.2136230469,       -0.4119873047,       -0.2441406250
1489457242.0386619568,1489457242.0410890579,       -0.7270507812,        0.0527343750,        0.0258789062,       -0.2746582031,       -0.2593994141,       -0.2441406250
1489457242.0413730145,1489457242.0437939167,       -0.7270507812,        0.0527343750,        0.0258789062,       -0.2746582031,       -0.2593994141,       -0.2441406250
1489457242.0440731049,1489457242.0464859009,       -0.7358398438,        0.0512695312,        0.0307617188,       -0.2593994141,        0.1373291016,       -0.1678466797
1489457242.0467638969,1489457242.0492379665,       -0.7358398438,        0.0512695312,        0.0307617188,       -0.2593994141,        0.1373291016,       -0.1678466797
1489457242.0495181084,1489457242.0519299507,       -0.7358398438,        0.0512695312,        0.0307617188,       -0.2746582031,       -0.0915527344,       -0.1678466797
1489457242.0522089005,1489457242.0546259880,       -0.7358398438,        0.0512695312,        0.0307617188,       -0.2746582031,       -0.0915527344,       -0.1678466797
1489457242.0549049377,1489457242.0573210716,       -0.7377929688,        0.0541992188,        0.0302734375,        0.0000000000,       -0.1373291016,       -0.3356933594
1489457242.0576019287,1489457242.0607120991,       -0.7377929688,        0.0541992188,        0.0302734375,        0.0000000000,       -0.1373291016,       -0.1525878906
1489457242.0609929562,1489457242.0634019375,       -0.7377929688,        0.0541992188,        0.0302734375,        0.0762939453,       -0.1831054688,       -0.1525878906
1489457242.0636799335,1489457242.0660989285,       -0.7377929688,        0.0493164062,        0.0258789062,        0.0762939453,       -0.1831054688,       -0.0305175781
1489457242.0663769245,1489457242.0688319206,       -0.7397460938,        0.0493164062,        0.0258789062,       -0.5493164062,       -0.2288818359,       -0.0305175781
1489457242.0691049099,1489457242.0713889599,       -0.7397460938,        0.0493164062,        0.0258789062,       -0.5493164062,       -0.2288818359,       -0.3051757812
1489457242.0716609955,1489457242.0739440918,       -0.7397460938,        0.0493164062,        0.0258789062,       -0.0762939453,       -0.2136230469,       -0.3051757812
1489457242.0742158890,1489457242.0765049458,       -0.7373046875,        0.0488281250,        0.0307617188,       -0.0762939453,       -0.2136230469,       -0.3051757812
1489457242.0767800808,1489457242.0791809559,       -0.7373046875,        0.0488281250,        0.0307617188,       -0.2288818359,        0.0457763672,       -0.3204345703
1489457242.0794599056,1489457242.0818369389,       -0.7373046875,        0.0488281250,        0.0307617188,       -0.2288818359,        0.0457763672,       -0.3204345703
1489457242.0821170807,1489457242.0844979286,       -0.7373046875,        0.0488281250,        0.0307617188,       -0.6103515625,        0.0152587891,       -0.0610351562
1489457242.0847771168,1489457242.0871679783,       -0.7353515625,        0.0498046875,        0.0278320312,       -0.6103515625,        0.0152587891,       -0.0610351562
1489457242.0874500275,1489457242.0898349285,       -0.7353515625,        0.0498046875,        0.0278320312,        0.0305175781,       -0.3509521484,       -0.3967285156
1489457242.0901091099,1489457242.0924069881,       -0.7353515625,        0.0498046875,        0.0278320312,        0.0305175781,       -0.3509521484,       -0.3967285156
1489457242.0926809311,1489457242.0949690342,       -0.7353515625,        0.0498046875,        0.0278320312,        0.5798339844,       -0.5340576172,       -0.1678466797
1489457242.0953989029,1489457242.0976901054,       -0.7387695312,        0.0537109375,        0.0297851562,        0.5798339844,       -0.5340576172,       -0.1678466797
1489457242.0979640484,1489457242.1005320549,       -0.7387695312,        0.0537109375,        0.0297851562,        0.1068115234,       -0.2899169922,       -0.0762939453
1489457242.1008090973,1489457242.1031029224,       -0.7387695312,        0.0537109375,        0.0297851562,        0.1068115234,       -0.2899169922,       -0.0762939453
1489457242.1033780575,1489457242.1056718826,       -0.7387695312,        0.0537109375,        0.0249023438,       -0.1525878906,       -0.1525878906,       -0.0762939453
1489457242.1059470177,1489457242.1083550453,       -0.7377929688,        0.0488281250,        0.0249023438,       -0.1525878906,       -0.1525878906,       -0.0762939453
1489457242.1086289883,1489457242.1112360954,       -0.7377929688,        0.0488281250,        0.0249023438,       -0.1220703125,       -0.2593994141,       -0.0152587891
1489457242.1115729809,1489457242.1138679981,       -0.7377929688,        0.0488281250,        0.0249023438,       -0.1220703125,       -0.2593994141,       -0.0152587891
1489457242.1141560078,1489457242.1164629459,       -0.7377929688,        0.0493164062,        0.0219726562,       -0.1373291016,       -0.4119873047,       -0.3356933594
1489457242.1167380810,1489457242.1192669868,       -0.7333984375,        0.0493164062,        0.0219726562,       -0.1373291016,       -0.4119873047,       -0.3356933594
1489457242.1195440292,1489457242.1218419075,       -0.7333984375,        0.0493164062,        0.0219726562,        0.2746582031,       -0.3051757812,       -0.1983642578
1489457242.1221179962,1489457242.1244070530,       -0.7333984375,        0.0493164062,        0.0219726562,        0.2746582031,       -0.3051757812,       -0.1983642578
1489457242.1246819496,1489457242.1269729137,       -0.7421875000,        0.0429687500,        0.0375976562,       -0.1220703125,       -0.2441406250,       -0.1220703125
1489457242.1272480488,1489457242.1297659874,       -0.7421875000,        0.0429687500,        0.0375976562,       -0.1220703125,       -0.2441406250,       -0.1220703125
1489457242.1300470829,1489457242.1324310303,       -0.7421875000,        0.0429687500,        0.0375976562,       -0.6256103516,       -0.1373291016,       -0.1220703125
1489457242.1327099800,1489457242.1359100342,       -0.7421875000,        0.0429687500,        0.0375976562,       -0.6256103516,       -0.1373291016,       -0.1220703125
1489457242.1362290382,1489457242.1387109756,       -0.7241210938,        0.0512695312,        0.0185546875,       -0.3509521484,        0.0762939453,       -0.0457763672
1489457242.1390669346,1489457242.1413779259,       -0.7241210938,        0.0512695312,        0.0185546875,       -0.3509521484,        0.0762939453,       -0.0457763672
1489457242.1416530609,1489457242.1439719200,       -0.7241210938,        0.0512695312,        0.0185546875,       -0.3051757812,       -0.2441406250,        0.0152587891
1489457242.1442470551,1489457242.1465349197,       -0.7241210938,        0.0498046875,        0.0273437500,       -0.3051757812,       -0.2441406250,        0.0152587891
1489457242.1468100548,1489457242.1491119862,       -0.7343750000,        0.0498046875,        0.0273437500,       -0.1678466797,       -0.1068115234,        0.1678466797
1489457242.1493880749,1489457242.1516780853,       -0.7343750000,        0.0498046875,        0.0273437500,       -0.1678466797,       -0.1068115234,        0.1678466797
1489457242.1519539356,1489457242.1543080807,       -0.7343750000,        0.0498046875,        0.0273437500,       -0.0305175781,       -0.2746582031,        0.0000000000
1489457242.1545839310,1489457242.1568739414,       -0.7343750000,        0.0517578125,        0.0366210938,       -0.0305175781,       -0.2746582031,        0.0000000000
1489457242.1571478844,1489457242.1594469547,       -0.7333984375,        0.0517578125,        0.0366210938,       -0.3509521484,       -0.3662109375,        0.3204345703
1489457242.1598401070,1489457242.1621310711,       -0.7333984375,        0.0517578125,        0.0366210938,       -0.3509521484,       -0.3662109375,        0.3204345703
1489457242.1624059677,1489457242.1646940708,       -0.7333984375,        0.0517578125,        0.0366210938,       -0.1831054688,       -0.6256103516,        0.1220703125
1489457242.1649689674,1489457242.1672589779,       -0.7382812500,        0.0454101562,        0.0351562500,       -0.1831054688,       -0.6256103516,        0.1220703125
1489457242.1675341129,1489457242.1698451042,       -0.7382812500,        0.0454101562,        0.0351562500,       -0.1831054688,       -0.5035400391,       -0.1220703125
1489457242.1701209545,1489457242.1724059582,       -0.7382812500,        0.0454101562,        0.0351562500,       -0.4882812500,       -0.5035400391,       -0.1220703125
1489457242.1726810932,1489457242.1749660969,       -0.7382812500,        0.0454101562,        0.0351562500,       -0.4882812500,       -0.5035400391,       -0.1831054688
1489457242.1752409935,1489457242.1775310040,       -0.7294921875,        0.0537109375,        0.0332031250,       -0.6561279297,       -0.0457763672,       -0.1831054688
1489457242.1778070927,1489457242.1801350117,       -0.7294921875,        0.0537109375,        0.0332031250,       -0.6561279297,       -0.0457763672,       -0.3509521484
1489457242.1804111004,1489457242.1826961040,       -0.7294921875,        0.0537109375,        0.0332031250,       -0.0457763672,       -0.2746582031,       -0.3509521484
1489457242.1829710007,1489457242.1852560043,       -0.7294921875,        0.0537109375,        0.0332031250,       -0.0457763672,       -0.2746582031,       -0.3509521484
1489457242.1855289936,1489457242.1878199577,       -0.7358398438,        0.0517578125,        0.0322265625,       -0.9155273438,       -0.2746582031,       -0.1373291016
1489457242.1880950928,1489457242.1904981136,       -0.7358398438,        0.0517578125,        0.0322265625,       -0.9155273438,       -0.2746582031,       -0.1373291016
1489457242.1907730103,1489457242.1930599213,       -0.7358398438,        0.0517578125,        0.0322265625,       -0.3204345703,       -0.4119873047,       -0.3814697266
1489457242.1933350563,1489457242.1956219673,       -0.7358398438,        0.0517578125,        0.0322265625,       -0.3204345703,       -0.4119873047,       -0.3814697266
1489457242.1958980560,1489457242.1981890202,       -0.7338867188,        0.0478515625,        0.0263671875,       -0.2593994141,       -0.3204345703,       -0.1373291016
1489457242.1984639168,1489457242.2008740902,       -0.7338867188,        0.0478515625,        0.0263671875,       -0.2593994141,       -0.3204345703,       -0.1373291016
1489457242.2011489868,1489457242.2034358978,       -0.7338867188,        0.0478515625,        0.0263671875,        0.0305175781,        0.0762939453,        0.0762939453
1489457242.2037088871,1489457242.2059960365,       -0.7338867188,        0.0478515625,        0.0263671875,        0.0305175781,        0.0762939453,        0.0762939453
1489457242.2062690258,1489457242.2085669041,       -0.7377929688,        0.0517578125,        0.0292968750,        0.0610351562,       -0.1220703125,       -0.0915527344
1489457242.2089641094,1489457242.2112610340,       -0.7377929688,        0.0517578125,        0.0292968750,        0.0610351562,       -0.1220703125,       -0.0915527344
1489457242.2115359306,1489457242.2138280869,       -0.7377929688,        0.0517578125,        0.0292968750,       -0.2593994141,       -0.2899169922,       -0.1220703125
1489457242.2141029835,1489457242.2165439129,       -0.7377929688,        0.0517578125,        0.0292968750,       -0.2593994141,       -0.2899169922,       -0.1220703125
1489457242.2168200016,1489457242.2192358971,       -0.7324218750,        0.0527343750,        0.0214843750,       -0.0915527344,       -0.2136230469,       -0.1068115234
1489457242.2195169926,1489457242.2218949795,       -0.7324218750,        0.0527343750,        0.0214843750,       -0.0915527344,       -0.2136230469,       -0.1068115234
1489457242.2222840786,1489457242.2252869606,       -0.7324218750,        0.0527343750,        0.0214843750,        0.0915527344,        0.0915527344,       -0.1525878906
1489457242.2255671024,1489457242.2278521061,       -0.7363281250,        0.0556640625,        0.0302734375,        0.0915527344,        0.0915527344,       -0.1525878906
1489457242.2281279564,1489457242.2304689884,       -0.7363281250,        0.0556640625,        0.0302734375,        0.2899169922,       -0.7324218750,       -0.4730224609
1489457242.2307450771,1489457242.2330369949,       -0.7363281250,        0.0556640625,        0.0302734375,        0.2899169922,       -0.7324218750,       -0.4730224609
1489457242.2333109379,1489457242.2356030941,       -0.7363281250,        0.0556640625,        0.0302734375,       -0.3967285156,       -0.4882812500,       -0.2746582031
1489457242.2358770370,1489457242.2381699085,       -0.7314453125,        0.0512695312,        0.0307617188,       -0.3967285156,       -0.4882812500,       -0.2746582031
1489457242.2384440899,1489457242.2407898903,       -0.7314453125,        0.0512695312,        0.0307617188,       -0.4119873047,        0.0610351562,        0.1831054688
1489457242.2410659790,1489457242.2433509827,       -0.7314453125,        0.0512695312,        0.0307617188,       -0.4119873047,        0.0610351562,        0.1831054688
1489457242.2436261177,1489457242.2459130287,       -0.7314453125,        0.0512695312,        0.0307617188,       -0.4119873047,        0.0000000000,       -0.0152587891
1489457242.2461879253,1489457242.2484719753,       -0.7309570312,        0.0405273438,        0.0292968750,       -0.5340576172,        0.0000000000,       -0.0152587891
1489457242.2487449646,1489457242.2510380745,       -0.7309570312,        0.0405273438,        0.0292968750,       -0.5340576172,        0.0000000000,       -0.3967285156
1489457242.2513129711,1489457242.2536020279,       -0.7309570312,        0.0405273438,        0.0292968750,       -0.4272460938,        0.2136230469,       -0.3967285156
1489457242.2538769245,1489457242.2561640739,       -0.7309570312,        0.0405273438,        0.0292968750,       -0.4272460938,        0.2136230469,       -0.1373291016
1489457242.2564389706,1489457242.2587289810,       -0.7387695312,        0.0517578125,        0.0244140625,       -0.3356933594,        0.0305175781,       -0.1373291016
1489457242.2590761185,1489457242.2613658905,       -0.7387695312,        0.0517578125,        0.0244140625,       -0.3356933594,        0.0305175781,       -0.1373291016
1489457242.2616400719,1489457242.2639288902,       -0.7387695312,        0.0517578125,        0.0244140625,       -0.3356933594,       -0.1220703125,       -0.1220703125
1489457242.2642049789,1489457242.2664868832,       -0.7387695312,        0.0517578125,        0.0244140625,       -0.3356933594,       -0.1220703125,       -0.1220703125
1489457242.2667610645,1489457242.2691769600,       -0.7343750000,        0.0527343750,        0.0156250000,       -0.1678466797,       -0.2746582031,       -0.2899169922
1489457242.2694520950,1489457242.2717399597,       -0.7343750000,        0.0527343750,        0.0156250000,       -0.1678466797,       -0.2746582031,       -0.2899169922
1489457242.2720150948,1489457242.2743020058,       -0.7343750000,        0.0527343750,        0.0156250000,       -0.3051757812,       -0.1831054688,       -0.1831054688
1489457242.2745790482,1489457242.2768681049,       -0.7343750000,        0.0527343750,        0.0156250000,       -0.3051757812,       -0.1831054688,       -0.1831054688
1489457242.2771461010,1489457242.2795488834,       -0.7333984375,        0.0498046875,        0.0234375000,        0.0000000000,       -0.4272460938,       -0.5187988281
1489457242.2798249722,1489457242.2821199894,       -0.7333984375,        0.0498046875,        0.0234375000,        0.0000000000,       -0.4272460938,       -0.5187988281
1489457242.2823948860,1489457242.2846798897,       -0.7333984375,        0.0498046875,        0.0234375000,       -0.1220703125,       -0.5950927734,       -0.5645751953
1489457242.2850749493,1489457242.2873659134,       -0.7333984375,        0.0498046875,        0.0346679688,       -0.1220703125,       -0.5950927734,       -0.5645751953
1489457242.2876410484,1489457242.2899758816,       -0.7363281250,        0.0498046875,        0.0346679688,        0.2136230469,       -0.1220703125,       -0.5798339844
1489457242.2902510166,1489457242.2925438881,       -0.7363281250,        0.0498046875,        0.0346679688,        0.2136230469,       -0.1220703125,       -0.5798339844
1489457242.2928190231,1489457242.2951059341,       -0.7363281250,        0.0498046875,        0.0346679688,       -0.1373291016,        0.1373291016,       -0.2136230469
1489457242.2953820229,1489457242.2976698875,       -0.7363281250,        0.0498046875,        0.0268554688,       -0.1373291016,        0.1373291016,       -0.2136230469
1489457242.2979450226,1489457242.3002519608,       -0.7324218750,        0.0512695312,        0.0268554688,       -0.1373291016,        0.3051757812,       -0.4119873047
1489457242.3005280495,1489457242.3028180599,       -0.7324218750,        0.0512695312,        0.0268554688,       -0.5798339844,        0.3051757812,       -0.4119873047
1489457242.3030939102,1489457242.3053870201,       -0.7324218750,        0.0512695312,        0.0268554688,       -0.5798339844,        0.3051757812,       -0.5645751953
1489457242.3056619167,1489457242.3079578876,       -0.7324218750,        0.0512695312,        0.0278320312,       -0.0610351562,       -0.0915527344,       -0.5645751953
1489457242.3082320690,1489457242.3106410503,       -0.7373046875,        0.0517578125,        0.0278320312,       -0.0610351562,       -0.0915527344,       -0.3814697266
1489457242.3109169006,1489457242.3132119179,       -0.7373046875,        0.0517578125,        0.0278320312,        0.1068115234,       -0.3356933594,       -0.3814697266
1489457242.3134880066,1489457242.3157820702,       -0.7373046875,        0.0517578125,        0.0278320312,        0.1068115234,       -0.3356933594,       -0.3814697266
1489457242.3160569668,1489457242.3183460236,       -0.7373046875,        0.0517578125,        0.0190429688,       -0.2288818359,        0.1068115234,       -0.3662109375
1489457242.3186199665,1489457242.3210721016,       -0.7324218750,        0.0517578125,        0.0190429688,       -0.2288818359,        0.1068115234,       -0.3662109375
1489457242.3213551044,1489457242.3237719536,       -0.7324218750,        0.0517578125,        0.0190429688,        0.1983642578,        0.0305175781,       -0.5035400391
1489457242.3240540028,1489457242.3264729977,       -0.7324218750,        0.0517578125,        0.0190429688,        0.1983642578,        0.0305175781,       -0.5035400391
1489457242.3267550468,1489457242.3291819096,       -0.7387695312,        0.0512695312,        0.0288085938,        0.3967285156,        0.1525878906,       -0.4730224609
1489457242.3294639587,1489457242.3318769932,       -0.7387695312,        0.0512695312,        0.0288085938,        0.3967285156,        0.1525878906,       -0.4730224609
1489457242.3321580887,1489457242.3345720768,       -0.7387695312,        0.0512695312,        0.0288085938,        0.7171630859,        0.1831054688,       -0.3051757812
1489457242.3348801136,1489457242.3373401165,       -0.7387695312,        0.0512695312,        0.0288085938,        0.7171630859,        0.1831054688,       -0.3051757812
1489457242.3376228809,1489457242.3400518894,       -0.7280273438,        0.0458984375,        0.0356445312,        0.0152587891,        0.0152587891,       -0.1983642578
1489457242.3403339386,1489457242.3427560329,       -0.7280273438,        0.0458984375,        0.0356445312,        0.0152587891,        0.0152587891,       -0.1983642578
1489457242.3430359364,1489457242.3454489708,       -0.7280273438,        0.0458984375,        0.0356445312,       -0.2899169922,       -0.0762939453,       -0.1220703125
1489457242.3457310200,1489457242.3481469154,       -0.7280273438,        0.0458984375,        0.0258789062,       -0.2899169922,       -0.0762939453,       -0.1220703125
1489457242.3485360146,1489457242.3509619236,       -0.7314453125,        0.0507812500,        0.0258789062,       -0.2899169922,        0.1525878906,       -0.1831054688
1489457242.3512461185,1489457242.3536610603,       -0.7314453125,        0.0507812500,        0.0258789062,       -0.2899169922,        0.1525878906,       -0.1831054688
1489457242.3539431095,1489457242.3563640118,       -0.7314453125,        0.0507812500,        0.0258789062,        0.0000000000,        0.0152587891,       -0.1983642578
1489457242.3566451073,1489457242.3590629101,       -0.7314453125,        0.0517578125,        0.0214843750,        0.0000000000,        0.0152587891,       -0.1983642578
1489457242.3593370914,1489457242.3616259098,       -0.7338867188,        0.0517578125,        0.0214843750,       -0.4425048828,        0.1678466797,        0.0152587891
1489457242.3619010448,1489457242.3641939163,       -0.7338867188,        0.0517578125,        0.0214843750,       -0.4425048828,        0.1678466797,        0.0152587891
1489457242.3644680977,1489457242.3667581081,       -0.7338867188,        0.0517578125,        0.0214843750,       -0.6256103516,        0.2288818359,       -0.0762939453
1489457242.3670310974,1489457242.3693280220,       -0.7407226562,        0.0468750000,        0.0263671875,       -0.6256103516,        0.2288818359,       -0.0762939453
1489457242.3696019650,1489457242.3718969822,       -0.7407226562,        0.0468750000,        0.0263671875,       -0.4882812500,       -0.0305175781,       -0.1373291016
1489457242.3721721172,1489457242.3744630814,       -0.7407226562,        0.0468750000,        0.0263671875,       -0.4882812500,       -0.0305175781,       -0.1373291016
1489457242.3747370243,1489457242.3770298958,       -0.7407226562,        0.0468750000,        0.0263671875,       -0.3814697266,        0.1525878906,       -0.1220703125
1489457242.3773040771,1489457242.3797340393,       -0.7333984375,        0.0493164062,        0.0234375000,       -0.3814697266,        0.1525878906,       -0.1220703125
1489457242.3800098896,1489457242.3823020458,       -0.7333984375,        0.0493164062,        0.0234375000,       -0.1373291016,        0.0305175781,       -0.1678466797
1489457242.3825769424,1489457242.3848750591,       -0.7333984375,        0.0493164062,        0.0234375000,       -0.1373291016,        0.0305175781,       -0.1678466797
1489457242.3851490021,1489457242.3874380589,       -0.7333984375,        0.0493164062,        0.0234375000,       -0.1373291016,        0.1220703125,       -0.4425048828
1489457242.3877139091,1489457242.3901739120,       -0.7363281250,        0.0502929688,        0.0268554688,       -0.1678466797,        0.1220703125,       -0.4425048828
1489457242.3904569149,1489457242.3928639889,       -0.7363281250,        0.0502929688,        0.0268554688,       -0.1678466797,       -0.3509521484,       -0.2441406250
1489457242.3931450844,1489457242.3955509663,       -0.7363281250,        0.0502929688,        0.0268554688,       -0.3051757812,       -0.3509521484,       -0.2441406250
1489457242.3958320618,1489457242.3982400894,       -0.7363281250,        0.0502929688,        0.0268554688,       -0.3051757812,       -0.1373291016,        0.0000000000
1489457242.3985219002,1489457242.4009180069,       -0.7402343750,        0.0478515625,        0.0307617188,       -0.7019042969,       -0.1373291016,        0.0000000000
1489457242.4012000561,1489457242.4035799503,       -0.7402343750,        0.0478515625,        0.0307617188,       -0.7019042969,       -0.1373291016,       -0.0610351562
1489457242.4038589001,1489457242.4062459469,       -0.7402343750,        0.0478515625,        0.0307617188,       -0.7171630859,       -0.0457763672,       -0.0610351562
1489457242.4065260887,1489457242.4090769291,       -0.7402343750,        0.0478515625,        0.0283203125,       -0.7171630859,       -0.0457763672,        0.0457763672
1489457242.4093520641,1489457242.4116430283,       -0.7426757812,        0.0498046875,        0.0283203125,       -0.1068115234,       -0.0610351562,        0.0457763672
1489457242.4120159149,1489457242.4143071175,       -0.7426757812,        0.0498046875,        0.0283203125,       -0.1068115234,       -0.0610351562,       -0.2288818359
1489457242.4145820141,1489457242.4168710709,       -0.7426757812,        0.0498046875,        0.0283203125,        0.0762939453,       -0.2746582031,       -0.2288818359
1489457242.4171440601,1489457242.4194879532,       -0.7426757812,        0.0498046875,        0.0239257812,        0.0762939453,       -0.2746582031,        0.1068115234
1489457242.4197719097,1489457242.4221880436,       -0.7358398438,        0.0498046875,        0.0239257812,       -0.4730224609,        0.1373291016,        0.1068115234
1489457242.4224679470,1489457242.4248809814,       -0.7358398438,        0.0498046875,        0.0239257812,       -0.4730224609,        0.1373291016,        0.0000000000
1489457242.4251620770,1489457242.4275820255,       -0.7358398438,        0.0498046875,        0.0239257812,       -0.7171630859,       -0.0457763672,        0.0000000000
1489457242.4278628826,1489457242.4302899837,       -0.7392578125,        0.0483398438,        0.0327148438,       -0.7171630859,       -0.0457763672,       -3.9062500000
1489457242.4305698872,1489457242.4329829216,       -0.7392578125,        0.0483398438,        0.0327148438,       -0.5798339844,       -0.2746582031,       -0.0457763672
1489457242.4332671165,1489457242.4356820583,       -0.7392578125,        0.0483398438,        0.0327148438,       -0.5798339844,       -0.2746582031,       -0.0457763672
1489457242.4359641075,1489457242.4383809566,       -0.7392578125,        0.0483398438,        0.0327148438,       -0.3509521484,       -0.2746582031,       -0.1373291016
1489457242.4386620522,1489457242.4410920143,       -0.7333984375,        0.0478515625,        0.0307617188,       -0.3509521484,       -0.2746582031,        3.7689208984
1489457242.4413740635,1489457242.4437890053,       -0.7333984375,        0.0478515625,        0.0307617188,        0.3051757812,       -0.0762939453,        0.3814697266
1489457242.4440710545,1489457242.4464869499,       -0.7333984375,        0.0478515625,        0.0307617188,        0.3051757812,       -0.0762939453,        0.3814697266
1489457242.4467689991,1489457242.4492509365,       -0.7333984375,        0.0478515625,        0.0307617188,        0.3814697266,       -0.0457763672,        0.3204345703
1489457242.4495329857,1489457242.4519400597,       -0.7392578125,        0.0493164062,        0.0307617188,        0.3814697266,       -0.0457763672,        0.3204345703
1489457242.4522209167,1489457242.4546349049,       -0.7392578125,        0.0493164062,        0.0307617188,        0.1983642578,        0.0152587891,        0.0305175781
1489457242.4549150467,1489457242.4573359489,       -0.7392578125,        0.0493164062,        0.0307617188,        0.1983642578,        0.0152587891,        0.0305175781
1489457242.4576160908,1489457242.4599781036,       -0.7392578125,        0.0512695312,        0.0253906250,       -0.2746582031,       -0.2746582031,        0.1831054688
1489457242.4602539539,1489457242.4625430107,       -0.7338867188,        0.0512695312,        0.0253906250,       -0.2746582031,       -0.2746582031,        0.1831054688
1489457242.4628179073,1489457242.4651091099,       -0.7338867188,        0.0512695312,        0.0253906250,       -0.3814697266,        0.0000000000,       -0.0915527344
1489457242.4653830528,1489457242.4676749706,       -0.7338867188,        0.0512695312,        0.0253906250,       -0.3814697266,        0.0000000000,       -0.0915527344
1489457242.4679510593,1489457242.4703280926,       -0.7324218750,        0.0576171875,        0.0283203125,       -0.6713867188,        0.2136230469,       -0.1678466797
1489457242.4706089497,1489457242.4730079174,       -0.7324218750,        0.0576171875,        0.0283203125,       -0.6713867188,        0.2136230469,       -0.1678466797
1489457242.4732899666,1489457242.4756898880,       -0.7324218750,        0.0576171875,        0.0283203125,       -0.6256103516,       -0.3204345703,       -0.0457763672
1489457242.4759700298,1489457242.4783749580,       -0.7324218750,        0.0576171875,        0.0283203125,       -0.6256103516,       -0.3204345703,       -0.0457763672
1489457242.4787609577,1489457242.4811670780,       -0.7407226562,        0.0512695312,        0.0229492188,       -0.1831054688,       -0.4425048828,       -0.3051757812
1489457242.4814488888,1489457242.4838509560,       -0.7407226562,        0.0512695312,        0.0229492188,       -0.1831054688,       -0.4425048828,       -0.3051757812
1489457242.4841339588,1489457242.4865329266,       -0.7407226562,        0.0512695312,        0.0229492188,       -0.0915527344,        0.0152587891,       -0.1831054688
1489457242.4868130684,1489457242.4892609119,       -0.7407226562,        0.0512695312,        0.0229492188,       -0.0915527344,        0.0152587891,       -0.1831054688
1489457242.4895429611,1489457242.4919490814,       -0.7314453125,        0.0537109375,        0.0283203125,       -0.2899169922,        0.2136230469,       -0.1983642578
1489457242.4922299385,1489457242.4946329594,       -0.7314453125,        0.0537109375,        0.0283203125,       -0.2899169922,        0.2136230469,       -0.1983642578
1489457242.4949140549,1489457242.4973180294,       -0.7314453125,        0.0537109375,        0.0283203125,       -0.3204345703,        0.4119873047,       -0.1220703125
1489457242.4976000786,1489457242.5000441074,       -0.7314453125,        0.0532226562,        0.0249023438,       -0.3204345703,        0.4119873047,       -0.1220703125
1489457242.5003259182,1489457242.5027260780,       -0.7329101562,        0.0532226562,        0.0249023438,       -0.3662109375,       -0.1068115234,       -0.0915527344
1489457242.5030069351,1489457242.5054149628,       -0.7329101562,        0.0532226562,        0.0249023438,       -0.3662109375,       -0.1068115234,       -0.0915527344
1489457242.5056970119,1489457242.5080978870,       -0.7329101562,        0.0532226562,        0.0249023438,       -0.3967285156,       -0.2593994141,       -0.0305175781
1489457242.5083789825,1489457242.5107510090,       -0.7363281250,        0.0473632812,        0.0205078125,       -0.3967285156,       -0.2593994141,       -0.0305175781
1489457242.5110270977,1489457242.5133240223,       -0.7363281250,        0.0473632812,        0.0205078125,        0.2593994141,       -0.1068115234,       -0.3509521484
1489457242.5135989189,1489457242.5158910751,       -0.7363281250,        0.0473632812,        0.0205078125,        0.2593994141,       -0.1068115234,       -0.3509521484
1489457242.5161659718,1489457242.5184540749,       -0.7363281250,        0.0473632812,        0.0205078125,        0.0457763672,        0.1373291016,       -0.2746582031
1489457242.5187289715,1489457242.5211949348,       -0.7392578125,        0.0498046875,        0.0327148438,        0.0457763672,        0.1373291016,       -0.2746582031
1489457242.5215420723,1489457242.5238449574,       -0.7392578125,        0.0498046875,        0.0327148438,       -0.2441406250,       -0.0762939453,        0.1068115234
1489457242.5241239071,1489457242.5264129639,       -0.7392578125,        0.0498046875,        0.0327148438,       -0.2441406250,       -0.0762939453,        0.1068115234
1489457242.5266890526,1489457242.5291700363,       -0.7392578125,        0.0498046875,        0.0327148438,       -0.2441406250,       -0.3051757812,        0.0000000000
1489457242.5294499397,1489457242.5318350792,       -0.7368164062,        0.0498046875,        0.0229492188,       -0.4425048828,       -0.3051757812,        0.0000000000
1489457242.5321149826,1489457242.5345940590,       -0.7368164062,        0.0498046875,        0.0229492188,       -0.4425048828,       -0.3967285156,       -0.2136230469
1489457242.5348770618,1489457242.5372619629,       -0.7368164062,        0.0498046875,        0.0229492188,       -0.4425048828,       -0.3967285156,       -0.2136230469
1489457242.5375409126,1489457242.5405390263,       -0.7368164062,        0.0498046875,        0.0322265625,       -0.7019042969,       -0.2746582031,       -0.2899169922
1489457242.5408160686,1489457242.5431060791,       -0.7358398438,        0.0493164062,        0.0322265625,       -0.7019042969,       -0.2746582031,       -0.2899169922
1489457242.5434889793,1489457242.5457758904,       -0.7358398438,        0.0493164062,        0.0322265625,       -0.0762939453,       -0.1983642578,       -0.2441406250
1489457242.5460510254,1489457242.5483429432,       -0.7358398438,        0.0493164062,        0.0322265625,       -0.0762939453,       -0.1983642578,       -0.2441406250
1489457242.5486180782,1489457242.5509679317,       -0.7319335938,        0.0541992188,        0.0283203125,        0.2593994141,        0.1220703125,       -0.3051757812
1489457242.5512430668,1489457242.5535299778,       -0.7319335938,        0.0541992188,        0.0283203125,        0.2593994141,        0.1220703125,       -0.3051757812
1489457242.5538051128,1489457242.5560889244,       -0.7319335938,        0.0541992188,        0.0283203125,        0.2593994141,       -0.1831054688,       -0.4119873047
1489457242.5563631058,1489457242.5586459637,       -0.7319335938,        0.0541992188,        0.0283203125,        0.1220703125,       -0.1831054688,       -0.4119873047
1489457242.5589199066,1489457242.5612111092,       -0.7353515625,        0.0532226562,        0.0200195312,        0.1220703125,       -0.1831054688,       -0.1831054688
1489457242.5614869595,1489457242.5637750626,       -0.7353515625,        0.0532226562,        0.0200195312,       -0.1068115234,       -0.2746582031,       -0.1831054688
1489457242.5640499592,1489457242.5663321018,       -0.7353515625,        0.0532226562,        0.0200195312,       -0.1068115234,       -0.2746582031,       -0.1831054688
1489457242.5666069984,1489457242.5689051151,       -0.7353515625,        0.0532226562,        0.0200195312,       -0.0610351562,       -0.0762939453,       -0.2899169922
1489457242.5691790581,1489457242.5714681149,       -0.7402343750,        0.0532226562,        0.0346679688,       -0.0610351562,       -0.0762939453,       -0.2899169922
1489457242.5717430115,1489457242.5740320683,       -0.7402343750,        0.0532226562,        0.0346679688,        0.1831054688,       -0.2899169922,       -0.1678466797
1489457242.5743069649,1489457242.5766000748,       -0.7402343750,        0.0532226562,        0.0346679688,        0.1831054688,       -0.2899169922,       -0.1678466797
1489457242.5768740177,1489457242.5792119503,       -0.7402343750,        0.0532226562,        0.0346679688,       -0.3204345703,       -0.3356933594,       -0.2288818359
1489457242.5794858932,1489457242.5817770958,       -0.7353515625,        0.0478515625,        0.0278320312,       -0.3204345703,       -0.3356933594,       -0.2288818359
1489457242.5820510387,1489457242.5843400955,       -0.7353515625,        0.0478515625,        0.0278320312,       -0.2899169922,       -0.0610351562,       -0.3814697266
1489457242.5846130848,1489457242.5869059563,       -0.7353515625,        0.0478515625,        0.0278320312,       -0.2899169922,       -0.0610351562,       -0.3814697266
1489457242.5871798992,1489457242.5895578861,       -0.7353515625,        0.0478515625,        0.0278320312,        0.1068115234,       -0.1525878906,       -0.3051757812
1489457242.5898358822,1489457242.5921220779,       -0.7299804688,        0.0454101562,        0.0161132812,        0.1068115234,       -0.1525878906,       -0.3051757812
1489457242.5923969746,1489457242.5946888924,       -0.7299804688,        0.0454101562,        0.0161132812,       -0.1831054688,       -0.0762939453,       -0.1373291016
1489457242.5949630737,1489457242.5972590446,       -0.7299804688,        0.0454101562,        0.0161132812,       -0.1831054688,       -0.0762939453,       -0.1373291016
1489457242.5975329876,1489457242.5999770164,       -0.7299804688,        0.0454101562,        0.0161132812,       -0.0762939453,        0.0457763672,       -0.1068115234
1489457242.6002590656,1489457242.6026749611,       -0.7358398438,        0.0468750000,        0.0278320312,       -0.0762939453,        0.0457763672,       -0.1068115234
1489457242.6029570103,1489457242.6053700447,       -0.7358398438,        0.0468750000,        0.0278320312,       -0.1831054688,       -0.4577636719,       -0.0915527344
1489457242.6057589054,1489457242.6081728935,       -0.7358398438,        0.0468750000,        0.0278320312,       -0.1831054688,       -0.4577636719,       -0.0915527344
1489457242.6084558964,1489457242.6107819080,       -0.7358398438,        0.0468750000,        0.0327148438,       -0.1220703125,       -0.0610351562,       -0.2288818359
1489457242.6110570431,1489457242.6133449078,       -0.7314453125,        0.0493164062,        0.0327148438,       -0.1220703125,       -0.0610351562,       -0.2288818359
1489457242.6136178970,1489457242.6159060001,       -0.7314453125,        0.0493164062,        0.0327148438,       -0.1220703125,       -0.2899169922,       -0.1525878906
1489457242.6161789894,1489457242.6184720993,       -0.7314453125,        0.0493164062,        0.0327148438,       -0.1373291016,       -0.2899169922,       -0.1525878906
1489457242.6187450886,1489457242.6211609840,       -0.7314453125,        0.0493164062,        0.0288085938,       -0.1373291016,        3.6163330078,       -0.2593994141
1489457242.6214430332,1489457242.6238610744,       -0.7382812500,        0.0483398438,        0.0288085938,       -0.4882812500,        0.0610351562,       -0.2593994141
1489457242.6241428852,1489457242.6265530586,       -0.7382812500,        0.0483398438,        0.0288085938,       -0.4882812500,       -3.8452148438,       -0.2899169922
1489457242.6268339157,1489457242.6292419434,       -0.7382812500,        0.0483398438,        0.0288085938,       -0.3051757812,       -0.2441406250,       -0.2899169922
1489457242.6295180321,1489457242.6318070889,       -0.7397460938,        0.0429687500,        0.0288085938,       -0.3051757812,       -0.2441406250,       -0.2136230469
1489457242.6320829391,1489457242.6343719959,       -0.7397460938,        0.0429687500,        0.0288085938,       -0.5035400391,        0.0457763672,       -0.2136230469
1489457242.6346468925,1489457242.6369400024,       -0.7397460938,        0.0429687500,        0.0288085938,       -0.5035400391,        0.0457763672,       -0.2136230469
1489457242.6372139454,1489457242.6396379471,       -0.7397460938,        0.0429687500,        0.0288085938,       -0.6866455078,        0.3204345703,       -0.0915527344
1489457242.6399130821,1489457242.6422059536,       -0.7304687500,        0.0512695312,        0.0185546875,       -0.6866455078,        0.3204345703,       -0.0915527344
1489457242.6424810886,1489457242.6447749138,       -0.7304687500,        0.0512695312,        0.0185546875,       -0.7019042969,        0.2899169922,       -0.1068115234
1489457242.6450500488,1489457242.6473391056,       -0.7304687500,        0.0512695312,        0.0185546875,       -0.7019042969,        0.2899169922,       -0.1068115234
1489457242.6476130486,1489457242.6499719620,       -0.7304687500,        0.0512695312,        0.0185546875,       -0.4425048828,        0.2288818359,       -0.3967285156
1489457242.6502540112,1489457242.6526749134,       -0.7353515625,        0.0537109375,        0.0346679688,       -0.4425048828,        0.2288818359,       -0.3967285156
1489457242.6529579163,1489457242.6554589272,       -0.7353515625,        0.0537109375,        0.0346679688,       -0.4577636719,       -0.0610351562,       -0.4425048828
1489457242.6557428837,1489457242.6581521034,       -0.7353515625,        0.0537109375,        0.0346679688,       -0.4577636719,       -0.0610351562,       -0.4425048828
1489457242.6588571072,1489457242.6611490250,       -0.7353515625,        0.0537109375,        0.0288085938,       -0.8392333984,        0.2441406250,       -0.2899169922
1489457242.6614239216,1489457242.6637129784,       -0.7314453125,        0.0483398438,        0.0288085938,       -0.8392333984,        0.2441406250,       -0.2899169922
1489457242.6639850140,1489457242.6662790775,       -0.7314453125,        0.0483398438,        0.0288085938,       -0.4882812500,       -0.0457763672,       -0.3356933594
1489457242.6665520668,1489457242.6688818932,       -0.7314453125,        0.0483398438,        0.0288085938,       -0.4882812500,       -0.0457763672,       -0.3356933594
1489457242.6692709923,1489457242.6716799736,       -0.7314453125,        0.0483398438,        0.0312500000,       -0.6713867188,       -0.2441406250,       -0.3204345703
1489457242.6719639301,1489457242.6743810177,       -0.7358398438,        0.0522460938,        0.0312500000,       -0.6713867188,       -0.2441406250,       -0.3204345703
1489457242.6746630669,1489457242.6770799160,       -0.7358398438,        0.0522460938,        0.0312500000,       -0.7019042969,       -0.1525878906,       -0.2593994141
1489457242.6773629189,1489457242.6797819138,       -0.7358398438,        0.0522460938,        0.0312500000,       -0.7019042969,       -0.1525878906,       -0.2593994141
1489457242.6800630093,1489457242.6824769974,       -0.7290039062,        0.0541992188,        0.0175781250,       -0.2593994141,        0.0915527344,       -0.2593994141
1489457242.6827600002,1489457242.6851720810,       -0.7290039062,        0.0541992188,        0.0175781250,       -0.2593994141,        0.0915527344,       -0.2593994141
1489457242.6854538918,1489457242.6878700256,       -0.7290039062,        0.0541992188,        0.0175781250,       -0.5340576172,        0.2288818359,       -0.3204345703
1489457242.6881499290,1489457242.6904799938,       -0.7290039062,        0.0541992188,        0.0175781250,       -0.5340576172,        0.2288818359,       -0.3204345703
1489457242.6907548904,1489457242.6930449009,       -0.7392578125,        0.0502929688,        0.0307617188,       -0.1831054688,       -0.2288818359,       -0.5187988281
1489457242.6933190823,1489457242.6956140995,       -0.7392578125,        0.0502929688,        0.0307617188,       -0.1831054688,       -0.2288818359,       -0.5187988281
1489457242.6958870888,1489457242.6981790066,       -0.7392578125,        0.0502929688,        0.0307617188,        0.0457763672,       -0.4272460938,       -0.4882812500
1489457242.6984519958,1489457242.7008779049,       -0.7392578125,        0.0502929688,        0.0307617188,        0.0457763672,       -0.4272460938,       -0.4882812500
1489457242.7011520863,1489457242.7034449577,       -0.7294921875,        0.0522460938,        0.0268554688,       -0.1373291016,       -0.1678466797,       -0.3204345703
1489457242.7037179470,1489457242.7060110569,       -0.7294921875,        0.0522460938,        0.0268554688,       -0.1373291016,       -0.1678466797,       -0.3204345703
1489457242.7062849998,1489457242.7085769176,       -0.7294921875,        0.0522460938,        0.0268554688,       -0.1373291016,        0.3204345703,       -0.0305175781
1489457242.7089650631,1489457242.7112579346,       -0.7294921875,        0.0522460938,        0.0268554688,       -0.0762939453,        0.3204345703,       -0.0305175781
1489457242.7115330696,1489457242.7138249874,       -0.7382812500,        0.0483398438,        0.0273437500,       -0.0762939453,        0.3509521484,       -0.0457763672
1489457242.7141010761,1489457242.7163980007,       -0.7382812500,        0.0483398438,        0.0273437500,       -0.3204345703,        0.3509521484,       -0.0457763672
1489457242.7166740894,1489457242.7189769745,       -0.7382812500,        0.0483398438,        0.0273437500,       -0.3204345703,        0.3509521484,       -0.2593994141
1489457242.7192599773,1489457242.7216811180,       -0.7382812500,        0.0483398438,        0.0273437500,       -0.2899169922,       -0.0762939453,       -0.2593994141
1489457242.7219619751,1489457242.7243759632,       -0.7304687500,        0.0463867188,        0.0258789062,       -0.2899169922,       -0.0762939453,       -0.2441406250
1489457242.7246580124,1489457242.7270750999,       -0.7304687500,        0.0463867188,        0.0258789062,       -0.1068115234,       -0.0915527344,       -0.2441406250
1489457242.7273509502,1489457242.7297608852,       -0.7304687500,        0.0463867188,        0.0258789062,       -0.1068115234,       -0.0915527344,       -0.3967285156
1489457242.7300429344,1489457242.7324259281,       -0.7304687500,        0.0517578125,        0.0371093750,       -0.6103515625,        0.3509521484,       -0.3967285156
1489457242.7328150272,1489457242.7353179455,       -0.7397460938,        0.0517578125,        0.0371093750,       -0.6103515625,        0.3509521484,       -0.3814697266
1489457242.7355959415,1489457242.7378830910,       -0.7397460938,        0.0517578125,        0.0371093750,       -0.2136230469,        0.2899169922,       -0.3814697266
1489457242.7381570339,1489457242.7406198978,       -0.7397460938,        0.0517578125,        0.0371093750,       -0.2136230469,        0.2899169922,       -0.1068115234
1489457242.7408969402,1489457242.7431879044,       -0.7333984375,        0.0517578125,        0.0302734375,        0.0000000000,       -0.1525878906,       -0.1068115234
1489457242.7434630394,1489457242.7457509041,       -0.7333984375,        0.0517578125,        0.0302734375,        0.0000000000,       -0.1525878906,       -0.1068115234
1489457242.7460238934,1489457242.7483119965,       -0.7333984375,        0.0517578125,        0.0302734375,       -0.1373291016,        0.1983642578,       -0.1220703125
1489457242.7485868931,1489457242.7509269714,       -0.7333984375,        0.0517578125,        0.0302734375,       -0.1373291016,        0.1983642578,       -0.1220703125
1489457242.7512021065,1489457242.7534899712,       -0.7290039062,        0.0507812500,        0.0253906250,       -0.2136230469,        0.2593994141,        0.1373291016
1489457242.7537629604,1489457242.7560579777,       -0.7290039062,        0.0507812500,        0.0253906250,       -0.2136230469,        0.2593994141,        0.1373291016
1489457242.7563340664,1489457242.7586190701,       -0.7290039062,        0.0507812500,        0.0253906250,       -0.3356933594,       -0.0915527344,        0.0152587891
1489457242.7588939667,1489457242.7611799240,       -0.7290039062,        0.0507812500,        0.0253906250,       -0.3356933594,       -0.0915527344,        0.0152587891
1489457242.7614550591,1489457242.7637479305,       -0.7407226562,        0.0493164062,        0.0351562500,       -0.5493164062,       -0.0152587891,       -0.3967285156
1489457242.7640240192,1489457242.7663099766,       -0.7407226562,        0.0493164062,        0.0351562500,       -0.5493164062,       -0.0152587891,       -0.3967285156
1489457242.7665860653,1489457242.7688949108,       -0.7407226562,        0.0493164062,        0.0351562500,       -0.1068115234,       -0.0762939453,       -0.5340576172
1489457242.7691709995,1489457242.7714610100,       -0.7407226562,        0.0493164062,        0.0351562500,       -0.1068115234,       -0.0762939453,       -0.5340576172
1489457242.7717359066,1489457242.7740249634,       -0.7343750000,        0.0483398438,        0.0297851562,       -0.3814697266,        0.2441406250,       -0.2899169922
1489457242.7743010521,1489457242.7765870094,       -0.7343750000,        0.0483398438,        0.0297851562,       -0.3814697266,        0.2441406250,       -0.2899169922
1489457242.7768609524,1489457242.7791829109,       -0.7343750000,        0.0483398438,        0.0297851562,       -0.3814697266,        0.0762939453,       -0.5798339844
1489457242.7794570923,1489457242.7817480564,       -0.7343750000,        0.0483398438,        0.0297851562,        0.1068115234,        0.0762939453,       -0.5798339844
1489457242.7820210457,1489457242.7843179703,       -0.7343750000,        0.0473632812,        0.0224609375,        0.1068115234,        0.0762939453,       -0.6561279297
1489457242.7845919132,1489457242.7868809700,       -0.7343750000,        0.0473632812,        0.0224609375,        0.2288818359,       -0.1678466797,       -0.6561279297
1489457242.7871561050,1489457242.7895789146,       -0.7343750000,        0.0473632812,        0.0224609375,        0.2288818359,       -0.1678466797,       -0.2136230469
1489457242.7898540497,1489457242.7921481133,       -0.7343750000,        0.0473632812,        0.0224609375,       -0.4425048828,        0.2136230469,       -0.2136230469
1489457242.7924230099,1489457242.7947089672,       -0.7382812500,        0.0522460938,        0.0332031250,       -0.4425048828,        0.2136230469,       -0.2136230469
1489457242.7950940132,1489457242.7973849773,       -0.7382812500,        0.0522460938,        0.0332031250,       -0.5340576172,        0.3356933594,       -0.1068115234
1489457242.7976629734,1489457242.7999899387,       -0.7382812500,        0.0522460938,        0.0332031250,       -0.5340576172,        0.3356933594,       -0.1068115234
1489457242.8002650738,1489457242.8025510311,       -0.7382812500,        0.0522460938,        0.0317382812,       -0.3662109375,        0.2288818359,       -0.2441406250
1489457242.8028259277,1489457242.8051130772,       -0.7338867188,        0.0483398438,        0.0317382812,       -0.3662109375,        0.2288818359,       -0.2441406250
1489457242.8053870201,1489457242.8076729774,       -0.7338867188,        0.0483398438,        0.0317382812,        0.4119873047,       -0.2288818359,       -0.7171630859
1489457242.8079459667,1489457242.8102459908,       -0.7338867188,        0.0483398438,        0.0317382812,        0.4119873047,       -0.2288818359,       -0.7171630859
1489457242.8105208874,1489457242.8128180504,       -0.7338867188,        0.0483398438,        0.0307617188,       -0.0915527344,        0.1220703125,       -0.5035400391
1489457242.8130950928,1489457242.8153870106,       -0.7363281250,        0.0502929688,        0.0307617188,       -0.0915527344,        0.1220703125,       -0.5035400391
1489457242.8156630993,1489457242.8179581165,       -0.7363281250,        0.0502929688,        0.0307617188,        0.0762939453,       -0.1220703125,       -0.1068115234
1489457242.8182330132,1489457242.8206610680,       -0.7363281250,        0.0502929688,        0.0307617188,        0.0762939453,       -0.1220703125,       -0.1068115234
1489457242.8209440708,1489457242.8233571053,       -0.7363281250,        0.0478515625,        0.0166015625,       -0.2288818359,       -0.0305175781,       -0.0457763672
1489457242.8236401081,1489457242.8260560036,       -0.7319335938,        0.0478515625,        0.0166015625,       -0.2288818359,       -0.0305175781,       -0.0457763672
1489457242.8263359070,1489457242.8290081024,       -0.7319335938,        0.0478515625,        0.0166015625,        0.1373291016,       -0.0152587891,       -0.2593994141
1489457242.8292899132,1489457242.8316669464,       -0.7319335938,        0.0478515625,        0.0166015625,        0.1373291016,       -0.0152587891,       -0.2593994141
1489457242.8319470882,1489457242.8343329430,       -0.7338867188,        0.0527343750,        0.0375976562,        0.4730224609,       -0.3204345703,       -0.2593994141
1489457242.8354580402,1489457242.8377509117,       -0.7338867188,        0.0527343750,        0.0375976562,        0.4730224609,       -0.3204345703,       -0.2593994141
1489457242.8380279541,1489457242.8403871059,       -0.7338867188,        0.0527343750,        0.0375976562,        0.1678466797,       -0.1525878906,       -0.1831054688
1489457242.8406620026,1489457242.8429529667,       -0.7338867188,        0.0527343750,        0.0263671875,        0.1678466797,       -0.1525878906,       -0.1831054688
1489457242.8432269096,1489457242.8455140591,       -0.7373046875,        0.0478515625,        0.0263671875,        0.1678466797,        0.0610351562,       -0.0762939453
1489457242.8457870483,1489457242.8480780125,       -0.7373046875,        0.0478515625,        0.0263671875,        0.1678466797,        0.0610351562,       -0.0762939453
1489457242.8483519554,1489457242.8506469727,       -0.7373046875,        0.0478515625,        0.0263671875,        0.0305175781,       -0.1373291016,       -0.1220703125
1489457242.8509221077,1489457242.8532090187,       -0.7373046875,        0.0478515625,        0.0341796875,        0.0305175781,       -0.1373291016,       -0.1220703125
1489457242.8534829617,1489457242.8557689190,       -0.7392578125,        0.0546875000,        0.0341796875,        0.0000000000,       -0.1678466797,        0.0915527344
1489457242.8560440540,1489457242.8583300114,       -0.7392578125,        0.0546875000,        0.0341796875,        0.0000000000,       -0.1678466797,        0.0915527344
1489457242.8587141037,1489457242.8610138893,       -0.7392578125,        0.0546875000,        0.0341796875,        0.0000000000,       -0.1678466797,       -0.5035400391
1489457242.8612899780,1489457242.8635740280,       -0.7392578125,        0.0468750000,        0.0278320312,        0.1220703125,       -0.1678466797,       -0.5035400391
1489457242.8638510704,1489457242.8661379814,       -0.7377929688,        0.0468750000,        0.0278320312,        0.1220703125,       -0.1678466797,       -0.7324218750
1489457242.8664140701,1489457242.8687019348,       -0.7377929688,        0.0468750000,        0.0278320312,        0.2899169922,       -0.3662109375,       -0.7324218750
1489457242.8689761162,1489457242.8712639809,       -0.7377929688,        0.0468750000,        0.0278320312,        0.2899169922,       -0.3662109375,       -0.3204345703
1489457242.8715379238,1489457242.8738229275,       -0.7377929688,        0.0527343750,        0.0327148438,        0.3814697266,        0.0305175781,       -0.3204345703
1489457242.8740971088,1489457242.8763830662,       -0.7285156250,        0.0527343750,        0.0327148438,        0.3814697266,        0.0305175781,       -0.3204345703
1489457242.8766560555,1489457242.8790109158,       -0.7285156250,        0.0527343750,        0.0327148438,       -0.1220703125,       -0.0305175781,       -0.1983642578
1489457242.8792870045,1489457242.8815839291,       -0.7285156250,        0.0527343750,        0.0327148438,       -0.1220703125,       -0.0305175781,       -0.1983642578
1489457242.8818600178,1489457242.8841569424,       -0.7285156250,        0.0527343750,        0.0219726562,        0.0610351562,       -0.4577636719,       -0.7629394531
1489457242.8844299316,1489457242.8867239952,       -0.7373046875,        0.0527343750,        0.0219726562,        0.0610351562,       -0.4577636719,       -0.7629394531
1489457242.8869969845,1489457242.8893389702,       -0.7373046875,        0.0527343750,        0.0219726562,        0.3051757812,       -0.5187988281,       -0.6713867188
1489457242.8896229267,1489457242.8920400143,       -0.7373046875,        0.0527343750,        0.0219726562,        0.3051757812,       -0.5187988281,       -0.6713867188
1489457242.8923230171,1489457242.8947420120,       -0.7348632812,        0.0576171875,        0.0170898438,        0.3814697266,       -0.3509521484,       -0.6103515625
1489457242.8950259686,1489457242.8974390030,       -0.7348632812,        0.0576171875,        0.0170898438,        0.3814697266,       -0.3509521484,       -0.6103515625
1489457242.8977220058,1489457242.9000880718,       -0.7348632812,        0.0576171875,        0.0170898438,       -0.5493164062,        0.2288818359,       -0.1373291016
1489457242.9003620148,1489457242.9026539326,       -0.7348632812,        0.0576171875,        0.0170898438,       -0.5493164062,        0.2288818359,       -0.1373291016
1489457242.9029281139,1489457242.9052190781,       -0.7368164062,        0.0488281250,        0.0175781250,       -0.1525878906,        0.1068115234,       -0.1068115234
1489457242.9054939747,1489457242.9077880383,       -0.7368164062,        0.0488281250,        0.0175781250,       -0.1525878906,        0.1068115234,       -0.1068115234
1489457242.9080629349,1489457242.9104919434,       -0.7368164062,        0.0488281250,        0.0175781250,        0.2899169922,       -0.4272460938,       -0.6103515625
1489457242.9107749462,1489457242.9131898880,       -0.7368164062,        0.0488281250,        0.0175781250,        0.2899169922,       -0.4272460938,       -0.6103515625
1489457242.9134728909,1489457242.9158871174,       -0.7368164062,        0.0458984375,        0.0312500000,        0.1525878906,       -0.2288818359,       -0.6256103516
1489457242.9161698818,1489457242.9185860157,       -0.7368164062,        0.0458984375,        0.0312500000,        0.1525878906,       -0.2288818359,       -0.6256103516
1489457242.9188768864,1489457242.9212930202,       -0.7368164062,        0.0458984375,        0.0312500000,        0.1983642578,       -0.1678466797,       -0.4119873047
1489457242.9216830730,1489457242.9241030216,       -0.7368164062,        0.0458984375,        0.0312500000,        0.1983642578,       -0.1678466797,       -0.4119873047
1489457242.9243860245,1489457242.9267990589,       -0.7363281250,        0.0483398438,        0.0312500000,       -0.1068115234,       -0.0762939453,       -0.2136230469
1489457242.9270799160,1489457242.9295101166,       -0.7363281250,        0.0483398438,        0.0312500000,       -0.1068115234,       -0.0762939453,       -0.2136230469
1489457242.9297919273,1489457242.9322090149,       -0.7363281250,        0.0483398438,        0.0312500000,       -0.3051757812,        0.1068115234,       -0.0915527344
1489457242.9324920177,1489457242.9349050522,       -0.7392578125,        0.0473632812,        0.0244140625,       -0.3051757812,        0.1068115234,       -0.0915527344
1489457242.9351859093,1489457242.9376039505,       -0.7392578125,        0.0473632812,        0.0244140625,       -0.3356933594,       -0.0610351562,        0.2441406250
1489457242.9378879070,1489457242.9403209686,       -0.7392578125,        0.0473632812,        0.0244140625,       -0.3356933594,       -0.0610351562,        0.2441406250
1489457242.9406030178,1489457242.9430150986,       -0.7392578125,        0.0473632812,        0.0244140625,       -0.5950927734,       -0.2441406250,       -0.0305175781
1489457242.9432959557,1489457242.9457941055,       -0.7431640625,        0.0512695312,        0.0356445312,       -0.5950927734,       -0.2441406250,       -0.0305175781
1489457242.9460749626,1489457242.9484920502,       -0.7431640625,        0.0512695312,        0.0356445312,       -0.3051757812,       -0.1678466797,       -0.0152587891
1489457242.9487719536,1489457242.9511129856,       -0.7431640625,        0.0512695312,        0.0356445312,       -0.3051757812,       -0.1678466797,       -0.0152587891
1489457242.9513869286,1489457242.9536769390,       -0.7431640625,        0.0512695312,        0.0356445312,        0.1831054688,        0.0152587891,        0.3051757812
1489457242.9539508820,1489457242.9562449455,       -0.7353515625,        0.0493164062,        0.0224609375,        0.1831054688,        0.0152587891,        0.3051757812
1489457242.9565188885,1489457242.9588820934,       -0.7353515625,        0.0493164062,        0.0224609375,        0.1831054688,       -0.2746582031,        0.0915527344
1489457242.9591639042,1489457242.9615790844,       -0.7353515625,        0.0493164062,        0.0224609375,        0.0152587891,       -0.2746582031,        0.0915527344
1489457242.9618599415,1489457242.9642748833,       -0.7353515625,        0.0493164062,        0.0278320312,        0.0152587891,       -0.2899169922,        0.1525878906
1489457242.9645559788,1489457242.9669759274,       -0.7348632812,        0.0541992188,        0.0278320312,        0.1373291016,       -0.2899169922,        0.1525878906
1489457242.9672560692,1489457242.9696888924,       -0.7348632812,        0.0541992188,        0.0278320312,        0.1373291016,       -0.2441406250,        0.0762939453
1489457242.9699699879,1489457242.9723858833,       -0.7348632812,        0.0541992188,        0.0278320312,       -0.3662109375,       -0.2441406250,        0.0762939453
1489457242.9726669788,1489457242.9750781059,       -0.7348632812,        0.0527343750,        0.0307617188,       -0.3662109375,       -0.0152587891,        0.0610351562
1489457242.9753611088,1489457242.9777710438,       -0.7299804688,        0.0527343750,        0.0307617188,       -0.5645751953,       -0.0152587891,        0.0610351562
1489457242.9780519009,1489457242.9804029465,       -0.7299804688,        0.0527343750,        0.0307617188,       -0.5645751953,       -0.0152587891,       -0.1068115234
1489457242.9806799889,1489457242.9829709530,       -0.7299804688,        0.0527343750,        0.0307617188,       -0.0152587891,       -0.2593994141,       -0.1068115234
1489457242.9832470417,1489457242.9855349064,       -0.7363281250,        0.0468750000,        0.0297851562,       -0.0152587891,       -0.2593994141,       -0.1068115234
1489457242.9859149456,1489457242.9882130623,       -0.7363281250,        0.0468750000,        0.0297851562,       -0.3662109375,       -0.2288818359,       -0.1068115234
1489457242.9884860516,1489457242.9909229279,       -0.7363281250,        0.0468750000,        0.0297851562,       -0.3662109375,       -0.2288818359,       -0.0152587891
1489457242.9911990166,1489457242.9934959412,       -0.7363281250,        0.0468750000,        0.0297851562,       -0.3204345703,        0.0152587891,       -0.0152587891
1489457242.9937710762,1489457242.9960610867,       -0.7304687500,        0.0493164062,        0.0170898438,       -0.3204345703,        0.0152587891,       -0.0152587891
1489457242.9963340759,1489457242.9986269474,       -0.7304687500,        0.0493164062,        0.0170898438,       -0.1831054688,       -0.1373291016,       -0.1525878906
1489457242.9989678860,1489457243.0012800694,       -0.7304687500,        0.0493164062,        0.0170898438,       -0.1831054688,       -0.1373291016,       -0.1525878906
1489457243.0015580654,1489457243.0038540363,       -0.7304687500,        0.0493164062,        0.0170898438,       -0.3509521484,       -0.2136230469,       -0.1831054688
1489457243.0041289330,1489457243.0064170361,       -0.7412109375,        0.0468750000,        0.0292968750,       -0.3509521484,       -0.2136230469,       -0.1831054688
1489457243.0066928864,1489457243.0090489388,       -0.7412109375,        0.0468750000,        0.0292968750,       -0.6408691406,        0.2288818359,       -0.1220703125
1489457243.0093319416,1489457243.0117459297,       -0.7412109375,        0.0468750000,        0.0292968750,       -0.6408691406,        0.2288818359,       -0.1220703125
1489457243.0120289326,1489457243.0144500732,       -0.7412109375,        0.0468750000,        0.0292968750,       -0.1678466797,        0.1831054688,        0.0610351562
1489457243.0147309303,1489457243.0171439648,       -0.7377929688,        0.0493164062,        0.0273437500,       -0.1678466797,        0.1831054688,        0.0610351562
1489457243.0174241066,1489457243.0198569298,       -0.7377929688,        0.0493164062,        0.0273437500,        0.1525878906,       -0.0610351562,       -0.0610351562
1489457243.0201399326,1489457243.0225570202,       -0.7377929688,        0.0493164062,        0.0273437500,        0.1525878906,       -0.0610351562,       -0.0610351562
1489457243.0228390694,1489457243.0252490044,       -0.7377929688,        0.0468750000,        0.0224609375,        0.1068115234,       -0.5493164062,       -0.7629394531
1489457243.0255310535,1489457243.0279450417,       -0.7392578125,        0.0468750000,        0.0224609375,        0.1068115234,       -0.5493164062,       -0.7629394531
1489457243.0282270908,1489457243.0306599140,       -0.7392578125,        0.0468750000,        0.0224609375,        0.3051757812,       -0.3509521484,       -0.4577636719
1489457243.0309410095,1489457243.0333530903,       -0.7392578125,        0.0468750000,        0.0224609375,        0.3051757812,       -0.3509521484,       -0.4577636719
1489457243.0336389542,1489457243.0360639095,       -0.7353515625,        0.0527343750,        0.0288085938,        0.2136230469,       -0.5035400391,       -0.0152587891
1489457243.0363409519,1489457243.0386259556,       -0.7353515625,        0.0527343750,        0.0288085938,        0.2136230469,       -0.5035400391,       -0.0152587891
1489457243.0389709473,1489457243.0413699150,       -0.7353515625,        0.0527343750,        0.0288085938,       -0.0610351562,       -0.3204345703,       -0.1983642578
1489457243.0416510105,1489457243.0440309048,       -0.7353515625,        0.0527343750,        0.0288085938,       -0.0610351562,       -0.3204345703,       -0.1983642578
1489457243.0444140434,1489457243.0467970371,       -0.7353515625,        0.0498046875,        0.0346679688,       -0.6256103516,       -0.1831054688,        0.0000000000
1489457243.0470778942,1489457243.0496270657,       -0.7353515625,        0.0498046875,        0.0346679688,       -0.6256103516,       -0.1831054688,        0.0000000000
1489457243.0500171185,1489457243.0523090363,       -0.7353515625,        0.0498046875,        0.0346679688,       -0.3509521484,       -0.3662109375,       -0.3509521484
1489457243.0525848866,1489457243.0548720360,       -0.7353515625,        0.0498046875,        0.0346679688,       -0.3509521484,       -0.3662109375,       -0.3509521484
1489457243.0551469326,1489457243.0574419498,       -0.7319335938,        0.0546875000,        0.0209960938,       -0.4119873047,       -0.3814697266,       -0.3509521484
1489457243.0577180386,1489457243.0600800514,       -0.7319335938,        0.0546875000,        0.0209960938,       -0.4119873047,       -0.3814697266,       -0.3509521484
1489457243.0603609085,1489457243.0627639294,       -0.7319335938,        0.0546875000,        0.0209960938,        0.2899169922,       -0.5950927734,       -0.7171630859
1489457243.0630440712,1489457243.0654459000,       -0.7319335938,        0.0546875000,        0.0336914062,        0.2899169922,       -0.5950927734,       -0.7171630859
1489457243.0657269955,1489457243.0681259632,       -0.7314453125,        0.0512695312,        0.0336914062,        0.0152587891,       -0.5493164062,       -0.5187988281
1489457243.0684070587,1489457243.0708189011,       -0.7314453125,        0.0512695312,        0.0336914062,        0.0152587891,       -0.5493164062,       -0.5187988281
1489457243.0710999966,1489457243.0735030174,       -0.7314453125,        0.0512695312,        0.0336914062,       -0.7324218750,       -0.2441406250,       -0.1525878906
1489457243.0737829208,1489457243.0761849880,       -0.7373046875,        0.0458984375,        0.0332031250,       -0.7324218750,       -0.2441406250,       -0.1525878906
1489457243.0764639378,1489457243.0788719654,       -0.7373046875,        0.0458984375,        0.0332031250,       -0.8239746094,       -0.2746582031,       -0.2746582031
1489457243.0791459084,1489457243.0814380646,       -0.7373046875,        0.0458984375,        0.0332031250,       -0.8239746094,       -0.2746582031,       -0.2746582031
1489457243.0817120075,1489457243.0840051174,       -0.7373046875,        0.0458984375,        0.0332031250,       -0.8239746094,       -0.4425048828,       -0.3356933594
1489457243.0842790604,1489457243.0865709782,       -0.7333984375,        0.0468750000,        0.0278320312,       -0.6103515625,       -0.4425048828,       -0.3356933594
1489457243.0868470669,1489457243.0891449451,       -0.7333984375,        0.0468750000,        0.0278320312,       -0.6103515625,       -0.4425048828,       -0.4425048828
1489457243.0894188881,1489457243.0917129517,       -0.7333984375,        0.0468750000,        0.0278320312,       -0.4425048828,       -0.1525878906,       -0.4425048828
1489457243.0919859409,1489457243.0942780972,       -0.7333984375,        0.0468750000,        0.0278320312,       -0.4425048828,       -0.1525878906,       -0.5950927734
1489457243.0945529938,1489457243.0968439579,       -0.7280273438,        0.0517578125,        0.0234375000,       -0.4272460938,       -0.3356933594,       -0.5950927734
1489457243.0971200466,1489457243.0995678902,       -0.7280273438,        0.0517578125,        0.0234375000,       -0.4272460938,       -0.3356933594,       -0.5950927734
1489457243.0998449326,1489457243.1021370888,       -0.7280273438,        0.0517578125,        0.0234375000,       -0.3509521484,       -0.4119873047,       -0.4272460938
1489457243.1024119854,1489457243.1047029495,       -0.7280273438,        0.0517578125,        0.0234375000,       -0.3509521484,       -0.4119873047,       -0.4272460938
1489457243.1049768925,1489457243.1072700024,       -0.7382812500,        0.0546875000,        0.0375976562,       -0.5035400391,       -0.4730224609,       -0.1983642578
1489457243.1075448990,1489457243.1100490093,       -0.7382812500,        0.0546875000,        0.0375976562,       -0.5035400391,       -0.4730224609,       -0.1983642578
1489457243.1103339195,1489457243.1127479076,       -0.7382812500,        0.0546875000,        0.0375976562,       -0.7324218750,        0.0000000000,       -0.3356933594
1489457243.1131300926,1489457243.1155529022,       -0.7382812500,        0.0546875000,        0.0375976562,       -0.7324218750,        0.0000000000,       -0.3356933594
1489457243.1158380508,1489457243.1182489395,       -0.7314453125,        0.0468750000,        0.0229492188,       -0.2899169922,       -0.1678466797,       -0.9002685547
1489457243.1185309887,1489457243.1209540367,       -0.7314453125,        0.0468750000,        0.0229492188,       -0.2899169922,       -0.1678466797,       -0.9002685547
1489457243.1212360859,1489457243.1236500740,       -0.7314453125,        0.0468750000,        0.0229492188,       -0.0762939453,       -0.2746582031,       -0.5035400391
1489457243.1239318848,1489457243.1263439655,       -0.7314453125,        0.0532226562,        0.0361328125,       -0.0762939453,       -0.2746582031,       -0.5035400391
1489457243.1266260147,1489457243.1290519238,       -0.7373046875,        0.0532226562,        0.0361328125,        0.3814697266,       -0.4425048828,       -0.4730224609
1489457243.1293349266,1489457243.1317479610,       -0.7373046875,        0.0532226562,        0.0361328125,        0.3814697266,       -0.4425048828,       -0.4730224609
1489457243.1320300102,1489457243.1344480515,       -0.7373046875,        0.0532226562,        0.0361328125,        0.2746582031,       -0.5035400391,       -0.5950927734
1489457243.1347310543,1489457243.1371459961,       -0.7309570312,        0.0527343750,        0.0253906250,        0.2746582031,       -0.5035400391,       -0.5950927734
1489457243.1374289989,1489457243.1398611069,       -0.7309570312,        0.0527343750,        0.0253906250,        0.0152587891,       -0.4119873047,       -0.6713867188
1489457243.1401429176,1489457243.1425609589,       -0.7309570312,        0.0527343750,        0.0253906250,        0.0152587891,       -0.4119873047,       -0.6713867188
1489457243.1428439617,1489457243.1452579498,       -0.7309570312,        0.0527343750,        0.0253906250,        0.0762939453,       -0.1678466797,       -0.3662109375
1489457243.1455390453,1489457243.1479549408,       -0.7319335938,        0.0478515625,        0.0214843750,        0.0762939453,       -0.1678466797,       -0.3662109375
1489457243.1482360363,1489457243.1507270336,       -0.7319335938,        0.0478515625,        0.0214843750,        0.0305175781,       -0.1068115234,       -0.5645751953
1489457243.1510090828,1489457243.1534280777,       -0.7319335938,        0.0478515625,        0.0214843750,        0.0305175781,       -0.1068115234,       -0.5645751953
1489457243.1537089348,1489457243.1561229229,       -0.7319335938,        0.0478515625,        0.0332031250,        0.0915527344,       -0.2593994141,       -0.5798339844
1489457243.1564040184,1489457243.1588358879,       -0.7392578125,        0.0473632812,        0.0332031250,        0.0915527344,       -0.2593994141,       -0.5798339844
1489457243.1591210365,1489457243.1615359783,       -0.7392578125,        0.0473632812,        0.0332031250,        0.0915527344,       -0.3051757812,       -0.4577636719
1489457243.1618189812,1489457243.1642379761,       -0.7392578125,        0.0473632812,        0.0332031250,        0.0915527344,       -0.3051757812,       -0.4577636719
1489457243.1645190716,1489457243.1671619415,       -0.7392578125,        0.0517578125,        0.0219726562,       -0.2441406250,       -0.2899169922,       -0.1678466797
1489457243.1674449444,1489457243.1701979637,       -0.7358398438,        0.0517578125,        0.0219726562,       -0.2441406250,       -0.2899169922,       -0.1678466797
1489457243.1704831123,1489457243.1728940010,       -0.7358398438,        0.0517578125,        0.0219726562,       -0.3509521484,        0.0305175781,       -0.0152587891
1489457243.1731760502,1489457243.1755928993,       -0.7358398438,        0.0517578125,        0.0219726562,       -0.3509521484,        0.0305175781,       -0.0152587891
1489457243.1758739948,1489457243.1782929897,       -0.7353515625,        0.0522460938,        0.0258789062,       -0.4730224609,       -0.2288818359,       -0.2899169922
1489457243.1785719395,1489457243.1810369492,       -0.7353515625,        0.0522460938,        0.0258789062,       -0.4730224609,       -0.2288818359,       -0.2899169922
1489457243.1814260483,1489457243.1838390827,       -0.7353515625,        0.0522460938,        0.0258789062,       -0.0457763672,       -0.2746582031,       -0.5340576172
1489457243.1841208935,1489457243.1865379810,       -0.7353515625,        0.0522460938,        0.0195312500,       -0.0457763672,       -0.2746582031,       -0.5340576172
1489457243.1868200302,1489457243.1892430782,       -0.7348632812,        0.0512695312,        0.0195312500,       -0.2593994141,       -0.1831054688,       -0.3204345703
1489457243.1895260811,1489457243.1919379234,       -0.7348632812,        0.0512695312,        0.0195312500,       -0.2593994141,       -0.1831054688,       -0.3204345703
1489457243.1922209263,1489457243.1946330070,       -0.7348632812,        0.0512695312,        0.0195312500,       -0.2288818359,        0.0000000000,       -0.2746582031
1489457243.1949150562,1489457243.1973309517,       -0.7348632812,        0.0502929688,        0.0307617188,       -0.2288818359,        0.0000000000,       -0.2746582031
1489457243.1976110935,1489457243.1999781132,       -0.7368164062,        0.0502929688,        0.0307617188,        0.1220703125,       -0.3204345703,       -0.3967285156
1489457243.2002520561,1489457243.2025411129,       -0.7368164062,        0.0502929688,        0.0307617188,        0.1220703125,       -0.3204345703,       -0.3967285156
1489457243.2028160095,1489457243.2051029205,       -0.7368164062,        0.0502929688,        0.0307617188,        0.2899169922,       -0.3967285156,       -0.5645751953
1489457243.2053759098,1489457243.2076749802,       -0.7319335938,        0.0463867188,        0.0209960938,        0.2899169922,       -0.3967285156,       -0.5645751953
1489457243.2079470158,1489457243.2102499008,       -0.7319335938,        0.0463867188,        0.0209960938,        0.3356933594,       -0.5340576172,       -0.5340576172
1489457243.2105228901,1489457243.2128140926,       -0.7319335938,        0.0463867188,        0.0209960938,        0.3356933594,       -0.5340576172,       -0.5340576172
1489457243.2130880356,1489457243.2153830528,       -0.7319335938,        0.0463867188,        0.0209960938,       -0.2593994141,       -0.1068115234,       -0.2136230469
1489457243.2156569958,1489457243.2179520130,       -0.7382812500,        0.0512695312,        0.0190429688,       -0.2593994141,       -0.1068115234,       -0.2136230469
1489457243.2182269096,1489457243.2206768990,       -0.7382812500,        0.0512695312,        0.0190429688,       -0.3204345703,        0.0305175781,       -0.1525878906
1489457243.2209539413,1489457243.2232499123,       -0.7382812500,        0.0512695312,        0.0190429688,       -0.3204345703,        0.0305175781,       -0.1525878906
1489457243.2235240936,1489457243.2258090973,       -0.7382812500,        0.0512695312,        0.0190429688,        0.1220703125,       -0.1678466797,       -0.4730224609
1489457243.2260849476,1489457243.2283809185,       -0.7353515625,        0.0483398438,        0.0224609375,        0.1220703125,       -0.1678466797,       -0.4730224609
1489457243.2286560535,1489457243.2311840057,       -0.7353515625,        0.0483398438,        0.0224609375,        0.1220703125,       -0.2441406250,       -0.5340576172
1489457243.2314660549,1489457243.2338850498,       -0.7353515625,        0.0483398438,        0.0224609375,        0.0305175781,       -0.2441406250,       -0.5340576172
1489457243.2341670990,1489457243.2365829945,       -0.7353515625,        0.0483398438,        0.0224609375,       -3.8757324219,       -0.0457763672,       -0.4119873047
1489457243.2368650436,1489457243.2392930984,       -0.7338867188,        0.0537109375,        0.0214843750,       -0.3662109375,       -0.0457763672,       -0.4119873047
1489457243.2395749092,1489457243.2419919968,       -0.7338867188,        0.0537109375,        0.0214843750,       -0.3662109375,        0.0610351562,       -0.2593994141
1489457243.2422719002,1489457243.2446880341,       -0.7338867188,        0.0537109375,        0.0214843750,       -0.2288818359,        0.0610351562,       -0.2593994141
1489457243.2450759411,1489457243.2474899292,       -0.7338867188,        0.0478515625,        0.0336914062,       -0.2288818359,       -0.3356933594,       -0.1373291016
1489457243.2477710247,1489457243.2501630783,       -0.7343750000,        0.0478515625,        0.0336914062,       -0.1678466797,       -0.3356933594,       -0.1373291016
1489457243.2504389286,1489457243.2527279854,       -0.7343750000,        0.0478515625,        0.0336914062,       -0.1678466797,       -0.3814697266,       -0.3967285156
1489457243.2530009747,1489457243.2552909851,       -0.7343750000,        0.0478515625,        0.0336914062,       -0.4730224609,       -0.3814697266,       -0.3967285156
1489457243.2555649281,1489457243.2578580379,       -0.7397460938,        0.0507812500,        0.0288085938,       -0.4730224609,       -0.3814697266,       -0.4577636719
1489457243.2581319809,1489457243.2605330944,       -0.7397460938,        0.0507812500,        0.0288085938,       -0.4882812500,       -0.1068115234,       -0.4577636719
1489457243.2608180046,1489457243.2632339001,       -0.7397460938,        0.0507812500,        0.0288085938,       -0.4882812500,       -0.1068115234,       -0.4272460938
1489457243.2635180950,1489457243.2659339905,       -0.7397460938,        0.0507812500,        0.0288085938,       -0.1068115234,       -0.2899169922,       -0.4272460938
1489457243.2662169933,1489457243.2686340809,       -0.7299804688,        0.0468750000,        0.0263671875,       -0.1068115234,       -0.2899169922,       -0.6561279297
1489457243.2689249516,1489457243.2712209225,       -0.7299804688,        0.0468750000,        0.0263671875,        0.3814697266,       -0.6103515625,       -0.6561279297
1489457243.2714951038,1489457243.2737829685,       -0.7299804688,        0.0468750000,        0.0263671875,        0.3814697266,       -0.6103515625,       -0.6561279297
1489457243.2740581036,1489457243.2763469219,       -0.7299804688,        0.0468750000,        0.0263671875,       -0.0915527344,       -0.2593994141,       -0.2899169922
1489457243.2766220570,1489457243.2789120674,       -0.7309570312,        0.0546875000,        0.0234375000,       -0.0915527344,       -0.2593994141,       -0.2899169922
1489457243.2791879177,1489457243.2814810276,       -0.7309570312,        0.0546875000,        0.0234375000,       -0.4882812500,       -0.0305175781,       -0.2899169922
1489457243.2817571163,1489457243.2840499878,       -0.7309570312,        0.0546875000,        0.0234375000,       -0.4882812500,       -0.0305175781,       -0.2899169922
1489457243.2843248844,1489457243.2866990566,       -0.7309570312,        0.0546875000,        0.0234375000,       -0.4882812500,        0.1831054688,        0.0305175781
1489457243.2869739532,1489457243.2892720699,       -0.7387695312,        0.0517578125,        0.0263671875,       -0.4882812500,        0.1831054688,        0.0305175781
1489457243.2895469666,1489457243.2918388844,       -0.7387695312,        0.0517578125,        0.0263671875,       -0.4882812500,        0.1068115234,       -0.2899169922
1489457243.2921140194,1489457243.2944018841,       -0.7387695312,        0.0517578125,        0.0263671875,       -0.4882812500,        0.1068115234,       -0.2899169922
1489457243.2946779728,1489457243.2969720364,       -0.7387695312,        0.0517578125,        0.0263671875,       -0.4425048828,        0.0000000000,       -0.7324218750
1489457243.2972459793,1489457243.2995340824,       -0.7250976562,        0.0532226562,        0.0258789062,       -0.4425048828,        0.0000000000,       -0.7324218750
1489457243.2998089790,1489457243.3020970821,       -0.7250976562,        0.0532226562,        0.0258789062,       -0.4425048828,       -0.0610351562,       -0.6561279297
1489457243.3023719788,1489457243.3046610355,       -0.7250976562,        0.0532226562,        0.0258789062,       -0.4425048828,       -0.0610351562,       -0.6561279297
1489457243.3049340248,1489457243.3072218895,       -0.7250976562,        0.0532226562,        0.0258789062,       -0.4425048828,       -0.4119873047,       -0.8087158203
1489457243.3076019287,1489457243.3099019527,       -0.7431640625,        0.0444335938,        0.0317382812,       -0.0152587891,       -0.4119873047,       -0.8087158203
1489457243.3101758957,1489457243.3124749660,       -0.7431640625,        0.0444335938,        0.0317382812,       -0.0152587891,        0.0000000000,       -0.7324218750
1489457243.3127489090,1489457243.3150351048,       -0.7431640625,        0.0444335938,        0.0317382812,       -0.1983642578,        0.0000000000,       -0.7324218750
1489457243.3153090477,1489457243.3176081181,       -0.7431640625,        0.0444335938,        0.0234375000,       -0.1983642578,        0.0000000000,       -0.7934570312
1489457243.3178839684,1489457243.3202259541,       -0.7358398438,        0.0527343750,        0.0234375000,        0.0610351562,       -0.0457763672,       -0.7934570312
1489457243.3205020428,1489457243.3227880001,       -0.7358398438,        0.0527343750,        0.0234375000,        0.0610351562,       -0.0457763672,       -0.7934570312
1489457243.3230628967,1489457243.3253600597,       -0.7358398438,        0.0527343750,        0.0234375000,        0.1831054688,       -0.5035400391,       -0.6103515625
1489457243.3256349564,1489457243.3279209137,       -0.7358398438,        0.0527343750,        0.0244140625,        0.1831054688,       -0.5035400391,       -0.6103515625
1489457243.3281960487,1489457243.3305160999,       -0.7377929688,        0.0478515625,        0.0244140625,        0.1525878906,       -0.1983642578,       -0.5187988281
1489457243.3307909966,1489457243.3330800533,       -0.7377929688,        0.0478515625,        0.0244140625,        0.1525878906,       -0.1983642578,       -0.5187988281
1489457243.3333539963,1489457243.3356399536,       -0.7377929688,        0.0478515625,        0.0244140625,       -0.1373291016,       -0.7171630859,       -0.7781982422
1489457243.3359138966,1489457243.3382050991,       -0.7377929688,        0.0463867188,        0.0200195312,       -0.1373291016,       -0.7171630859,       -0.7781982422
1489457243.3384799957,1489457243.3410570621,       -0.7353515625,        0.0463867188,        0.0200195312,        0.3662109375,       -0.7629394531,       -0.8850097656
1489457243.3413341045,1489457243.3436288834,       -0.7353515625,        0.0463867188,        0.0200195312,        0.3662109375,       -0.7629394531,       -0.8850097656
1489457243.3439040184,1489457243.3461980820,       -0.7353515625,        0.0463867188,        0.0200195312,        0.3509521484,       -0.6561279297,       -0.5950927734
1489457243.3464739323,1489457243.3487629890,       -0.7368164062,        0.0561523438,        0.0283203125,        0.3509521484,       -0.6561279297,       -0.5950927734
1489457243.3492369652,1489457243.3515279293,       -0.7368164062,        0.0561523438,        0.0283203125,        0.2441406250,       -0.4272460938,       -0.6408691406
1489457243.3518021107,1489457243.3540949821,       -0.7368164062,        0.0561523438,        0.0283203125,        0.2441406250,       -0.4272460938,       -0.6408691406
1489457243.3544518948,1489457243.3567469120,       -0.7368164062,        0.0561523438,        0.0283203125,       -0.2593994141,        0.0762939453,       -0.2899169922
1489457243.3570220470,1489457243.3600540161,       -0.7387695312,        0.0493164062,        0.0302734375,       -0.2593994141,        0.0762939453,       -0.2899169922
1489457243.3603310585,1489457243.3626239300,       -0.7387695312,        0.0493164062,        0.0302734375,       -0.2746582031,        0.0457763672,       -0.3662109375
1489457243.3629009724,1489457243.3651890755,       -0.7387695312,        0.0493164062,        0.0302734375,       -0.2746582031,        0.0457763672,       -0.3662109375
1489457243.3654661179,1489457243.3677508831,       -0.7387695312,        0.0493164062,        0.0302734375,        0.2288818359,       -0.0915527344,       -0.5645751953
1489457243.3680260181,1489457243.3703870773,       -0.7338867188,        0.0493164062,        0.0292968750,        0.2288818359,       -0.0915527344,       -0.5645751953
1489457243.3707709312,1489457243.3730649948,       -0.7338867188,        0.0493164062,        0.0292968750,        0.5035400391,       -0.4119873047,       -0.8239746094
1489457243.3733398914,1489457243.3756299019,       -0.7338867188,        0.0493164062,        0.0292968750,        0.5035400391,       -0.4119873047,       -0.8239746094
1489457243.3759040833,1489457243.3781919479,       -0.7338867188,        0.0493164062,        0.0302734375,        0.0762939453,       -0.1068115234,       -0.9765625000
1489457243.3784658909,1489457243.3807818890,       -0.7373046875,        0.0478515625,        0.0302734375,        0.0762939453,       -0.1068115234,       -0.9765625000
1489457243.3810551167,1489457243.3833460808,       -0.7373046875,        0.0478515625,        0.0302734375,       -3.8299560547,       -0.4730224609,       -0.8544921875
1489457243.3836200237,1489457243.3859090805,       -0.7373046875,        0.0478515625,        0.0302734375,       -0.0457763672,       -0.4730224609,       -0.8544921875
1489457243.3861839771,1489457243.3884749413,       -0.7373046875,        0.0478515625,        0.0166015625,       -0.0457763672,       -0.4730224609,       -0.7019042969
1489457243.3887488842,1489457243.3910429478,       -0.7319335938,        0.0546875000,        0.0166015625,       -0.1831054688,       -0.4882812500,       -0.7019042969
1489457243.3913190365,1489457243.3936090469,       -0.7319335938,        0.0546875000,        0.0166015625,       -0.1831054688,       -0.4882812500,       -0.7629394531
1489457243.3938829899,1489457243.3961689472,       -0.7319335938,        0.0546875000,        0.0166015625,       -0.1831054688,       -0.0152587891,       -0.7629394531
1489457243.3964440823,1489457243.3987329006,       -0.7319335938,        0.0546875000,        0.0332031250,       -0.1831054688,       -0.0152587891,       -0.7629394531
1489457243.3990669250,1489457243.4013578892,       -0.7343750000,        0.0517578125,        0.0332031250,        0.3662109375,       -0.2288818359,       -1.2207031250
1489457243.4016330242,1489457243.4039199352,       -0.7343750000,        0.0517578125,        0.0332031250,        0.3662109375,       -0.2288818359,       -1.2207031250
1489457243.4041919708,1489457243.4064760208,       -0.7343750000,        0.0517578125,        0.0332031250,        0.5493164062,       -0.5645751953,       -1.3275146484
1489457243.4067499638,1489457243.4091889858,       -0.7343750000,        0.0473632812,        0.0273437500,        0.5493164062,       -0.5645751953,       -1.3275146484
1489457243.4094650745,1489457243.4117588997,       -0.7368164062,        0.0473632812,        0.0273437500,        0.4272460938,       -0.6866455078,       -0.8239746094
1489457243.4120340347,1489457243.4143269062,       -0.7368164062,        0.0473632812,        0.0273437500,        0.4272460938,       -0.6866455078,       -0.8239746094
1489457243.4146029949,1489457243.4168961048,       -0.7368164062,        0.0473632812,        0.0273437500,        0.0305175781,       -0.3051757812,       -0.9002685547
1489457243.4171710014,1489457243.4195759296,       -0.7377929688,        0.0493164062,        0.0283203125,        0.0305175781,       -0.3051757812,       -0.9002685547
1489457243.4198589325,1489457243.4222779274,       -0.7377929688,        0.0493164062,        0.0283203125,       -0.2441406250,       -0.0152587891,       -0.8392333984
1489457243.4225599766,1489457243.4249770641,       -0.7377929688,        0.0493164062,        0.0283203125,       -0.2441406250,       -0.0152587891,       -0.8392333984
1489457243.4252591133,1489457243.4276680946,       -0.7377929688,        0.0493164062,        0.0283203125,        0.0762939453,       -0.3051757812,       -1.1444091797
1489457243.4279479980,1489457243.4303679466,       -0.7338867188,        0.0502929688,        0.0175781250,        0.0762939453,       -0.3051757812,       -1.1444091797
1489457243.4306490421,1489457243.4330630302,       -0.7338867188,        0.0502929688,        0.0175781250,       -0.1068115234,       -0.3814697266,       -1.1138916016
1489457243.4334530830,1489457243.4358680248,       -0.7338867188,        0.0502929688,        0.0175781250,       -0.1068115234,       -0.3814697266,       -1.1138916016
1489457243.4361510277,1489457243.4385690689,       -0.7338867188,        0.0502929688,        0.0175781250,       -0.3051757812,       -0.1678466797,       -1.2207031250
1489457243.4388620853,1489457243.4412770271,       -0.7382812500,        0.0522460938,        0.0336914062,       -0.3051757812,       -0.1678466797,       -1.2207031250
1489457243.4415578842,1489457243.4439740181,       -0.7382812500,        0.0522460938,        0.0336914062,        0.0915527344,       -0.4882812500,       -1.3580322266
1489457243.4442570210,1489457243.4466719627,       -0.7382812500,        0.0522460938,        0.0336914062,        0.0915527344,       -0.4882812500,       -1.3580322266
1489457243.4469540119,1489457243.4493420124,       -0.7382812500,        0.0449218750,        0.0268554688,       -0.0915527344,       -0.3204345703,       -1.2817382812
1489457243.4496169090,1489457243.4519069195,       -0.7348632812,        0.0449218750,        0.0268554688,       -0.0915527344,       -0.3204345703,       -1.2817382812
1489457243.4521820545,1489457243.4544789791,       -0.7348632812,        0.0449218750,        0.0268554688,       -0.1373291016,       -0.6103515625,       -1.2207031250
1489457243.4547541142,1489457243.4570460320,       -0.7348632812,        0.0449218750,        0.0268554688,       -0.1373291016,       -0.6103515625,       -1.2207031250
1489457243.4573218822,1489457243.4596850872,       -0.7348632812,        0.0502929688,        0.0278320312,       -0.1373291016,       -0.1831054688,       -1.0223388672
1489457243.4599668980,1489457243.4623830318,       -0.7368164062,        0.0502929688,        0.0278320312,       -0.4425048828,       -0.1831054688,       -1.0223388672
1489457243.4626650810,1489457243.4650819302,       -0.7368164062,        0.0502929688,        0.0278320312,        3.4637451172,        0.0152587891,       -0.9460449219
1489457243.4653639793,1489457243.4677810669,       -0.7368164062,        0.0502929688,        0.0278320312,        0.0305175781,        0.0152587891,       -0.9460449219
1489457243.4680640697,1489457243.4704930782,       -0.7363281250,        0.0468750000,        0.0253906250,        0.0305175781,       -0.3051757812,       -0.8697509766
1489457243.4707748890,1489457243.4731938839,       -0.7363281250,        0.0468750000,        0.0253906250,        0.2746582031,       -0.3051757812,       -0.8697509766
1489457243.4734768867,1489457243.4759600163,       -0.7363281250,        0.0468750000,        0.0253906250,        0.2746582031,       -0.3204345703,       -0.5798339844
1489457243.4762439728,1489457243.4786500931,       -0.7363281250,        0.0468750000,        0.0253906250,        0.4577636719,       -0.3204345703,       -0.5798339844
1489457243.4793241024,1489457243.4817450047,       -0.7363281250,        0.0429687500,        0.0312500000,        0.1525878906,       -0.4272460938,       -0.7934570312
1489457243.4820280075,1489457243.4844429493,       -0.7363281250,        0.0429687500,        0.0312500000,        0.1525878906,       -0.4272460938,       -0.7934570312
1489457243.4847269058,1489457243.4871399403,       -0.7363281250,        0.0429687500,        0.0312500000,        0.2288818359,       -0.5798339844,       -0.9155273438
1489457243.4874229431,1489457243.4898490906,       -0.7363281250,        0.0473632812,        0.0317382812,        0.2288818359,       -0.5798339844,       -0.9155273438
1489457243.4901289940,1489457243.4925439358,       -0.7333984375,        0.0473632812,        0.0317382812,        0.5493164062,       -0.0915527344,       -0.9002685547
1489457243.4928259850,1489457243.4952399731,       -0.7333984375,        0.0473632812,        0.0317382812,        0.5493164062,       -0.0915527344,       -0.9002685547
1489457243.4955220222,1489457243.4979400635,       -0.7333984375,        0.0473632812,        0.0317382812,        0.2899169922,        0.1678466797,       -0.6713867188
1489457243.4983310699,1489457243.5006659031,       -0.7392578125,        0.0478515625,        0.0229492188,        0.2899169922,        0.1678466797,       -0.6713867188
1489457243.5009410381,1489457243.5032351017,       -0.7392578125,        0.0478515625,        0.0229492188,        0.2899169922,       -0.1525878906,       -0.2746582031
1489457243.5035099983,1489457243.5058009624,       -0.7392578125,        0.0478515625,        0.0229492188,        0.2746582031,       -0.1525878906,       -0.2746582031
1489457243.5060729980,1489457243.5083620548,       -0.7392578125,        0.0478515625,        0.0229492188,        0.2746582031,       -0.1525878906,       -0.1983642578
1489457243.5086359978,1489457243.5109739304,       -0.7319335938,        0.0502929688,        0.0219726562,       -0.0457763672,       -0.3051757812,       -0.1983642578
1489457243.5112490654,1489457243.5135459900,       -0.7319335938,        0.0502929688,        0.0219726562,       -0.0457763672,       -0.3051757812,       -0.2136230469
1489457243.5138380527,1489457243.5163440704,       -0.7319335938,        0.0502929688,        0.0219726562,       -0.1831054688,       -0.2593994141,       -0.2136230469
1489457243.5166189671,1489457243.5189199448,       -0.7319335938,        0.0502929688,        0.0219726562,       -0.1831054688,       -0.2593994141,       -0.5187988281
1489457243.5191950798,1489457243.5214920044,       -0.7280273438,        0.0424804688,        0.0175781250,       -0.0305175781,       -0.3356933594,       -0.5187988281
1489457243.5217690468,1489457243.5240619183,       -0.7280273438,        0.0424804688,        0.0175781250,       -0.0305175781,       -0.3356933594,       -0.5187988281
1489457243.5243370533,1489457243.5266299248,       -0.7280273438,        0.0424804688,        0.0175781250,       -0.3814697266,       -0.0305175781,       -0.5798339844
1489457243.5269050598,1489457243.5293591022,       -0.7280273438,        0.0424804688,        0.0175781250,       -0.3814697266,       -0.0305175781,       -0.5798339844
1489457243.5296339989,1489457243.5319271088,       -0.7353515625,        0.0463867188,        0.0219726562,       -0.1831054688,       -0.2899169922,       -0.4882812500
1489457243.5322010517,1489457243.5344960690,       -0.7353515625,        0.0463867188,        0.0219726562,       -0.1831054688,       -0.2899169922,       -0.4882812500
1489457243.5347700119,1489457243.5370628834,       -0.7353515625,        0.0463867188,        0.0219726562,       -0.0152587891,       -0.3509521484,       -0.3509521484
1489457243.5373361111,1489457243.5397770405,       -0.7353515625,        0.0463867188,        0.0219726562,       -0.0152587891,       -0.3509521484,       -0.3509521484
1489457243.5400590897,1489457243.5424809456,       -0.7382812500,        0.0454101562,        0.0278320312,       -0.3204345703,       -0.3662109375,        0.0762939453
1489457243.5427629948,1489457243.5451829433,       -0.7382812500,        0.0454101562,        0.0278320312,       -0.3204345703,       -0.3662109375,        0.0762939453
1489457243.5454649925,1489457243.5478780270,       -0.7382812500,        0.0454101562,        0.0278320312,       -0.1831054688,       -0.4730224609,       -0.1068115234
1489457243.5481600761,1489457243.5504889488,       -0.7382812500,        0.0483398438,        0.0307617188,       -0.1831054688,       -0.4730224609,       -0.1068115234
1489457243.5507640839,1489457243.5530550480,       -0.7373046875,        0.0483398438,        0.0307617188,       -0.2288818359,       -0.3051757812,       -0.1525878906
1489457243.5533289909,1489457243.5556271076,       -0.7373046875,        0.0483398438,        0.0307617188,       -0.2288818359,       -0.3051757812,       -0.1525878906
1489457243.5559000969,1489457243.5581901073,       -0.7373046875,        0.0483398438,        0.0307617188,        0.1678466797,       -0.1220703125,       -0.5035400391
1489457243.5584640503,1489457243.5608899593,       -0.7373046875,        0.0429687500,        0.0263671875,        0.1678466797,       -0.1220703125,       -0.5035400391
1489457243.5612831116,1489457243.5636999607,       -0.7246093750,        0.0429687500,        0.0263671875,        0.0457763672,        0.0000000000,        0.0305175781
1489457243.5639810562,1489457243.5663950443,       -0.7246093750,        0.0429687500,        0.0263671875,        0.0457763672,        0.0000000000,        0.0305175781
1489457243.5666749477,1489457243.5691039562,       -0.7246093750,        0.0429687500,        0.0263671875,       -0.1220703125,       -0.1831054688,        0.0762939453
1489457243.5693869591,1489457243.5718019009,       -0.7338867188,        0.0512695312,        0.0205078125,       -0.1220703125,       -0.1831054688,        0.0762939453
1489457243.5720849037,1489457243.5745050907,       -0.7338867188,        0.0512695312,        0.0205078125,        0.0762939453,       -0.3051757812,       -0.3509521484
1489457243.5747859478,1489457243.5771989822,       -0.7338867188,        0.0512695312,        0.0205078125,        0.0762939453,       -0.3051757812,       -0.3509521484
1489457243.5774800777,1489457243.5799109936,       -0.7338867188,        0.0512695312,        0.0205078125,       -0.0610351562,       -0.3814697266,       -0.2899169922
1489457243.5801930428,1489457243.5826139450,       -0.7348632812,        0.0522460938,        0.0180664062,       -0.0610351562,       -0.3814697266,       -0.2899169922
1489457243.5828950405,1489457243.5853099823,       -0.7348632812,        0.0522460938,        0.0180664062,       -0.5035400391,       -0.2746582031,       -0.1220703125
1489457243.5855939388,1489457243.5880100727,       -0.7348632812,        0.0522460938,        0.0180664062,       -0.5035400391,       -0.2746582031,       -0.1220703125
1489457243.5882930756,1489457243.5907230377,       -0.7348632812,        0.0522460938,        0.0297851562,       -0.5035400391,       -0.2136230469,        0.0000000000
1489457243.5910050869,1489457243.5934259892,       -0.7407226562,        0.0507812500,        0.0297851562,       -0.5035400391,       -0.2136230469,        0.0000000000
1489457243.5937099457,1489457243.5962541103,       -0.7407226562,        0.0507812500,        0.0297851562,       -0.6866455078,        0.0762939453,        0.1525878906
1489457243.5965380669,1489457243.5990419388,       -0.7407226562,        0.0507812500,        0.0297851562,       -0.6866455078,        0.0762939453,        0.1525878906
1489457243.5993359089,1489457243.6016459465,       -0.7426757812,        0.0488281250,        0.0332031250,       -0.6408691406,       -0.1678466797,       -0.1220703125
1489457243.6019260883,1489457243.6042199135,       -0.7426757812,        0.0488281250,        0.0332031250,       -0.6408691406,       -0.1678466797,       -0.1220703125
1489457243.6044960022,1489457243.6067879200,       -0.7426757812,        0.0488281250,        0.0332031250,       -0.7019042969,       -0.1373291016,       -0.2136230469
1489457243.6070630550,1489457243.6094350815,       -0.7426757812,        0.0488281250,        0.0332031250,       -0.7019042969,       -0.1373291016,       -0.2136230469
1489457243.6097180843,1489457243.6121339798,       -0.7338867188,        0.0488281250,        0.0219726562,       -0.7019042969,       -0.0915527344,       -0.0915527344
1489457243.6124160290,1489457243.6148331165,       -0.7338867188,        0.0488281250,        0.0219726562,       -0.5035400391,       -0.0915527344,       -0.0915527344
1489457243.6151149273,1489457243.6175310612,       -0.7338867188,        0.0488281250,        0.0219726562,       -0.5035400391,       -0.0457763672,       -0.3509521484
1489457243.6178140640,1489457243.6202459335,       -0.7338867188,        0.0488281250,        0.0219726562,       -0.2746582031,       -0.0457763672,       -0.3509521484
1489457243.6205279827,1489457243.6229419708,       -0.7324218750,        0.0498046875,        0.0214843750,        3.6315917969,       -0.3814697266,       -0.1678466797
1489457243.6232230663,1489457243.6256361008,       -0.7324218750,        0.0498046875,        0.0214843750,        0.0152587891,       -0.3814697266,       -0.1678466797
1489457243.6260249615,1489457243.6284439564,       -0.7324218750,        0.0498046875,        0.0214843750,       -3.8909912109,       -0.2899169922,        0.0610351562
1489457243.6287260056,1489457243.6310400963,       -0.7324218750,        0.0498046875,        0.0278320312,       -0.2593994141,       -0.2899169922,        0.0610351562
1489457243.6313159466,1489457243.6336119175,       -0.7324218750,        0.0488281250,        0.0278320312,       -0.2593994141,       -0.1983642578,       -0.0305175781
1489457243.6338880062,1489457243.6361739635,       -0.7324218750,        0.0488281250,        0.0278320312,       -0.3814697266,       -0.1983642578,       -0.0305175781
1489457243.6364479065,1489457243.6387369633,       -0.7324218750,        0.0488281250,        0.0278320312,       -0.3814697266,       -0.1983642578,       -0.2746582031
1489457243.6390690804,1489457243.6413660049,       -0.7324218750,        0.0483398438,        0.0253906250,       -0.3509521484,       -0.2746582031,       -0.2746582031
1489457243.6416399479,1489457243.6439330578,       -0.7387695312,        0.0483398438,        0.0253906250,       -0.3509521484,       -0.2746582031,       -0.2746582031
1489457243.6442070007,1489457243.6464970112,       -0.7387695312,        0.0483398438,        0.0253906250,       -0.2593994141,       -0.3967285156,       -0.6256103516
1489457243.6467709541,1489457243.6491808891,       -0.7387695312,        0.0483398438,        0.0253906250,       -0.2593994141,       -0.3967285156,       -0.6256103516
1489457243.6494560242,1489457243.6517500877,       -0.7324218750,        0.0551757812,        0.0244140625,       -0.1068115234,       -0.1220703125,       -0.4119873047
1489457243.6520259380,1489457243.6543149948,       -0.7324218750,        0.0551757812,        0.0244140625,       -0.1068115234,       -0.1220703125,       -0.4119873047
1489457243.6545889378,1489457243.6568830013,       -0.7324218750,        0.0551757812,        0.0244140625,       -0.1678466797,       -0.5493164062,       -0.3509521484
1489457243.6571590900,1489457243.6595749855,       -0.7324218750,        0.0551757812,        0.0244140625,       -0.1678466797,       -0.5493164062,       -0.3509521484
1489457243.6598570347,1489457243.6622738838,       -0.7421875000,        0.0468750000,        0.0273437500,        0.2136230469,       -0.5340576172,       -0.5645751953
1489457243.6625559330,1489457243.6649689674,       -0.7421875000,        0.0468750000,        0.0273437500,        0.2136230469,       -0.5340576172,       -0.5645751953
1489457243.6652519703,1489457243.6676669121,       -0.7421875000,        0.0468750000,        0.0273437500,        0.5798339844,       -0.5645751953,       -0.4577636719
1489457243.6679480076,1489457243.6703639030,       -0.7421875000,        0.0468750000,        0.0273437500,        0.5798339844,       -0.5645751953,       -0.4577636719
1489457243.6706469059,1489457243.6730659008,       -0.7377929688,        0.0483398438,        0.0268554688,        0.0305175781,       -0.3967285156,       -0.5187988281
1489457243.6733489037,1489457243.6757669449,       -0.7377929688,        0.0483398438,        0.0268554688,        0.0305175781,       -0.3967285156,       -0.5187988281
1489457243.6760470867,1489457243.6784629822,       -0.7377929688,        0.0483398438,        0.0268554688,       -0.1983642578,       -0.5645751953,       -0.5950927734
1489457243.6787440777,1489457243.6811649799,       -0.7377929688,        0.0483398438,        0.0268554688,       -0.1983642578,       -0.5645751953,       -0.5950927734
1489457243.6814470291,1489457243.6838688850,       -0.7382812500,        0.0424804688,        0.0356445312,       -0.6561279297,       -0.4272460938,       -0.3204345703
1489457243.6841518879,1489457243.6865661144,       -0.7382812500,        0.0424804688,        0.0356445312,       -0.6561279297,       -0.4272460938,       -0.3204345703
1489457243.6868469715,1489457243.6892540455,       -0.7382812500,        0.0424804688,        0.0356445312,       -0.4425048828,       -0.3051757812,       -0.0915527344
1489457243.6896350384,1489457243.6919279099,       -0.7382812500,        0.0468750000,        0.0263671875,       -0.4425048828,       -0.3051757812,       -0.0915527344
1489457243.6922039986,1489457243.6944971085,       -0.7280273438,        0.0468750000,        0.0263671875,       -0.2899169922,       -0.3967285156,       -0.2288818359
1489457243.6947710514,1489457243.6970579624,       -0.7280273438,        0.0468750000,        0.0263671875,       -0.2899169922,       -0.3967285156,       -0.2288818359
1489457243.6973319054,1489457243.6996860504,       -0.7280273438,        0.0468750000,        0.0263671875,       -0.4119873047,       -0.1831054688,       -0.1373291016
1489457243.6999680996,1489457243.7023849487,       -0.7358398438,        0.0527343750,        0.0268554688,       -0.4119873047,       -0.1831054688,       -0.1373291016
1489457243.7026660442,1489457243.7050869465,       -0.7358398438,        0.0527343750,        0.0268554688,       -0.5493164062,       -0.1068115234,       -0.2136230469
1489457243.7053680420,1489457243.7077848911,       -0.7358398438,        0.0527343750,        0.0268554688,       -0.5493164062,       -0.1068115234,       -0.2136230469
1489457243.7080669403,1489457243.7104990482,       -0.7358398438,        0.0527343750,        0.0268554688,       -0.2441406250,       -0.2288818359,       -0.1373291016
1489457243.7107789516,1489457243.7131929398,       -0.7363281250,        0.0468750000,        0.0297851562,       -0.2441406250,       -0.2288818359,       -0.1373291016
1489457243.7134749889,1489457243.7160809040,       -0.7363281250,        0.0468750000,        0.0297851562,        0.1831054688,       -0.5035400391,       -0.2288818359
1489457243.7163660526,1489457243.7187819481,       -0.7363281250,        0.0468750000,        0.0297851562,        0.1831054688,       -0.5035400391,       -0.2288818359
1489457243.7195260525,1489457243.7219419479,       -0.7363281250,        0.0468750000,        0.0351562500,       -0.2441406250,       -0.3356933594,       -0.0915527344
1489457243.7222239971,1489457243.7246429920,       -0.7397460938,        0.0415039062,        0.0351562500,       -0.2441406250,       -0.3356933594,       -0.0915527344
1489457243.7249250412,1489457243.7273418903,       -0.7397460938,        0.0415039062,        0.0351562500,       -0.6256103516,       -0.2288818359,        0.0152587891
1489457243.7276239395,1489457243.7300500870,       -0.7397460938,        0.0415039062,        0.0351562500,       -0.6256103516,       -0.2288818359,        0.0152587891
1489457243.7303340435,1489457243.7327539921,       -0.7353515625,        0.0473632812,        0.0268554688,        0.1831054688,       -0.4577636719,       -0.1678466797
1489457243.7330350876,1489457243.7354528904,       -0.7353515625,        0.0473632812,        0.0268554688,        0.1831054688,       -0.4577636719,       -0.1678466797
1489457243.7357339859,1489457243.7381470203,       -0.7353515625,        0.0473632812,        0.0268554688,        0.4272460938,       -0.5950927734,       -0.4119873047
1489457243.7384309769,1489457243.7407550812,       -0.7353515625,        0.0473632812,        0.0268554688,        0.4272460938,       -0.5950927734,       -0.4119873047
1489457243.7410299778,1489457243.7433199883,       -0.7387695312,        0.0527343750,        0.0185546875,       -0.3356933594,       -0.0457763672,       -0.2593994141
1489457243.7435939312,1489457243.7458889484,       -0.7387695312,        0.0527343750,        0.0185546875,       -0.3356933594,       -0.0457763672,       -0.2593994141
1489457243.7461628914,1489457243.7484579086,       -0.7387695312,        0.0527343750,        0.0185546875,       -0.1525878906,        0.0000000000,       -0.0305175781
1489457243.7487330437,1489457243.7516219616,       -0.7387695312,        0.0527343750,        0.0185546875,       -0.1525878906,        0.0000000000,       -0.0305175781
1489457243.7518980503,1489457243.7541909218,       -0.7373046875,        0.0473632812,        0.0366210938,       -0.0305175781,        0.0457763672,       -0.1220703125
1489457243.7545690536,1489457243.7568600178,       -0.7373046875,        0.0473632812,        0.0366210938,       -0.0305175781,        0.0457763672,       -0.1220703125
1489457243.7571361065,1489457243.7594850063,       -0.7373046875,        0.0473632812,        0.0366210938,       -0.2136230469,        0.0457763672,       -0.1220703125
1489457243.7597589493,1489457243.7620460987,       -0.7373046875,        0.0473632812,        0.0302734375,       -0.2136230469,        0.0457763672,       -0.1220703125
1489457243.7623209953,1489457243.7646050453,       -0.7382812500,        0.0463867188,        0.0302734375,        0.1525878906,       -0.1068115234,       -0.1525878906
1489457243.7648789883,1489457243.7671720982,       -0.7382812500,        0.0463867188,        0.0302734375,        0.1525878906,       -0.1068115234,       -0.1525878906
1489457243.7674460411,1489457243.7697870731,       -0.7382812500,        0.0463867188,        0.0302734375,       -3.7536621094,        0.0152587891,       -0.2746582031
1489457243.7700610161,1489457243.7723500729,       -0.7382812500,        0.0463867188,        0.0288085938,       -0.3814697266,        0.0152587891,       -0.2746582031
1489457243.7726249695,1489457243.7749230862,       -0.7377929688,        0.0444335938,        0.0288085938,       -0.3814697266,       -3.8909912109,       -0.2441406250
1489457243.7751989365,1489457243.7774879932,       -0.7377929688,        0.0444335938,        0.0288085938,       -0.2746582031,       -0.1831054688,       -0.2441406250
1489457243.7777640820,1489457243.7800590992,       -0.7377929688,        0.0444335938,        0.0288085938,       -0.2746582031,       -0.1831054688,       -0.3509521484
1489457243.7803359032,1489457243.7826230526,       -0.7377929688,        0.0473632812,        0.0151367188,       -0.1068115234,       -0.2288818359,       -0.3509521484
1489457243.7828969955,1489457243.7851870060,       -0.7324218750,        0.0473632812,        0.0151367188,       -0.1068115234,       -0.2288818359,       -0.3509521484
1489457243.7854609489,1489457243.7877540588,       -0.7324218750,        0.0473632812,        0.0151367188,       -0.0457763672,       -0.3051757812,       -0.3967285156
1489457243.7880289555,1489457243.7903609276,       -0.7324218750,        0.0473632812,        0.0151367188,       -0.0457763672,       -0.3051757812,       -0.3967285156
1489457243.7906351089,1489457243.7929270267,       -0.7324218750,        0.0449218750,        0.0234375000,       -0.3662109375,       -0.1678466797,       -0.0610351562
1489457243.7932019234,1489457243.7954950333,       -0.7358398438,        0.0449218750,        0.0234375000,       -0.3662109375,       -0.1678466797,       -0.0610351562
1489457243.7957699299,1489457243.7980599403,       -0.7358398438,        0.0449218750,        0.0234375000,       -0.2593994141,       -0.2593994141,       -0.2441406250
1489457243.7983350754,1489457243.8008160591,       -0.7358398438,        0.0449218750,        0.0234375000,       -0.2593994141,       -0.2593994141,       -0.2441406250
1489457243.8010909557,1489457243.8033809662,       -0.7373046875,        0.0444335938,        0.0297851562,       -0.4425048828,       -0.3356933594,       -0.1525878906
1489457243.8036549091,1489457243.8059461117,       -0.7373046875,        0.0444335938,        0.0297851562,       -0.4425048828,       -0.3356933594,       -0.1525878906
1489457243.8062200546,1489457243.8085110188,       -0.7373046875,        0.0444335938,        0.0297851562,       -0.4882812500,       -0.3509521484,       -0.1831054688
1489457243.8089370728,1489457243.8113451004,       -0.7373046875,        0.0444335938,        0.0297851562,       -0.4882812500,       -0.3509521484,       -0.1831054688
1489457243.8116290569,1489457243.8140449524,       -0.7333984375,        0.0488281250,        0.0234375000,       -0.0915527344,        0.0457763672,        0.1983642578
1489457243.8143270016,1489457243.8167469501,       -0.7333984375,        0.0488281250,        0.0234375000,       -0.0915527344,        0.0457763672,        0.1983642578
1489457243.8170280457,1489457243.8194520473,       -0.7333984375,        0.0488281250,        0.0234375000,       -0.4272460938,       -0.0915527344,        0.0610351562
1489457243.8198390007,1489457243.8222570419,       -0.7333984375,        0.0488281250,        0.0234375000,       -0.4272460938,       -0.0915527344,        0.0610351562
1489457243.8225390911,1489457243.8249530792,       -0.7480468750,        0.0541992188,        0.0361328125,       -0.5950927734,       -0.2441406250,       -0.0305175781
1489457243.8252329826,1489457243.8276469707,       -0.7480468750,        0.0541992188,        0.0361328125,       -0.5950927734,       -0.2441406250,       -0.0305175781
1489457243.8279280663,1489457243.8303558826,       -0.7480468750,        0.0541992188,        0.0361328125,       -0.1831054688,       -0.5035400391,       -0.0152587891
1489457243.8306379318,1489457243.8330531120,       -0.7480468750,        0.0541992188,        0.0209960938,       -0.1831054688,       -0.5035400391,       -0.0152587891
1489457243.8333349228,1489457243.8357479572,       -0.7373046875,        0.0507812500,        0.0209960938,       -0.2441406250,       -0.2746582031,       -0.0305175781
1489457243.8360309601,1489457243.8384530544,       -0.7373046875,        0.0507812500,        0.0209960938,       -0.2441406250,       -0.2746582031,       -0.0305175781
1489457243.8387351036,1489457243.8410410881,       -0.7373046875,        0.0507812500,        0.0209960938,       -0.3204345703,       -0.2136230469,       -0.1678466797
1489457243.8413169384,1489457243.8436119556,       -0.7373046875,        0.0498046875,        0.0327148438,       -0.3204345703,       -0.2136230469,       -0.1678466797
1489457243.8438870907,1489457243.8461759090,       -0.7377929688,        0.0498046875,        0.0327148438,       -0.2441406250,       -0.4730224609,       -0.0915527344
1489457243.8464510441,1489457243.8487379551,       -0.7377929688,        0.0498046875,        0.0327148438,       -0.2441406250,       -0.4730224609,       -0.0915527344
1489457243.8490920067,1489457243.8514969349,       -0.7377929688,        0.0498046875,        0.0327148438,       -0.2441406250,       -0.1831054688,       -0.3356933594
1489457243.8517789841,1489457243.8541779518,       -0.7348632812,        0.0458984375,        0.0205078125,       -0.2899169922,       -0.1831054688,       -0.3356933594
1489457243.8544580936,1489457243.8568539619,       -0.7348632812,        0.0458984375,        0.0205078125,       -0.2899169922,       -0.5798339844,       -0.4577636719
1489457243.8571350574,1489457243.8595480919,       -0.7348632812,        0.0458984375,        0.0205078125,       -0.2593994141,       -0.5798339844,       -0.4577636719
1489457243.8598279953,1489457243.8622291088,       -0.7348632812,        0.0458984375,        0.0205078125,       -0.2593994141,       -0.3204345703,       -0.1220703125
1489457243.8625109196,1489457243.8650040627,       -0.7348632812,        0.0488281250,        0.0185546875,       -0.1831054688,       -0.3204345703,       -0.1220703125
1489457243.8652880192,1489457243.8677089214,       -0.7348632812,        0.0488281250,        0.0185546875,       -0.1831054688,       -0.2441406250,        0.3814697266
1489457243.8679909706,1489457243.8704500198,       -0.7348632812,        0.0488281250,        0.0185546875,        0.2441406250,       -0.2441406250,        0.3814697266
1489457243.8707330227,1489457243.8731460571,       -0.7348632812,        0.0488281250,        0.0317382812,        0.2441406250,       -0.3356933594,        0.1831054688
1489457243.8734290600,1489457243.8758389950,       -0.7373046875,        0.0502929688,        0.0317382812,       -0.0915527344,       -0.3356933594,        0.1831054688
1489457243.8761200905,1489457243.8785328865,       -0.7373046875,        0.0502929688,        0.0317382812,       -0.0915527344,       -0.5187988281,        0.0457763672
1489457243.8788239956,1489457243.8812439442,       -0.7373046875,        0.0502929688,        0.0317382812,       -0.6256103516,       -0.5187988281,        0.0457763672
1489457243.8815259933,1489457243.8839368820,       -0.7373046875,        0.0458984375,        0.0253906250,       -0.6256103516,       -0.5187988281,       -0.0610351562
1489457243.8843259811,1489457243.8867459297,       -0.7343750000,        0.0458984375,        0.0253906250,       -0.7171630859,       -0.5035400391,       -0.0610351562
1489457243.8870279789,1489457243.8894579411,       -0.7343750000,        0.0458984375,        0.0253906250,       -0.7171630859,       -0.6256103516,       -0.3509521484
1489457243.8897409439,1489457243.8921570778,       -0.7343750000,        0.0458984375,        0.0253906250,       -0.4119873047,       -0.6256103516,       -0.3509521484
1489457243.8924400806,1489457243.8948578835,       -0.7382812500,        0.0449218750,        0.0278320312,       -0.4119873047,       -0.3814697266,       -0.3814697266
1489457243.8951399326,1489457243.8975501060,       -0.7382812500,        0.0449218750,        0.0278320312,       -0.5798339844,       -0.3814697266,       -0.3814697266
1489457243.8978331089,1489457243.9001860619,       -0.7382812500,        0.0449218750,        0.0278320312,       -0.5798339844,       -0.3814697266,       -0.2441406250
