time_stamp before, time_stamp after, Acceleration x, Acceleration y, Acceleration z, Gyro x, Gyro y, Gyro z
1489456942.0196099281,1489456942.0326499939,       -0.7368164062,        0.0698242188,        0.0209960938,        0.1831054688,        0.0610351562,        0.0762939453
1489456942.0329480171,1489456942.0353569984,       -0.7368164062,        0.0698242188,        0.0209960938,        0.2136230469,       -0.2136230469,       -0.0457763672
1489456942.0356380939,1489456942.0379290581,       -0.7368164062,        0.0698242188,        0.0209960938,        0.2136230469,       -0.2136230469,       -0.0457763672
1489456942.0382030010,1489456942.0407640934,       -0.7368164062,        0.0751953125,        0.0209960938,       -0.3814697266,        0.0000000000,        0.0610351562
1489456942.0410449505,1489456942.0434238911,       -0.7324218750,        0.0751953125,        0.0209960938,       -0.3814697266,        0.0000000000,        0.0610351562
1489456942.0436999798,1489456942.0463531017,       -0.7324218750,        0.0751953125,        0.0209960938,        0.1983642578,       -0.3051757812,        0.3051757812
1489456942.0466339588,1489456942.0490660667,       -0.7324218750,        0.0751953125,        0.0209960938,        0.1983642578,       -0.3051757812,        0.3051757812
1489456942.0493469238,1489456942.0517621040,       -0.7397460938,        0.0825195312,        0.0288085938,        0.6561279297,       -0.3662109375,        0.4425048828
1489456942.0520420074,1489456942.0544590950,       -0.7397460938,        0.0825195312,        0.0288085938,        0.6561279297,       -0.3662109375,        0.4425048828
1489456942.0547370911,1489456942.0571539402,       -0.7397460938,        0.0825195312,        0.0288085938,        0.4272460938,       -0.4272460938,        0.1831054688
1489456942.0574319363,1489456942.0598649979,       -0.7397460938,        0.0825195312,        0.0288085938,        0.4272460938,       -0.4272460938,        0.1831054688
1489456942.0601439476,1489456942.0625610352,       -0.7319335938,        0.0722656250,        0.0332031250,        0.0152587891,       -0.3662109375,        0.1525878906
1489456942.0628409386,1489456942.0652570724,       -0.7319335938,        0.0722656250,        0.0332031250,        0.0152587891,       -0.3662109375,        0.1525878906
1489456942.0655360222,1489456942.0679559708,       -0.7319335938,        0.0722656250,        0.0332031250,       -0.0152587891,       -0.2136230469,        0.4272460938
1489456942.0682330132,1489456942.0705659389,       -0.7319335938,        0.0722656250,        0.0307617188,       -0.0152587891,       -0.2136230469,        0.4272460938
1489456942.0708379745,1489456942.0731239319,       -0.7309570312,        0.0717773438,        0.0307617188,        0.0000000000,       -0.4119873047,        0.3814697266
1489456942.0733950138,1489456942.0756878853,       -0.7309570312,        0.0717773438,        0.0307617188,        0.0000000000,       -0.4119873047,        0.3814697266
1489456942.0759580135,1489456942.0782558918,       -0.7309570312,        0.0717773438,        0.0307617188,       -0.3204345703,       -0.1831054688,        0.3356933594
1489456942.0785310268,1489456942.0809550285,       -0.7309570312,        0.0717773438,        0.0322265625,       -0.3204345703,       -0.1831054688,        0.3356933594
1489456942.0812320709,1489456942.0835249424,       -0.7353515625,        0.0717773438,        0.0322265625,       -0.1068115234,       -0.0762939453,        0.4119873047
1489456942.0838000774,1489456942.0860929489,       -0.7353515625,        0.0717773438,        0.0322265625,       -0.1068115234,       -0.0762939453,        0.4119873047
1489456942.0863680840,1489456942.0886659622,       -0.7353515625,        0.0717773438,        0.0322265625,        0.3814697266,       -0.0610351562,        0.5340576172
1489456942.0889899731,1489456942.0912880898,       -0.7353515625,        0.0722656250,        0.0395507812,        0.3814697266,       -0.0610351562,        0.5340576172
1489456942.0915648937,1489456942.0938560963,       -0.7333984375,        0.0722656250,        0.0395507812,        0.3814697266,       -0.1525878906,        0.1068115234
1489456942.0942890644,1489456942.0965890884,       -0.7333984375,        0.0722656250,        0.0395507812,        0.3509521484,       -0.1525878906,        0.1068115234
1489456942.0968630314,1489456942.0991940498,       -0.7333984375,        0.0722656250,        0.0395507812,        0.3509521484,       -0.1525878906,        0.1831054688
1489456942.0994729996,1489456942.1018819809,       -0.7290039062,        0.0810546875,        0.0317382812,        0.3204345703,       -0.1831054688,        0.1831054688
1489456942.1021630764,1489456942.1045649052,       -0.7290039062,        0.0810546875,        0.0317382812,        0.3204345703,       -0.1831054688,        0.5645751953
1489456942.1048469543,1489456942.1072490215,       -0.7290039062,        0.0810546875,        0.0317382812,        0.7324218750,       -0.1983642578,        0.5645751953
1489456942.1075301170,1489456942.1099410057,       -0.7290039062,        0.0810546875,        0.0317382812,        0.7324218750,       -0.1983642578,        0.4425048828
1489456942.1102221012,1489456942.1126289368,       -0.7304687500,        0.0776367188,        0.0366210938,        0.9765625000,       -0.3967285156,        0.4425048828
1489456942.1129090786,1489456942.1153171062,       -0.7304687500,        0.0776367188,        0.0366210938,        0.9765625000,       -0.3967285156,        0.1678466797
1489456942.1155960560,1489456942.1180009842,       -0.7304687500,        0.0776367188,        0.0366210938,        0.3051757812,       -0.0457763672,        0.1678466797
1489456942.1182830334,1489456942.1206429005,       -0.7304687500,        0.0776367188,        0.0366210938,        0.3051757812,       -0.0457763672,        0.1831054688
1489456942.1209180355,1489456942.1232109070,       -0.7324218750,        0.0756835938,        0.0322265625,        0.4425048828,       -0.2593994141,        0.1831054688
1489456942.1234860420,1489456942.1257789135,       -0.7324218750,        0.0756835938,        0.0322265625,        0.4425048828,       -0.2593994141,        0.1831054688
1489456942.1260519028,1489456942.1283440590,       -0.7324218750,        0.0756835938,        0.0322265625,        0.3662109375,       -0.4577636719,        0.1068115234
1489456942.1286199093,1489456942.1312060356,       -0.7324218750,        0.0756835938,        0.0292968750,        0.3662109375,       -0.4577636719,        0.1068115234
1489456942.1314818859,1489456942.1337740421,       -0.7329101562,        0.0747070312,        0.0292968750,        0.0152587891,       -0.0305175781,        0.0915527344
1489456942.1340470314,1489456942.1363360882,       -0.7329101562,        0.0747070312,        0.0292968750,        0.0152587891,       -0.0305175781,        0.0915527344
1489456942.1366090775,1489456942.1390280724,       -0.7329101562,        0.0747070312,        0.0292968750,       -0.0457763672,       -0.4882812500,       -0.1983642578
1489456942.1393220425,1489456942.1417150497,       -0.7329101562,        0.0751953125,        0.0332031250,       -0.0457763672,       -0.4882812500,       -0.1983642578
1489456942.1419970989,1489456942.1443769932,       -0.7343750000,        0.0751953125,        0.0332031250,       -0.0305175781,       -0.1220703125,       -0.0457763672
1489456942.1447598934,1489456942.1473219395,       -0.7343750000,        0.0751953125,        0.0332031250,       -0.0305175781,       -0.1220703125,       -0.0457763672
1489456942.1476070881,1489456942.1500449181,       -0.7343750000,        0.0751953125,        0.0332031250,       -0.3967285156,        0.2593994141,        0.0152587891
1489456942.1503279209,1489456942.1527481079,       -0.7285156250,        0.0781250000,        0.0244140625,       -0.3967285156,        0.2593994141,        0.0152587891
1489456942.1530299187,1489456942.1554470062,       -0.7285156250,        0.0781250000,        0.0244140625,       -0.0762939453,       -0.0305175781,        0.0152587891
1489456942.1557290554,1489456942.1581480503,       -0.7285156250,        0.0781250000,        0.0244140625,       -0.0762939453,       -0.0305175781,        0.0152587891
1489456942.1585390568,1489456942.1609609127,       -0.7285156250,        0.0781250000,        0.0244140625,       -0.0610351562,       -0.2288818359,        0.0457763672
1489456942.1612439156,1489456942.1636619568,       -0.7290039062,        0.0771484375,        0.0336914062,       -0.0610351562,       -0.2288818359,        0.0457763672
1489456942.1639430523,1489456942.1663620472,       -0.7290039062,        0.0771484375,        0.0336914062,       -0.3509521484,       -0.3662109375,       -0.0305175781
1489456942.1666450500,1489456942.1690630913,       -0.7290039062,        0.0771484375,        0.0336914062,       -0.3509521484,       -0.3662109375,       -0.0305175781
1489456942.1693379879,1489456942.1716289520,       -0.7290039062,        0.0771484375,        0.0332031250,       -0.5340576172,       -0.2288818359,       -0.1678466797
1489456942.1719028950,1489456942.1741969585,       -0.7290039062,        0.0800781250,        0.0332031250,       -0.5340576172,       -0.2288818359,       -0.1678466797
1489456942.1744709015,1489456942.1767621040,       -0.7290039062,        0.0800781250,        0.0332031250,       -0.7629394531,        0.0762939453,       -0.1373291016
1489456942.1770360470,1489456942.1793379784,       -0.7290039062,        0.0800781250,        0.0332031250,       -0.7629394531,        0.0762939453,       -0.1373291016
1489456942.1796131134,1489456942.1819069386,       -0.7290039062,        0.0776367188,        0.0278320312,       -0.6103515625,        0.1373291016,       -0.2288818359
1489456942.1821808815,1489456942.1844680309,       -0.7299804688,        0.0776367188,        0.0278320312,       -0.6103515625,        0.1373291016,       -0.2288818359
1489456942.1847438812,1489456942.1870338917,       -0.7299804688,        0.0776367188,        0.0278320312,       -0.4730224609,        0.1678466797,       -0.0305175781
1489456942.1873090267,1489456942.1897480488,       -0.7299804688,        0.0776367188,        0.0278320312,       -0.4730224609,        0.1678466797,       -0.0305175781
1489456942.1900238991,1489456942.1923170090,       -0.7299804688,        0.0737304688,        0.0351562500,       -0.4272460938,        0.0000000000,        0.0152587891
1489456942.1925919056,1489456942.1948850155,       -0.7402343750,        0.0737304688,        0.0351562500,       -0.4272460938,        0.0000000000,        0.0152587891
1489456942.1951611042,1489456942.1974470615,       -0.7402343750,        0.0737304688,        0.0351562500,       -0.4272460938,       -0.1678466797,       -0.0457763672
1489456942.1977210045,1489456942.2001841068,       -0.7402343750,        0.0737304688,        0.0351562500,       -0.3051757812,       -0.1678466797,       -0.0457763672
1489456942.2004659176,1489456942.2028880119,       -0.7270507812,        0.0703125000,        0.0385742188,       -0.3051757812,        0.1678466797,       -0.0762939453
1489456942.2031700611,1489456942.2055900097,       -0.7270507812,        0.0703125000,        0.0385742188,       -0.8239746094,        0.1678466797,       -0.0762939453
1489456942.2058730125,1489456942.2082889080,       -0.7270507812,        0.0703125000,        0.0385742188,       -0.8239746094,        0.1525878906,       -0.0152587891
1489456942.2085709572,1489456942.2110500336,       -0.7270507812,        0.0703125000,        0.0385742188,       -0.8850097656,        0.1525878906,       -0.0152587891
1489456942.2113320827,1489456942.2137489319,       -0.7377929688,        0.0795898438,        0.0302734375,       -0.8850097656,       -0.1373291016,       -0.0762939453
1489456942.2140300274,1489456942.2164480686,       -0.7377929688,        0.0795898438,        0.0302734375,       -0.9918212891,       -0.1373291016,       -0.0762939453
1489456942.2167301178,1489456942.2191329002,       -0.7377929688,        0.0795898438,        0.0302734375,       -0.9918212891,       -0.1068115234,       -0.0457763672
1489456942.2194070816,1489456942.2217020988,       -0.7377929688,        0.0795898438,        0.0302734375,       -1.2207031250,       -0.1068115234,       -0.0457763672
1489456942.2220880985,1489456942.2243800163,       -0.7368164062,        0.0815429688,        0.0288085938,       -1.2207031250,       -0.1068115234,       -0.0152587891
1489456942.2246549129,1489456942.2269430161,       -0.7368164062,        0.0815429688,        0.0288085938,       -1.1444091797,       -0.0305175781,       -0.0152587891
1489456942.2272160053,1489456942.2295560837,       -0.7368164062,        0.0815429688,        0.0288085938,       -1.1444091797,       -0.0305175781,       -0.0152587891
1489456942.2298390865,1489456942.2322568893,       -0.7368164062,        0.0815429688,        0.0341796875,       -0.9155273438,       -0.0305175781,       -0.0152587891
1489456942.2325379848,1489456942.2349541187,       -0.7373046875,        0.0756835938,        0.0341796875,       -0.9155273438,       -0.0305175781,       -0.1068115234
1489456942.2352349758,1489456942.2376549244,       -0.7373046875,        0.0756835938,        0.0341796875,       -0.4577636719,       -0.0152587891,       -0.1068115234
1489456942.2379369736,1489456942.2403590679,       -0.7373046875,        0.0756835938,        0.0341796875,       -0.4577636719,       -0.0152587891,        0.0762939453
1489456942.2406439781,1489456942.2430610657,       -0.7368164062,        0.0761718750,        0.0415039062,       -0.6256103516,        0.0610351562,        0.0762939453
1489456942.2433431149,1489456942.2457599640,       -0.7368164062,        0.0761718750,        0.0415039062,       -0.6256103516,        0.0610351562,        0.0915527344
1489456942.2460410595,1489456942.2484600544,       -0.7368164062,        0.0761718750,        0.0415039062,       -0.7019042969,       -0.0152587891,        0.0915527344
1489456942.2487409115,1489456942.2511720657,       -0.7368164062,        0.0761718750,        0.0415039062,       -0.7019042969,       -0.0152587891,       -0.0610351562
1489456942.2514550686,1489456942.2538690567,       -0.7368164062,        0.0800781250,        0.0229492188,       -0.6103515625,       -0.1068115234,       -0.0610351562
1489456942.2541539669,1489456942.2567360401,       -0.7368164062,        0.0800781250,        0.0229492188,       -0.6103515625,       -0.1068115234,       -0.2441406250
1489456942.2570199966,1489456942.2594320774,       -0.7368164062,        0.0800781250,        0.0229492188,       -1.0528564453,       -0.0457763672,       -0.2441406250
1489456942.2604689598,1489456942.2627561092,       -0.7368164062,        0.0756835938,        0.0371093750,       -1.0528564453,        0.0152587891,       -0.3967285156
1489456942.2630341053,1489456942.2653219700,       -0.7373046875,        0.0756835938,        0.0371093750,       -0.4882812500,        0.0152587891,       -0.3967285156
1489456942.2655971050,1489456942.2678840160,       -0.7373046875,        0.0756835938,        0.0371093750,       -0.4882812500,        0.0152587891,       -0.2593994141
1489456942.2681601048,1489456942.2705729008,       -0.7373046875,        0.0756835938,        0.0371093750,       -0.5645751953,        0.1068115234,       -0.2593994141
1489456942.2708480358,1489456942.2731380463,       -0.7373046875,        0.0732421875,        0.0380859375,       -0.5645751953,        0.1068115234,       -0.2136230469
1489456942.2734129429,1489456942.2756929398,       -0.7363281250,        0.0732421875,        0.0380859375,       -0.5645751953,       -0.1831054688,       -0.2136230469
1489456942.2759680748,1489456942.2782559395,       -0.7363281250,        0.0732421875,        0.0380859375,       -0.5645751953,       -0.1831054688,       -0.2136230469
1489456942.2785289288,1489456942.2808260918,       -0.7363281250,        0.0732421875,        0.0380859375,       -0.1068115234,       -0.1373291016,       -0.3967285156
1489456942.2811009884,1489456942.2833919525,       -0.7353515625,        0.0751953125,        0.0336914062,       -0.1068115234,       -0.1373291016,       -0.3967285156
1489456942.2836670876,1489456942.2859520912,       -0.7353515625,        0.0751953125,        0.0336914062,        0.1831054688,       -0.1373291016,       -0.2136230469
1489456942.2863340378,1489456942.2886230946,       -0.7353515625,        0.0751953125,        0.0336914062,        0.1831054688,       -0.1373291016,       -0.2136230469
1489456942.2888960838,1489456942.2911798954,       -0.7353515625,        0.0751953125,        0.0336914062,       -0.0762939453,       -0.1983642578,       -0.2746582031
1489456942.2914540768,1489456942.2937400341,       -0.7333984375,        0.0771484375,        0.0312500000,       -0.0762939453,       -0.1983642578,       -0.2746582031
1489456942.2940139771,1489456942.2962989807,       -0.7333984375,        0.0771484375,        0.0312500000,       -0.2136230469,       -0.5340576172,       -0.3356933594
1489456942.2965729237,1489456942.2988979816,       -0.7333984375,        0.0771484375,        0.0312500000,       -0.2136230469,       -0.5340576172,       -0.3356933594
1489456942.2991731167,1489456942.3014628887,       -0.7333984375,        0.0771484375,        0.0312500000,       -0.3204345703,       -0.4882812500,       -0.3509521484
1489456942.3017399311,1489456942.3040330410,       -0.7304687500,        0.0727539062,        0.0297851562,       -0.3204345703,       -0.4882812500,       -0.3509521484
1489456942.3043088913,1489456942.3065950871,       -0.7304687500,        0.0727539062,        0.0297851562,       -0.6561279297,       -0.3814697266,       -0.2441406250
1489456942.3068690300,1489456942.3092000484,       -0.7304687500,        0.0727539062,        0.0297851562,       -0.6561279297,       -0.3814697266,       -0.2441406250
1489456942.3094749451,1489456942.3117599487,       -0.7304687500,        0.0727539062,        0.0297851562,        3.2501220703,       -0.3509521484,       -0.3204345703
1489456942.3120338917,1489456942.3143200874,       -0.7309570312,        0.0810546875,        0.0288085938,        0.1220703125,       -0.3509521484,       -0.3204345703
1489456942.3145949841,1489456942.3168799877,       -0.7309570312,        0.0810546875,        0.0288085938,        0.1220703125,       -0.3509521484,       -0.4119873047
1489456942.3171548843,1489456942.3195450306,       -0.7309570312,        0.0810546875,        0.0288085938,       -0.0152587891,       -0.2593994141,       -0.4119873047
1489456942.3198220730,1489456942.3221120834,       -0.7309570312,        0.0810546875,        0.0288085938,       -0.0152587891,       -0.2593994141,       -0.3509521484
1489456942.3223879337,1489456942.3246788979,       -0.7260742188,        0.0717773438,        0.0317382812,        0.1525878906,       -0.0457763672,       -0.3509521484
1489456942.3249509335,1489456942.3272418976,       -0.7260742188,        0.0717773438,        0.0317382812,        0.1525878906,       -0.0457763672,       -0.3509521484
1489456942.3275160789,1489456942.3298270702,       -0.7260742188,        0.0717773438,        0.0317382812,       -0.5035400391,        0.1373291016,       -0.0762939453
1489456942.3301019669,1489456942.3323869705,       -0.7260742188,        0.0717773438,        0.0317382812,       -0.5035400391,        0.1373291016,       -0.0762939453
1489456942.3326621056,1489456942.3349471092,       -0.7329101562,        0.0717773438,        0.0375976562,       -0.5187988281,        0.2136230469,       -0.0610351562
1489456942.3352200985,1489456942.3375110626,       -0.7329101562,        0.0717773438,        0.0375976562,       -0.5187988281,        0.2136230469,       -0.0610351562
1489456942.3377859592,1489456942.3401539326,       -0.7329101562,        0.0717773438,        0.0375976562,       -0.0915527344,        0.0610351562,       -0.1831054688
1489456942.3404378891,1489456942.3428649902,       -0.7329101562,        0.0717773438,        0.0375976562,       -0.0915527344,        0.0610351562,       -0.1831054688
1489456942.3431479931,1489456942.3455638885,       -0.7309570312,        0.0771484375,        0.0229492188,       -0.0915527344,       -0.1525878906,       -0.3204345703
1489456942.3458459377,1489456942.3482620716,       -0.7309570312,        0.0771484375,        0.0229492188,       -0.0915527344,       -0.1525878906,       -0.3204345703
1489456942.3486509323,1489456942.3510808945,       -0.7309570312,        0.0771484375,        0.0229492188,        0.1220703125,       -0.0305175781,       -0.3509521484
1489456942.3513638973,1489456942.3537769318,       -0.7309570312,        0.0722656250,        0.0371093750,        0.1220703125,       -0.0305175781,       -0.3509521484
1489456942.3540589809,1489456942.3564710617,       -0.7304687500,        0.0722656250,        0.0371093750,       -0.0457763672,       -0.0915527344,       -0.5187988281
1489456942.3567540646,1489456942.3591749668,       -0.7304687500,        0.0722656250,        0.0371093750,       -0.0457763672,       -0.0915527344,       -0.5187988281
1489456942.3594560623,1489456942.3618760109,       -0.7304687500,        0.0722656250,        0.0371093750,        0.5187988281,       -0.0610351562,       -0.2593994141
1489456942.3621571064,1489456942.3645710945,       -0.7304687500,        0.0805664062,        0.0375976562,        0.5187988281,       -0.0610351562,       -0.2593994141
1489456942.3648540974,1489456942.3672680855,       -0.7304687500,        0.0805664062,        0.0375976562,       -0.1525878906,       -0.0457763672,       -0.1525878906
1489456942.3675498962,1489456942.3699290752,       -0.7304687500,        0.0805664062,        0.0375976562,       -0.1525878906,       -0.0457763672,       -0.1525878906
1489456942.3702049255,1489456942.3724999428,       -0.7304687500,        0.0805664062,        0.0375976562,       -0.0610351562,        0.1525878906,       -0.3662109375
1489456942.3727760315,1489456942.3750989437,       -0.7363281250,        0.0800781250,        0.0278320312,       -0.0610351562,        0.1525878906,       -0.3662109375
1489456942.3753890991,1489456942.3776929379,       -0.7363281250,        0.0800781250,        0.0278320312,       -0.2288818359,        0.4272460938,       -0.4882812500
1489456942.3779699802,1489456942.3803250790,       -0.7363281250,        0.0800781250,        0.0278320312,       -0.2288818359,        0.4272460938,       -0.4882812500
1489456942.3806049824,1489456942.3829889297,       -0.7363281250,        0.0800781250,        0.0278320312,       -0.0457763672,        0.1525878906,       -0.5035400391
1489456942.3832690716,1489456942.3856849670,       -0.7343750000,        0.0815429688,        0.0297851562,       -0.0457763672,        0.1525878906,       -0.5035400391
1489456942.3859679699,1489456942.3883869648,       -0.7343750000,        0.0815429688,        0.0297851562,        0.2746582031,       -0.3967285156,       -0.9613037109
1489456942.3886699677,1489456942.3911070824,       -0.7343750000,        0.0815429688,        0.0297851562,        0.2746582031,       -0.3967285156,       -0.9613037109
1489456942.3913888931,1489456942.3938028812,       -0.7343750000,        0.0815429688,        0.0327148438,        0.0457763672,       -0.2593994141,       -1.0681152344
1489456942.3940839767,1489456942.3965089321,       -0.7363281250,        0.0737304688,        0.0327148438,        0.0457763672,       -0.2593994141,       -1.0681152344
1489456942.3967909813,1489456942.3992478848,       -0.7363281250,        0.0737304688,        0.0327148438,        0.2593994141,       -0.2899169922,       -1.0070800781
1489456942.3995289803,1489456942.4019460678,       -0.7363281250,        0.0737304688,        0.0327148438,        0.2593994141,       -0.2899169922,       -1.0070800781
1489456942.4022269249,1489456942.4046480656,       -0.7363281250,        0.0737304688,        0.0341796875,        0.2288818359,       -0.3051757812,       -0.7934570312
1489456942.4049320221,1489456942.4073460102,       -0.7363281250,        0.0737304688,        0.0341796875,        0.2288818359,       -0.3051757812,       -0.7934570312
1489456942.4076280594,1489456942.4099950790,       -0.7363281250,        0.0737304688,        0.0341796875,       -0.0457763672,        0.1220703125,       -0.6256103516
1489456942.4102709293,1489456942.4125659466,       -0.7363281250,        0.0737304688,        0.0341796875,       -0.0457763672,        0.1220703125,       -0.6256103516
1489456942.4129400253,1489456942.4152359962,       -0.7368164062,        0.0717773438,        0.0400390625,       -0.0152587891,        0.2136230469,       -0.3356933594
1489456942.4155108929,1489456942.4178040028,       -0.7368164062,        0.0717773438,        0.0400390625,       -0.0152587891,        0.2136230469,       -0.3356933594
1489456942.4180788994,1489456942.4205191135,       -0.7368164062,        0.0717773438,        0.0400390625,       -0.0152587891,        0.1068115234,       -0.6103515625
1489456942.4207949638,1489456942.4230859280,       -0.7368164062,        0.0717773438,        0.0400390625,       -0.0305175781,        0.1068115234,       -0.6103515625
1489456942.4233620167,1489456942.4256570339,       -0.7397460938,        0.0761718750,        0.0297851562,       -0.0305175781,       -3.7994384766,       -0.6256103516
1489456942.4259319305,1489456942.4282269478,       -0.7397460938,        0.0761718750,        0.0297851562,        0.1068115234,       -0.0915527344,       -0.6256103516
1489456942.4284999371,1489456942.4309980869,       -0.7397460938,        0.0761718750,        0.0297851562,        0.1068115234,       -0.0915527344,       -0.2288818359
1489456942.4312810898,1489456942.4337038994,       -0.7397460938,        0.0761718750,        0.0297851562,        0.1373291016,        0.1068115234,       -0.2288818359
1489456942.4339869022,1489456942.4364089966,       -0.7290039062,        0.0747070312,        0.0346679688,        0.1373291016,        0.1068115234,       -0.1068115234
1489456942.4366929531,1489456942.4391241074,       -0.7290039062,        0.0747070312,        0.0346679688,        0.1373291016,        0.1068115234,       -0.1068115234
1489456942.4394059181,1489456942.4418230057,       -0.7290039062,        0.0747070312,        0.0346679688,        0.1373291016,        0.1068115234,       -0.2899169922
1489456942.4421060085,1489456942.4445219040,       -0.7290039062,        0.0732421875,        0.0371093750,       -0.0457763672,        0.3509521484,       -0.2899169922
1489456942.4448049068,1489456942.4472279549,       -0.7358398438,        0.0732421875,        0.0371093750,       -0.0457763672,        0.3509521484,       -0.2441406250
1489456942.4475090504,1489456942.4499359131,       -0.7358398438,        0.0732421875,        0.0371093750,        0.1068115234,        0.3051757812,       -0.2441406250
1489456942.4502201080,1489456942.4526340961,       -0.7358398438,        0.0732421875,        0.0371093750,        0.1068115234,        0.3051757812,       -0.2441406250
1489456942.4529149532,1489456942.4553370476,       -0.7373046875,        0.0737304688,        0.0341796875,        0.0000000000,        0.4119873047,       -0.2441406250
1489456942.4556200504,1489456942.4580368996,       -0.7373046875,        0.0737304688,        0.0341796875,        0.0000000000,        0.4119873047,       -0.0152587891
1489456942.4583189487,1489456942.4607560635,       -0.7373046875,        0.0737304688,        0.0341796875,        0.1525878906,        0.1831054688,       -0.0152587891
1489456942.4610369205,1489456942.4635360241,       -0.7373046875,        0.0737304688,        0.0341796875,        0.1525878906,        0.1831054688,       -0.0152587891
1489456942.4638121128,1489456942.4660971165,       -0.7382812500,        0.0751953125,        0.0361328125,        0.1525878906,        0.1831054688,       -0.0152587891
1489456942.4663710594,1489456942.4686610699,       -0.7382812500,        0.0751953125,        0.0361328125,        0.1525878906,        0.1831054688,       -0.0152587891
1489456942.4690010548,1489456942.4713931084,       -0.7382812500,        0.0751953125,        0.0361328125,       -0.1831054688,        0.3204345703,       -0.0762939453
1489456942.4716739655,1489456942.4740519524,       -0.7382812500,        0.0751953125,        0.0361328125,       -0.1831054688,        0.3204345703,       -0.0762939453
1489456942.4744150639,1489456942.4767971039,       -0.7275390625,        0.0703125000,        0.0244140625,        0.0762939453,        0.1678466797,        0.0000000000
1489456942.4770760536,1489456942.4795789719,       -0.7275390625,        0.0703125000,        0.0244140625,        0.0762939453,        0.1678466797,        0.0000000000
1489456942.4799718857,1489456942.4823958874,       -0.7275390625,        0.0703125000,        0.0244140625,       -0.3051757812,        0.4425048828,        0.1678466797
1489456942.4826769829,1489456942.4850950241,       -0.7275390625,        0.0712890625,        0.0307617188,       -0.3051757812,        0.4425048828,       -3.7384033203
1489456942.4853770733,1489456942.4877910614,       -0.7358398438,        0.0712890625,        0.0307617188,       -0.2899169922,        0.2593994141,       -0.0762939453
1489456942.4880740643,1489456942.4905068874,       -0.7358398438,        0.0712890625,        0.0307617188,       -0.2899169922,        0.2593994141,       -0.0762939453
1489456942.4907910824,1489456942.4932100773,       -0.7358398438,        0.0712890625,        0.0307617188,        0.0762939453,        0.0152587891,       -0.1525878906
1489456942.4934918880,1489456942.4959099293,       -0.7329101562,        0.0732421875,        0.0297851562,        0.0762939453,        0.0152587891,       -0.1525878906
1489456942.4961900711,1489456942.4986081123,       -0.7329101562,        0.0732421875,        0.0297851562,       -0.1831054688,        0.1678466797,       -0.1831054688
1489456942.4988980293,1489456942.5013151169,       -0.7329101562,        0.0732421875,        0.0297851562,       -0.1831054688,        0.1678466797,       -0.1831054688
1489456942.5015969276,1489456942.5040149689,       -0.7329101562,        0.0732421875,        0.0297851562,       -0.5950927734,        0.1373291016,       -0.0915527344
1489456942.5042979717,1489456942.5067160130,       -0.7431640625,        0.0791015625,        0.0346679688,       -0.5950927734,        0.1373291016,       -0.0915527344
1489456942.5069990158,1489456942.5094308853,       -0.7431640625,        0.0791015625,        0.0346679688,       -0.7171630859,       -0.2593994141,        0.0457763672
1489456942.5097041130,1489456942.5120000839,       -0.7431640625,        0.0791015625,        0.0346679688,       -0.7171630859,       -0.2593994141,        0.0457763672
1489456942.5122730732,1489456942.5145690441,       -0.7431640625,        0.0791015625,        0.0346679688,       -0.6866455078,       -0.2136230469,       -0.0915527344
1489456942.5148439407,1489456942.5171380043,       -0.7333984375,        0.0756835938,        0.0200195312,       -0.6866455078,       -0.2136230469,       -0.0915527344
1489456942.5174119473,1489456942.5197100639,       -0.7333984375,        0.0756835938,        0.0200195312,       -0.6256103516,       -0.0305175781,       -0.3356933594
1489456942.5199840069,1489456942.5222709179,       -0.7333984375,        0.0756835938,        0.0200195312,       -0.6256103516,       -0.0305175781,       -0.3356933594
1489456942.5225450993,1489456942.5248370171,       -0.7333984375,        0.0756835938,        0.0371093750,       -0.2441406250,       -0.0762939453,       -0.9460449219
1489456942.5251131058,1489456942.5274040699,       -0.7353515625,        0.0698242188,        0.0371093750,       -0.2441406250,       -0.0762939453,       -0.9460449219
1489456942.5276799202,1489456942.5301270485,       -0.7353515625,        0.0698242188,        0.0371093750,       -0.0305175781,        0.0152587891,       -0.7171630859
1489456942.5304019451,1489456942.5326950550,       -0.7353515625,        0.0698242188,        0.0371093750,       -0.0305175781,        0.0152587891,       -0.7171630859
1489456942.5329689980,1489456942.5352580547,       -0.7353515625,        0.0698242188,        0.0336914062,       -0.1831054688,        0.2136230469,       -0.4577636719
1489456942.5355319977,1489456942.5378270149,       -0.7329101562,        0.0766601562,        0.0336914062,       -0.1831054688,        0.2136230469,       -0.4577636719
1489456942.5381009579,1489456942.5405850410,       -0.7329101562,        0.0766601562,        0.0336914062,       -0.1525878906,        0.0610351562,       -0.3662109375
1489456942.5408670902,1489456942.5432839394,       -0.7329101562,        0.0766601562,        0.0336914062,       -0.1525878906,        0.0610351562,       -0.3662109375
1489456942.5436720848,1489456942.5460879803,       -0.7363281250,        0.0747070312,        0.0317382812,        0.1068115234,        0.2441406250,       -0.6561279297
1489456942.5463709831,1489456942.5488319397,       -0.7363281250,        0.0747070312,        0.0317382812,        0.1068115234,        0.2441406250,       -0.6561279297
1489456942.5491139889,1489456942.5515329838,       -0.7363281250,        0.0747070312,        0.0317382812,        0.1220703125,        0.0152587891,       -0.6103515625
1489456942.5518140793,1489456942.5542299747,       -0.7363281250,        0.0747070312,        0.0317382812,        0.1220703125,        0.0152587891,       -0.6103515625
1489456942.5545120239,1489456942.5569300652,       -0.7348632812,        0.0766601562,        0.0336914062,       -0.5187988281,       -0.0610351562,       -0.4730224609
1489456942.5572109222,1489456942.5596449375,       -0.7348632812,        0.0766601562,        0.0336914062,       -0.5187988281,       -0.0610351562,       -0.4730224609
1489456942.5599279404,1489456942.5623459816,       -0.7348632812,        0.0766601562,        0.0336914062,       -0.0305175781,        0.0915527344,       -0.7019042969
1489456942.5626270771,1489456942.5650429726,       -0.7348632812,        0.0766601562,        0.0336914062,       -0.0305175781,        0.0915527344,       -0.7019042969
1489456942.5653250217,1489456942.5677440166,       -0.7236328125,        0.0771484375,        0.0292968750,       -0.0610351562,       -0.2746582031,       -0.4119873047
1489456942.5680239201,1489456942.5703659058,       -0.7236328125,        0.0771484375,        0.0292968750,       -0.0610351562,       -0.2746582031,       -0.4119873047
1489456942.5706410408,1489456942.5729310513,       -0.7236328125,        0.0771484375,        0.0292968750,       -0.0610351562,        0.0915527344,       -0.1373291016
1489456942.5732059479,1489456942.5754969120,       -0.7236328125,        0.0771484375,        0.0390625000,       -0.0610351562,        0.0915527344,       -0.1373291016
1489456942.5757710934,1489456942.5780620575,       -0.7373046875,        0.0727539062,        0.0390625000,       -0.0610351562,       -3.8146972656,       -0.0915527344
1489456942.5783360004,1489456942.5807449818,       -0.7373046875,        0.0727539062,        0.0390625000,       -0.2441406250,       -0.1220703125,       -0.0915527344
1489456942.5810298920,1489456942.5834510326,       -0.7373046875,        0.0727539062,        0.0390625000,       -0.2441406250,       -0.1220703125,       -0.2441406250
1489456942.5837330818,1489456942.5861470699,       -0.7373046875,        0.0747070312,        0.0312500000,       -0.6866455078,        0.0152587891,       -0.2441406250
1489456942.5864279270,1489456942.5888540745,       -0.7343750000,        0.0747070312,        0.0312500000,       -0.6866455078,        0.0152587891,       -0.4272460938
1489456942.5891389847,1489456942.5915560722,       -0.7343750000,        0.0747070312,        0.0312500000,       -0.1220703125,        0.1678466797,       -0.4272460938
1489456942.5918378830,1489456942.5942599773,       -0.7343750000,        0.0747070312,        0.0312500000,       -0.1220703125,        0.1678466797,       -0.3051757812
1489456942.5945439339,1489456942.5971760750,       -0.7270507812,        0.0698242188,        0.0249023438,        0.3662109375,       -0.0915527344,       -0.3051757812
1489456942.5974578857,1489456942.6002080441,       -0.7270507812,        0.0698242188,        0.0249023438,        0.3662109375,        3.8146972656,       -0.1220703125
1489456942.6004939079,1489456942.6029160023,       -0.7270507812,        0.0698242188,        0.0249023438,        0.0915527344,        0.2899169922,       -0.1220703125
1489456942.6031990051,1489456942.6056170464,       -0.7270507812,        0.0698242188,        0.0249023438,       -3.8146972656,        0.3204345703,       -0.1525878906
1489456942.6058990955,1489456942.6083118916,       -0.7353515625,        0.0727539062,        0.0273437500,       -0.4425048828,        0.3204345703,       -0.1525878906
1489456942.6086969376,1489456942.6111280918,       -0.7353515625,        0.0727539062,        0.0273437500,       -0.4425048828,       -0.0457763672,        0.0610351562
1489456942.6114079952,1489456942.6138260365,       -0.7353515625,        0.0727539062,        0.0273437500,       -0.2288818359,       -0.0457763672,        0.0610351562
1489456942.6141080856,1489456942.6165239811,       -0.7353515625,        0.0722656250,        0.0395507812,       -0.2288818359,        0.2288818359,        0.1678466797
1489456942.6168050766,1489456942.6192150116,       -0.7329101562,        0.0722656250,        0.0395507812,       -0.3509521484,        0.2288818359,        0.1678466797
1489456942.6194911003,1489456942.6217849255,       -0.7329101562,        0.0722656250,        0.0395507812,       -0.3509521484,        0.2136230469,        0.1525878906
1489456942.6220591068,1489456942.6243469715,       -0.7329101562,        0.0722656250,        0.0395507812,       -0.3814697266,        0.2136230469,        0.1525878906
1489456942.6246199608,1489456942.6269080639,       -0.7368164062,        0.0590820312,        0.0317382812,       -0.3814697266,        0.2136230469,        0.2441406250
1489456942.6271810532,1489456942.6294779778,       -0.7368164062,        0.0590820312,        0.0317382812,       -0.4119873047,       -0.1525878906,        0.2441406250
1489456942.6297531128,1489456942.6320459843,       -0.7368164062,        0.0590820312,        0.0317382812,       -0.4119873047,       -0.1525878906,        0.2441406250
1489456942.6323199272,1489456942.6346099377,       -0.7368164062,        0.0590820312,        0.0317382812,        0.4119873047,       -0.3204345703,        0.3509521484
1489456942.6348841190,1489456942.6371769905,       -0.7397460938,        0.0795898438,        0.0375976562,        0.4119873047,       -0.3204345703,        0.3509521484
1489456942.6374518871,1489456942.6397929192,       -0.7397460938,        0.0795898438,        0.0375976562,        0.3814697266,       -0.2136230469,        0.7629394531
1489456942.6400659084,1489456942.6423571110,       -0.7397460938,        0.0795898438,        0.0375976562,        0.3814697266,       -0.2136230469,        0.7629394531
1489456942.6426310539,1489456942.6449210644,       -0.7397460938,        0.0795898438,        0.0375976562,        0.5035400391,       -0.1983642578,        0.6561279297
1489456942.6451959610,1489456942.6474859715,       -0.7353515625,        0.0693359375,        0.0385742188,        0.5035400391,       -0.1983642578,        0.6561279297
1489456942.6477589607,1489456942.6501541138,       -0.7353515625,        0.0693359375,        0.0385742188,        0.0915527344,       -0.1068115234,        0.4425048828
1489456942.6504299641,1489456942.6527259350,       -0.7353515625,        0.0693359375,        0.0385742188,        0.0915527344,       -0.1068115234,        0.4425048828
1489456942.6530029774,1489456942.6552948952,       -0.7353515625,        0.0693359375,        0.0385742188,       -0.3814697266,        0.0457763672,        0.2746582031
1489456942.6555678844,1489456942.6578650475,       -0.7319335938,        0.0693359375,        0.0424804688,       -0.3814697266,        0.0457763672,        0.2746582031
1489456942.6581389904,1489456942.6606020927,       -0.7319335938,        0.0693359375,        0.0424804688,       -0.9155273438,        0.1373291016,        0.5187988281
1489456942.6608860493,1489456942.6633069515,       -0.7319335938,        0.0693359375,        0.0424804688,       -0.9155273438,        0.1373291016,        0.5187988281
1489456942.6635880470,1489456942.6660060883,       -0.7319335938,        0.0693359375,        0.0424804688,       -1.2207031250,        0.0000000000,        0.8392333984
1489456942.6662869453,1489456942.6687018871,       -0.7250976562,        0.0600585938,        0.0351562500,       -1.2207031250,        0.0000000000,        0.8392333984
1489456942.6689751148,1489456942.6712629795,       -0.7250976562,        0.0600585938,        0.0351562500,       -1.4343261719,       -0.0762939453,        1.2207031250
1489456942.6716461182,1489456942.6739389896,       -0.7250976562,        0.0600585938,        0.0351562500,       -1.4343261719,       -0.0762939453,        1.2207031250
1489456942.6742129326,1489456942.6765060425,       -0.7250976562,        0.0600585938,        0.0292968750,       -2.1972656250,       -0.2288818359,        1.2817382812
1489456942.6767799854,1489456942.6791040897,       -0.7124023438,        0.0590820312,        0.0292968750,       -2.1972656250,       -0.2288818359,        1.2817382812
1489456942.6793789864,1489456942.6816649437,       -0.7124023438,        0.0590820312,        0.0292968750,       -2.1972656250,       -0.2441406250,        1.3732910156
1489456942.6819388866,1489456942.6842250824,       -0.7124023438,        0.0590820312,        0.0292968750,       -2.4719238281,       -0.2441406250,        1.3732910156
1489456942.6844990253,1489456942.6867849827,       -0.7124023438,        0.0590820312,        0.0224609375,       -2.4719238281,       -0.2441406250,        1.6937255859
1489456942.6870579720,1489456942.6893439293,       -0.7333984375,        0.0654296875,        0.0224609375,       -2.3651123047,       -0.1525878906,        1.6937255859
1489456942.6896169186,1489456942.6919031143,       -0.7333984375,        0.0654296875,        0.0224609375,       -2.3651123047,       -0.1525878906,        1.6937255859
1489456942.6921780109,1489456942.6944620609,       -0.7333984375,        0.0654296875,        0.0224609375,       -1.7700195312,       -0.2136230469,        2.1209716797
1489456942.6947360039,1489456942.6970219612,       -0.7333984375,        0.0727539062,        0.0253906250,       -1.7700195312,       -0.2136230469,        2.1209716797
1489456942.6972949505,1489456942.6996500492,       -0.7431640625,        0.0727539062,        0.0253906250,       -1.3580322266,       -0.2441406250,        2.2277832031
1489456942.6999249458,1489456942.7022109032,       -0.7431640625,        0.0727539062,        0.0253906250,       -1.3580322266,       -0.2441406250,        2.2277832031
1489456942.7024829388,1489456942.7047700882,       -0.7431640625,        0.0727539062,        0.0253906250,       -1.0833740234,       -0.4425048828,        1.9531250000
1489456942.7050430775,1489456942.7073299885,       -0.7431640625,        0.0781250000,        0.0292968750,       -1.0833740234,       -0.4425048828,        1.9531250000
1489456942.7076070309,1489456942.7098999023,       -0.7402343750,        0.0781250000,        0.0292968750,       -1.0681152344,       -0.3356933594,        1.8005371094
1489456942.7101769447,1489456942.7124629021,       -0.7402343750,        0.0781250000,        0.0292968750,       -1.0681152344,       -0.3356933594,        1.8005371094
1489456942.7127380371,1489456942.7151110172,       -0.7402343750,        0.0781250000,        0.0292968750,       -0.8697509766,       -0.3356933594,        1.8768310547
1489456942.7155458927,1489456942.7178359032,       -0.7436523438,        0.0834960938,        0.0234375000,       -0.8697509766,       -0.3356933594,        1.8768310547
1489456942.7181119919,1489456942.7207179070,       -0.7436523438,        0.0834960938,        0.0234375000,       -0.7019042969,       -0.0457763672,        2.2277832031
1489456942.7209939957,1489456942.7232890129,       -0.7436523438,        0.0834960938,        0.0234375000,       -0.7019042969,       -0.0457763672,        2.2277832031
1489456942.7235639095,1489456942.7258610725,       -0.7436523438,        0.0834960938,        0.0234375000,       -1.2512207031,        0.0762939453,        1.8310546875
1489456942.7261340618,1489456942.7284250259,       -0.7280273438,        0.0800781250,        0.0351562500,       -1.2512207031,        0.0762939453,        1.8310546875
1489456942.7286980152,1489456942.7311298847,       -0.7280273438,        0.0800781250,        0.0351562500,       -1.6784667969,       -0.4730224609,        1.4801025391
1489456942.7314128876,1489456942.7338290215,       -0.7280273438,        0.0800781250,        0.0351562500,       -1.6784667969,       -0.4730224609,        1.4801025391
1489456942.7342190742,1489456942.7366418839,       -0.7280273438,        0.0800781250,        0.0351562500,       -3.2196044922,       -0.4730224609,        1.4038085938
1489456942.7369229794,1489456942.7393500805,       -0.7216796875,        0.0649414062,        0.0346679688,       -3.2196044922,       -0.4730224609,        1.4038085938
1489456942.7396318913,1489456942.7420530319,       -0.7216796875,        0.0649414062,        0.0346679688,       -4.4860839844,       -0.5950927734,        1.2969970703
1489456942.7423350811,1489456942.7447469234,       -0.7216796875,        0.0649414062,        0.0346679688,       -4.4860839844,       -0.5950927734,        1.2969970703
1489456942.7450280190,1489456942.7474479675,       -0.7216796875,        0.0649414062,        0.0156250000,       -5.5541992188,       -0.1220703125,        2.3956298828
1489456942.7477300167,1489456942.7500920296,       -0.7158203125,        0.0742187500,        0.0156250000,       -5.5541992188,       -0.1220703125,        2.3956298828
1489456942.7503669262,1489456942.7526578903,       -0.7158203125,        0.0742187500,        0.0156250000,       -5.5541992188,        0.5493164062,        3.4027099609
1489456942.7529311180,1489456942.7552239895,       -0.7158203125,        0.0742187500,        0.0156250000,       -6.0577392578,        0.5493164062,        3.4027099609
1489456942.7554969788,1489456942.7577919960,       -0.7158203125,        0.0991210938,        0.0102539062,       -6.0577392578,        0.5493164062,        3.9062500000
1489456942.7580649853,1489456942.7604029179,       -0.7333984375,        0.0991210938,        0.0102539062,       -5.9204101562,        0.7324218750,        3.9062500000
1489456942.7606770992,1489456942.7629699707,       -0.7333984375,        0.0991210938,        0.0102539062,       -5.9204101562,        0.7324218750,        3.9062500000
1489456942.7632451057,1489456942.7655351162,       -0.7333984375,        0.0991210938,        0.0102539062,       -4.4860839844,        0.2899169922,        3.9062500000
1489456942.7658090591,1489456942.7680981159,       -0.8583984375,        0.0825195312,        0.0166015625,       -4.4860839844,        0.2899169922,        0.0000000000
1489456942.7683720589,1489456942.7707149982,       -0.7504882812,        0.0825195312,        0.0166015625,       -3.4332275391,        0.3662109375,        3.8452148438
1489456942.7709889412,1489456942.7732820511,       -0.7504882812,        0.0825195312,        0.0166015625,       -3.4332275391,        0.3662109375,        3.8452148438
1489456942.7735540867,1489456942.7758429050,       -0.7504882812,        0.0825195312,        0.0166015625,       -2.3498535156,        0.1373291016,        4.3487548828
1489456942.7761180401,1489456942.7784099579,       -0.7592773438,        0.0444335938,        0.0351562500,       -2.3498535156,        0.1373291016,        4.3487548828
1489456942.7786860466,1489456942.7812099457,       -0.7592773438,        0.0444335938,        0.0351562500,       -1.9989013672,        0.1220703125,        4.2266845703
1489456942.7814919949,1489456942.7838981152,       -0.7592773438,        0.0444335938,        0.0351562500,       -1.9989013672,        0.1220703125,        4.2266845703
1489456942.7841789722,1489456942.7865779400,       -0.7592773438,        0.0444335938,        0.0351562500,       -2.9449462891,        0.0152587891,        4.6386718750
1489456942.7868568897,1489456942.7892711163,       -0.7534179688,        0.0488281250,        0.0258789062,       -2.9449462891,        0.0152587891,        4.6386718750
1489456942.7895510197,1489456942.7919530869,       -0.7534179688,        0.0488281250,        0.0258789062,       -4.2419433594,       -0.3356933594,        4.5928955078
1489456942.7922329903,1489456942.7946341038,       -0.7534179688,        0.0488281250,        0.0258789062,       -4.2419433594,       -0.3356933594,        4.5928955078
1489456942.7949140072,1489456942.7973210812,       -0.7534179688,        0.0488281250,        0.0258789062,       -4.8980712891,       -0.9613037109,        4.0435791016
1489456942.7977108955,1489456942.8001260757,       -0.7397460938,        0.0908203125,        0.0322265625,       -4.8980712891,       -0.9613037109,        4.0435791016
1489456942.8004069328,1489456942.8028070927,       -0.7397460938,        0.0908203125,        0.0322265625,       -5.1574707031,       -1.0528564453,        3.7841796875
1489456942.8030860424,1489456942.8054869175,       -0.7397460938,        0.0908203125,        0.0322265625,       -5.1574707031,       -1.0528564453,        3.7841796875
1489456942.8057680130,1489456942.8081669807,       -0.7397460938,        0.1064453125,        0.0522460938,       -4.2266845703,       -0.9155273438,        3.7536621094
1489456942.8084468842,1489456942.8108561039,       -0.7363281250,        0.1064453125,        0.0522460938,       -4.2266845703,       -0.9155273438,        3.7536621094
1489456942.8111391068,1489456942.8135399818,       -0.7363281250,        0.1064453125,        0.0522460938,       -2.9449462891,       -0.4882812500,        3.3111572266
1489456942.8138198853,1489456942.8162219524,       -0.7363281250,        0.1064453125,        0.0522460938,       -2.9449462891,       -0.4882812500,        3.3111572266
1489456942.8165020943,1489456942.8189079762,       -0.7182617188,        0.1030273438,        0.0454101562,       -1.8005371094,       -0.0915527344,        2.9602050781
1489456942.8191890717,1489456942.8215939999,       -0.7182617188,        0.1030273438,        0.0454101562,       -1.8005371094,       -0.0915527344,        2.9602050781
1489456942.8218750954,1489456942.8242740631,       -0.7182617188,        0.1030273438,        0.0454101562,       -1.0070800781,       -0.2593994141,        2.6855468750
1489456942.8245549202,1489456942.8269510269,       -0.7182617188,        0.1030273438,        0.0454101562,       -1.0070800781,       -0.2593994141,        2.6855468750
1489456942.8272330761,1489456942.8296489716,       -0.7143554688,        0.0991210938,        0.0449218750,       -0.0457763672,       -0.0610351562,        2.5634765625
1489456942.8299310207,1489456942.8323450089,       -0.7143554688,        0.0991210938,        0.0449218750,       -0.0457763672,       -0.0610351562,        2.5634765625
1489456942.8326261044,1489456942.8351070881,       -0.7143554688,        0.0991210938,        0.0449218750,        0.4119873047,       -0.1373291016,        1.9378662109
1489456942.8354001045,1489456942.8378160000,       -0.7143554688,        0.0991210938,        0.0449218750,        0.4119873047,       -0.1373291016,        1.9378662109
1489456942.8381030560,1489456942.8406960964,       -0.7324218750,        0.0927734375,        0.0405273438,        1.2054443359,       -0.0915527344,        1.4801025391
1489456942.8409790993,1489456942.8434009552,       -0.7324218750,        0.0927734375,        0.0405273438,        1.2054443359,       -0.0915527344,        1.4801025391
1489456942.8436820507,1489456942.8460938931,       -0.7324218750,        0.0927734375,        0.0405273438,        1.6174316406,       -0.2441406250,        1.2817382812
1489456942.8463749886,1489456942.8488349915,       -0.7324218750,        0.0937500000,        0.0283203125,        1.6174316406,       -0.2441406250,        1.2817382812
1489456942.8491160870,1489456942.8515338898,       -0.7299804688,        0.0937500000,        0.0283203125,        2.2125244141,        0.0305175781,        1.7395019531
1489456942.8518168926,1489456942.8542280197,       -0.7299804688,        0.0937500000,        0.0283203125,        2.2125244141,        0.0305175781,        1.7395019531
1489456942.8545091152,1489456942.8569209576,       -0.7299804688,        0.0937500000,        0.0283203125,        1.9378662109,       -0.0305175781,        1.5869140625
1489456942.8572020531,1489456942.8596620560,       -0.7343750000,        0.0927734375,        0.0249023438,        1.9378662109,       -0.0305175781,        1.5869140625
1489456942.8599429131,1489456942.8623609543,       -0.7343750000,        0.0927734375,        0.0249023438,        1.3885498047,       -0.1983642578,        1.2664794922
1489456942.8627500534,1489456942.8651669025,       -0.7343750000,        0.0927734375,        0.0249023438,        1.3885498047,       -0.1983642578,        1.2664794922
1489456942.8654510975,1489456942.8678629398,       -0.7343750000,        0.0927734375,        0.0249023438,        1.2359619141,       -0.1373291016,        1.2969970703
1489456942.8681449890,1489456942.8704760075,       -0.7124023438,        0.1030273438,        0.0224609375,        1.2359619141,       -0.1373291016,        1.2969970703
1489456942.8707499504,1489456942.8730459213,       -0.7124023438,        0.1030273438,        0.0224609375,        0.4425048828,        0.2746582031,        1.2969970703
1489456942.8733189106,1489456942.8756148815,       -0.7124023438,        0.1030273438,        0.0224609375,        0.4425048828,        0.2746582031,        1.2969970703
1489456942.8758881092,1489456942.8781828880,       -0.7124023438,        0.1030273438,        0.0224609375,       -0.4730224609,        1.2054443359,        1.4343261719
1489456942.8784549236,1489456942.8808081150,       -0.7153320312,        0.0903320312,        0.0161132812,       -0.4730224609,        1.2054443359,        1.4343261719
1489456942.8810820580,1489456942.8833820820,       -0.7153320312,        0.0903320312,        0.0161132812,       -1.8920898438,        1.9531250000,        1.4801025391
1489456942.8836550713,1489456942.8859469891,       -0.7153320312,        0.0903320312,        0.0161132812,       -1.8920898438,        1.9531250000,        1.4801025391
1489456942.8862199783,1489456942.8885130882,       -0.7153320312,        0.0903320312,       -0.0097656250,       -1.8920898438,        2.4566650391,        2.3040771484
1489456942.8889570236,1489456942.8912520409,       -0.7128906250,        0.0986328125,       -0.0097656250,       -3.4942626953,        2.4566650391,        2.3040771484
1489456942.8915278912,1489456942.8938169479,       -0.7128906250,        0.0986328125,       -0.0097656250,       -3.4942626953,        2.4566650391,        3.3569335938
1489456942.8940920830,1489456942.8963859081,       -0.7128906250,        0.0986328125,       -0.0097656250,       -5.4321289062,        2.2430419922,        3.3569335938
1489456942.8966600895,1489456942.8989799023,       -0.7128906250,        0.0986328125,       -0.0161132812,       -5.4321289062,        2.2430419922,        4.8828125000
1489456942.8992619514,1489456942.9016790390,       -0.7207031250,        0.1030273438,       -0.0161132812,       -5.8898925781,        2.3498535156,        4.8828125000
1489456942.9019589424,1489456942.9043769836,       -0.7207031250,        0.1030273438,       -0.0161132812,       -5.8898925781,        2.3498535156,        6.3323974609
1489456942.9046568871,1489456942.9070720673,       -0.7207031250,        0.1030273438,       -0.0161132812,       -5.6152343750,        1.9226074219,        6.3323974609
1489456942.9073529243,1489456942.9097700119,       -0.7104492188,        0.0751953125,       -0.0019531250,       -5.6152343750,        1.9226074219,        8.3923339844
1489456942.9100520611,1489456942.9124689102,       -0.7104492188,        0.0751953125,       -0.0019531250,       -5.5999755859,        1.2207031250,        8.3923339844
1489456942.9127519131,1489456942.9151730537,       -0.7104492188,        0.0751953125,       -0.0019531250,       -5.5999755859,        1.2207031250,        8.3923339844
1489456942.9154529572,1489456942.9178690910,       -0.7104492188,        0.0751953125,       -0.0019531250,       -6.1340332031,        0.6866455078,       10.2996826172
1489456942.9181559086,1489456942.9204800129,       -0.7519531250,        0.0058593750,       -0.0019531250,       -6.1340332031,        0.6866455078,       14.2059326172
1489456942.9207611084,1489456942.9230539799,       -0.7519531250,        0.0058593750,       -0.0019531250,       -7.2479248047,        0.0000000000,       12.3291015625
1489456942.9233350754,1489456942.9256260395,       -0.7519531250,        0.0058593750,       -0.0019531250,       -7.2479248047,        0.0000000000,       12.3291015625
1489456942.9260120392,1489456942.9283061028,       -0.7519531250,        0.0058593750,       -0.0019531250,       -9.9945068359,       -1.3275146484,       13.6413574219
1489456942.9285840988,1489456942.9310410023,       -0.7944335938,       -0.0771484375,       -0.0200195312,       -9.9945068359,       -1.3275146484,       13.6413574219
1489456942.9313271046,1489456942.9337430000,       -0.7944335938,       -0.0771484375,       -0.0200195312,      -11.7797851562,       -1.7547607422,       14.4805908203
1489456942.9340319633,1489456942.9364500046,       -0.7944335938,       -0.0771484375,       -0.0200195312,      -11.7797851562,       -1.7547607422,       14.4805908203
1489456942.9367411137,1489456942.9391639233,       -0.7944335938,       -0.0771484375,        0.0571289062,      -14.8162841797,       -1.0070800781,       15.4876708984
1489456942.9394528866,1489456942.9418680668,       -0.7802734375,       -0.0034179688,        0.0571289062,      -14.8162841797,       -1.0070800781,       15.4876708984
1489456942.9421560764,1489456942.9445779324,       -0.7802734375,       -0.0034179688,        0.0571289062,      -17.3645019531,       -0.3204345703,       17.7307128906
1489456942.9448709488,1489456942.9472899437,       -0.7802734375,       -0.0034179688,        0.0571289062,      -17.3645019531,       -0.3204345703,       17.7307128906
1489456942.9475800991,1489456942.9500420094,       -0.7802734375,        0.0551757812,        0.0693359375,      -17.5018310547,       -0.3356933594,       20.0500488281
1489456942.9503319263,1489456942.9527509212,       -0.7607421875,        0.0551757812,        0.0693359375,      -17.5018310547,       -0.3356933594,       20.0500488281
1489456942.9530410767,1489456942.9556050301,       -0.7607421875,        0.0551757812,        0.0693359375,      -16.9982910156,        0.5798339844,       20.4315185547
1489456942.9558949471,1489456942.9583020210,       -0.7607421875,        0.0551757812,        0.0693359375,      -16.9982910156,        0.5798339844,       20.4315185547
1489456942.9590239525,1489456942.9613189697,       -0.7382812500,        0.0615234375,        0.0605468750,      -16.7694091797,        1.4953613281,       21.2097167969
1489456942.9616029263,1489456942.9638950825,       -0.7382812500,        0.0615234375,        0.0605468750,      -16.7694091797,        1.4953613281,       21.2097167969
1489456942.9641780853,1489456942.9664709568,       -0.7382812500,        0.0615234375,        0.0605468750,      -15.9301757812,        2.3193359375,       22.1557617188
1489456942.9667520523,1489456942.9690859318,       -0.7382812500,        0.0615234375,        0.0605468750,      -15.9301757812,        2.3193359375,       22.1557617188
1489456942.9693748951,1489456942.9717960358,       -0.7192382812,        0.0590820312,        0.0610351562,      -15.6097412109,        3.6315917969,       23.4069824219
1489456942.9720849991,1489456942.9745039940,       -0.7192382812,        0.0590820312,        0.0610351562,      -15.6097412109,        3.6315917969,       23.4069824219
1489456942.9747951031,1489456942.9772100449,       -0.7192382812,        0.0590820312,        0.0610351562,      -16.3726806641,        4.4708251953,       24.1546630859
1489456942.9774980545,1489456942.9799289703,       -0.7192382812,        0.0869140625,        0.0727539062,      -16.3726806641,        4.4708251953,       24.1546630859
1489456942.9802169800,1489456942.9826309681,       -0.7031250000,        0.0869140625,        0.0727539062,      -17.2119140625,        4.3792724609,       24.8413085938
1489456942.9829199314,1489456942.9853420258,       -0.7031250000,        0.0869140625,        0.0727539062,      -17.2119140625,        4.3792724609,       24.8413085938
1489456942.9856309891,1489456942.9880540371,       -0.7031250000,        0.0869140625,        0.0727539062,      -16.5405273438,        4.7760009766,       25.3906250000
1489456942.9883430004,1489456942.9906599522,       -0.7148437500,        0.1186523438,        0.0688476562,      -16.5405273438,        4.7760009766,       25.3906250000
1489456942.9910590649,1489456942.9933540821,       -0.7148437500,        0.1186523438,        0.0688476562,      -16.4642333984,        3.7384033203,       25.9857177734
1489456942.9936380386,1489456942.9959359169,       -0.7148437500,        0.1186523438,        0.0688476562,      -16.4642333984,        3.7384033203,       25.9857177734
1489456942.9962160587,1489456942.9985079765,       -0.7148437500,        0.1186523438,        0.0688476562,      -15.8386230469,        2.0599365234,       24.7344970703
1489456942.9988369942,1489456943.0011289120,       -0.7329101562,        0.0517578125,        0.0717773438,      -15.8386230469,        2.0599365234,       24.7344970703
1489456943.0014090538,1489456943.0037050247,       -0.7329101562,        0.0517578125,        0.0717773438,       -9.9029541016,        1.7700195312,       21.1791992188
1489456943.0039839745,1489456943.0062780380,       -0.7329101562,        0.0517578125,        0.0717773438,       -9.9029541016,        1.7700195312,       21.1791992188
1489456943.0065560341,1489456943.0089850426,       -0.7329101562,        0.0517578125,        0.0717773438,       -6.0119628906,        2.5024414062,       18.6767578125
1489456943.0092649460,1489456943.0115580559,       -0.7622070312,        0.1870117188,        0.0932617188,       -6.0119628906,        2.5024414062,       18.6767578125
1489456943.0118360519,1489456943.0141270161,       -0.7622070312,        0.1870117188,        0.0932617188,       -2.9449462891,        3.7536621094,       17.6544189453
1489456943.0144050121,1489456943.0167059898,       -0.7622070312,        0.1870117188,        0.0932617188,       -2.9449462891,        3.7536621094,       17.6544189453
1489456943.0169858932,1489456943.0193998814,       -0.7622070312,        0.1870117188,        0.0932617188,        0.9613037109,        4.5013427734,       16.0369873047
1489456943.0196859837,1489456943.0220930576,       -0.7441406250,        0.2519531250,        0.0712890625,        0.3051757812,        4.5013427734,       16.0369873047
1489456943.0223779678,1489456943.0247750282,       -0.7441406250,        0.2519531250,        0.0712890625,        0.3051757812,        3.6315917969,       13.6718750000
1489456943.0250589848,1489456943.0274600983,       -0.7441406250,        0.2519531250,        0.0712890625,        2.8381347656,        3.6315917969,       13.6718750000
1489456943.0277431011,1489456943.0301508904,       -0.7441406250,        0.1269531250,        0.0629882812,        6.7443847656,        3.6468505859,       10.9252929688
1489456943.0304360390,1489456943.0328409672,       -0.7358398438,        0.2011718750,        0.0629882812,        5.3863525391,        3.6468505859,       10.9252929688
1489456943.0331270695,1489456943.0355269909,       -0.7358398438,        0.2011718750,        0.0629882812,        5.3863525391,        4.5166015625,        9.0942382812
1489456943.0358059406,1489456943.0382080078,       -0.7358398438,        0.2011718750,        0.0629882812,        9.5062255859,        4.5166015625,        9.0942382812
1489456943.0384879112,1489456943.0409009457,       -0.7358398438,        0.1796875000,        0.0488281250,        9.5062255859,        5.1269531250,        7.5988769531
1489456943.0411810875,1489456943.0435810089,       -0.7382812500,        0.1796875000,        0.0488281250,       11.9628906250,        5.1269531250,        7.5988769531
1489456943.0438640118,1489456943.0462629795,       -0.7382812500,        0.1796875000,        0.0488281250,       11.9628906250,        5.1269531250,        6.5307617188
1489456943.0465490818,1489456943.0489530563,       -0.7382812500,        0.1796875000,        0.0488281250,       12.8936767578,        5.2490234375,        6.5307617188
1489456943.0492379665,1489456943.0516400337,       -0.7397460938,        0.1601562500,        0.0263671875,       12.8936767578,        5.2490234375,        5.5389404297
1489456943.0519239902,1489456943.0543239117,       -0.7397460938,        0.1601562500,        0.0263671875,       12.0391845703,        5.3100585938,        5.5389404297
1489456943.0547130108,1489456943.0571100712,       -0.7397460938,        0.1601562500,        0.0263671875,       12.0391845703,        5.3100585938,        5.1727294922
1489456943.0573949814,1489456943.0598959923,       -0.7397460938,        0.1601562500,        0.0263671875,        9.9029541016,        6.0882568359,        5.1727294922
1489456943.0601780415,1489456943.0625789165,       -0.7338867188,        0.1459960938,        0.0019531250,        9.9029541016,        6.0882568359,        5.5541992188
1489456943.0628609657,1489456943.0652580261,       -0.7338867188,        0.1459960938,        0.0019531250,        7.9040527344,        7.4157714844,        5.5541992188
1489456943.0655379295,1489456943.0679349899,       -0.7338867188,        0.1459960938,        0.0019531250,        7.9040527344,       11.3220214844,        6.2561035156
1489456943.0682199001,1489456943.0706379414,       -0.7338867188,        0.0209960938,       -0.0058593750,        5.6304931641,        9.2010498047,        6.2561035156
1489456943.0709199905,1489456943.0733199120,       -0.7055664062,        0.0913085938,       -0.0058593750,        5.6304931641,        9.2010498047,        7.3547363281
1489456943.0736019611,1489456943.0762319565,       -0.7055664062,        0.0913085938,       -0.0058593750,        2.7465820312,       11.5661621094,        7.3547363281
1489456943.0765190125,1489456943.0789361000,       -0.7055664062,        0.0913085938,       -0.0058593750,        2.7465820312,       15.4724121094,        8.7280273438
1489456943.0796110630,1489456943.0819950104,       -0.6889648438,        0.0341796875,        0.0053710938,       -1.2207031250,       14.0075683594,        8.7280273438
1489456943.0822820663,1489456943.0846650600,       -0.6889648438,        0.0341796875,        0.0053710938,       -5.1269531250,       14.6484375000,       10.8337402344
1489456943.0849521160,1489456943.0873630047,       -0.6889648438,        0.0341796875,        0.0053710938,       -5.4473876953,       14.6484375000,       10.8337402344
1489456943.0876491070,1489456943.0900859833,       -0.6889648438,        0.0341796875,        0.0053710938,       -9.3536376953,       13.9007568359,       13.0157470703
1489456943.0903770924,1489456943.0927910805,       -0.7036132812,        0.0361328125,        0.0249023438,       -9.4299316406,       13.9007568359,       13.0157470703
1489456943.0930790901,1489456943.0954980850,       -0.7036132812,        0.0361328125,        0.0249023438,      -13.3361816406,       12.8784179688,       15.0146484375
1489456943.0957911015,1489456943.0982069969,       -0.7036132812,        0.0361328125,        0.0249023438,      -12.0544433594,       12.8784179688,       15.0146484375
1489456943.0984990597,1489456943.1009249687,       -0.7036132812,        0.0361328125,        0.0346679688,      -12.0544433594,       13.2598876953,       16.1895751953
1489456943.1012160778,1489456943.1036341190,       -0.7436523438,        0.0751953125,        0.0346679688,      -14.6484375000,       13.2598876953,       16.1895751953
1489456943.1039249897,1489456943.1063430309,       -0.7436523438,        0.0751953125,        0.0346679688,      -14.6484375000,       14.0838623047,       17.0898437500
1489456943.1066339016,1489456943.1090569496,       -0.7436523438,        0.0751953125,        0.0346679688,      -15.2282714844,       14.0838623047,       17.0898437500
1489456943.1093420982,1489456943.1116321087,       -0.7602539062,        0.1220703125,        0.0253906250,      -15.2282714844,       13.9923095703,       18.9361572266
1489456943.1119189262,1489456943.1142110825,       -0.7602539062,        0.1220703125,        0.0253906250,      -14.5263671875,       13.9923095703,       18.9361572266
1489456943.1144950390,1489456943.1167900562,       -0.7602539062,        0.1220703125,        0.0253906250,      -14.5263671875,       13.9923095703,       20.1110839844
1489456943.1170749664,1489456943.1194889545,       -0.7602539062,        0.1220703125,        0.0253906250,      -14.2669677734,       14.0686035156,       20.1110839844
1489456943.1198740005,1489456943.1221709251,       -0.7500000000,        0.1396484375,        0.0410156250,      -14.2669677734,       14.0686035156,       21.9268798828
1489456943.1224560738,1489456943.1247539520,       -0.7500000000,        0.1396484375,        0.0410156250,      -12.2680664062,       14.4348144531,       21.9268798828
1489456943.1250379086,1489456943.1273310184,       -0.7500000000,        0.1396484375,        0.0410156250,      -12.2680664062,       14.4348144531,       25.8331298828
1489456943.1276149750,1489456943.1299529076,       -0.7500000000,        0.1396484375,        0.0410156250,      -10.6964111328,       13.8702392578,       23.8037109375
1489456943.1302409172,1489456943.1325309277,       -0.7377929688,        0.1083984375,        0.0151367188,      -10.6964111328,       13.8702392578,       23.8037109375
1489456943.1328170300,1489456943.1351089478,       -0.7377929688,        0.1083984375,        0.0151367188,       -9.7045898438,       13.5498046875,       25.5584716797
1489456943.1353900433,1489456943.1376869678,       -0.7377929688,        0.1083984375,        0.0151367188,       -9.7045898438,       13.5498046875,       25.5584716797
1489456943.1379680634,1489456943.1404418945,       -0.7377929688,        0.1083984375,        0.0151367188,       -9.4451904297,       13.2904052734,       27.8320312500
1489456943.1407320499,1489456943.1431510448,       -0.7485351562,        0.0688476562,        0.0068359375,       -9.4451904297,       13.2904052734,       27.8320312500
1489456943.1434409618,1489456943.1458599567,       -0.7485351562,        0.0688476562,        0.0068359375,      -10.1928710938,       13.0004882812,       30.4718017578
1489456943.1461551189,1489456943.1485741138,       -0.7485351562,        0.0688476562,        0.0068359375,      -10.1928710938,       13.0004882812,       30.4718017578
1489456943.1488759518,1489456943.1512999535,       -0.7485351562,        0.0688476562,        0.0068359375,      -11.0931396484,       12.7410888672,       33.9813232422
1489456943.1515910625,1489456943.1540100574,       -0.7714843750,        0.0678710938,        0.0068359375,      -11.0931396484,       12.7410888672,       33.9813232422
1489456943.1543018818,1489456943.1567180157,       -0.7714843750,        0.0678710938,        0.0068359375,      -12.7258300781,       12.5427246094,       38.2232666016
1489456943.1570100784,1489456943.1594109535,       -0.7714843750,        0.0678710938,        0.0068359375,      -12.7258300781,       12.5427246094,       38.2232666016
1489456943.1596989632,1489456943.1619849205,       -0.7714843750,        0.0532226562,        0.0117187500,      -14.3737792969,       11.6577148438,       42.1752929688
1489456943.1622700691,1489456943.1645550728,       -0.7705078125,        0.0532226562,        0.0117187500,      -14.3737792969,       11.6577148438,       42.1752929688
1489456943.1648380756,1489456943.1671350002,       -0.7705078125,        0.0532226562,        0.0117187500,      -14.9536132812,       10.9100341797,       46.4324951172
1489456943.1674189568,1489456943.1697709560,       -0.7705078125,        0.0532226562,        0.0117187500,      -14.9536132812,       10.9100341797,       46.4324951172
1489456943.1700611115,1489456943.1724789143,       -0.7709960938,        0.0185546875,        0.0180664062,      -13.3972167969,       10.2844238281,       51.1016845703
1489456943.1727709770,1489456943.1751921177,       -0.7709960938,        0.0185546875,        0.0180664062,      -13.3972167969,       10.2844238281,       51.1016845703
1489456943.1754829884,1489456943.1778979301,       -0.7709960938,        0.0185546875,        0.0180664062,      -11.0473632812,        9.4757080078,       55.8319091797
1489456943.1781899929,1489456943.1806519032,       -0.7709960938,        0.0185546875,        0.0180664062,      -11.0473632812,        9.4757080078,       55.8319091797
1489456943.1809411049,1489456943.1833570004,       -0.7768554688,       -0.0478515625,        0.0253906250,       -8.6364746094,        8.5296630859,       60.0433349609
1489456943.1836419106,1489456943.1860599518,       -0.7768554688,       -0.0478515625,        0.0253906250,       -8.6364746094,        8.5296630859,       60.0433349609
1489456943.1864559650,1489456943.1888840199,       -0.7768554688,       -0.0478515625,        0.0253906250,       -5.3558349609,        8.5601806641,       64.5294189453
1489456943.1891720295,1489456943.1915869713,       -0.7768554688,       -0.0478515625,        0.0473632812,       -5.3558349609,        8.5601806641,       64.5294189453
1489456943.1918740273,1489456943.1942949295,       -0.7856445312,       -0.0844726562,        0.0473632812,       -1.3580322266,        9.0942382812,       69.4885253906
1489456943.1945819855,1489456943.1971049309,       -0.7856445312,       -0.0844726562,        0.0473632812,       -1.3580322266,        9.0942382812,       69.4885253906
1489456943.1973910332,1489456943.2002420425,       -0.7856445312,       -0.0844726562,        0.0473632812,        1.8920898438,        5.7830810547,       74.5391845703
1489456943.2005290985,1489456943.2029469013,       -0.7670898438,       -0.1391601562,        0.0268554688,        1.8920898438,        5.7830810547,       74.5391845703
1489456943.2032339573,1489456943.2056510448,       -0.7670898438,       -0.1391601562,        0.0268554688,        6.1187744141,        1.7242431641,       80.4443359375
1489456943.2059369087,1489456943.2083590031,       -0.7670898438,       -0.1391601562,        0.0268554688,        6.1187744141,        1.7242431641,       80.4443359375
1489456943.2086429596,1489456943.2109580040,       -0.7670898438,       -0.1391601562,        0.0268554688,       15.1062011719,        1.0375976562,       84.0759277344
1489456943.2112400532,1489456943.2135291100,       -0.8125000000,       -0.1230468750,        0.0454101562,       15.1062011719,        1.0375976562,       84.0759277344
1489456943.2138130665,1489456943.2161059380,       -0.8125000000,       -0.1230468750,        0.0454101562,       19.9890136719,        1.0375976562,       87.4786376953
1489456943.2163910866,1489456943.2186789513,       -0.8125000000,       -0.1230468750,        0.0454101562,       19.9890136719,        1.0375976562,       87.4786376953
1489456943.2189691067,1489456943.2213780880,       -0.8125000000,       -0.1230468750,        0.0454101562,       17.9901123047,        0.4730224609,       93.4600830078
1489456943.2216689587,1489456943.2240869999,       -0.8969726562,       -0.0229492188,        0.0366210938,       17.9901123047,        0.4730224609,       93.4600830078
1489456943.2243769169,1489456943.2267959118,       -0.8969726562,       -0.0229492188,        0.0366210938,       15.1977539062,       -1.3732910156,      100.2960205078
1489456943.2270839214,1489456943.2294850349,       -0.8969726562,       -0.0229492188,        0.0366210938,       15.1977539062,       -1.3732910156,      100.2960205078
1489456943.2297670841,1489456943.2320580482,       -0.8969726562,       -0.0229492188,        0.0625000000,       10.9100341797,       -2.7160644531,      105.8807373047
1489456943.2323400974,1489456943.2346310616,       -0.9609375000,       -0.0019531250,        0.0625000000,       10.9100341797,       -2.7160644531,      105.8807373047
1489456943.2349159718,1489456943.2372090816,       -0.9609375000,       -0.0019531250,        0.0625000000,        9.2773437500,       -3.0975341797,      111.0534667969
1489456943.2374880314,1489456943.2398281097,       -0.9609375000,       -0.0019531250,        0.0625000000,        9.2773437500,       -3.0975341797,      111.0534667969
1489456943.2401080132,1489456943.2423989773,       -0.9609375000,        0.1083984375,        0.0698242188,        9.2773437500,       -2.8839111328,      114.8681640625
1489456943.2426769733,1489456943.2449688911,       -0.9658203125,        0.1083984375,        0.0698242188,       10.8032226562,       -2.8839111328,      114.8681640625
1489456943.2452499866,1489456943.2475450039,       -0.9658203125,        0.1083984375,        0.0698242188,       10.8032226562,       -2.8839111328,      117.6910400391
1489456943.2478289604,1489456943.2502920628,       -0.9658203125,        0.1083984375,        0.0698242188,       14.4195556641,       -3.3264160156,      117.6910400391
1489456943.2506949902,1489456943.2529881001,       -1.0131835938,        0.2377929688,        0.1440429688,       14.4195556641,       -7.2326660156,      119.4915771484
1489456943.2532689571,1489456943.2555589676,       -1.0131835938,        0.2377929688,        0.1440429688,       20.0653076172,       -5.1116943359,      119.4915771484
1489456943.2558400631,1489456943.2581310272,       -1.0131835938,        0.2377929688,        0.1440429688,       20.0653076172,       -5.1116943359,      120.0714111328
1489456943.2584118843,1489456943.2609620094,       -1.0131835938,        0.2377929688,        0.1440429688,       25.5737304688,       -6.2713623047,      120.0714111328
1489456943.2612509727,1489456943.2636721134,       -1.1977539062,        0.2460937500,        0.2416992188,       25.5737304688,       -6.2713623047,      122.3144531250
1489456943.2639620304,1489456943.2663791180,       -1.1977539062,        0.2460937500,        0.2416992188,       31.2500000000,       -5.3863525391,      122.3144531250
1489456943.2666659355,1489456943.2690939903,       -1.1977539062,        0.2460937500,        0.2416992188,       31.2500000000,       -5.3863525391,      127.1820068359
1489456943.2693829536,1489456943.2718019485,       -1.1977539062,        0.2460937500,        0.2416992188,       43.3349609375,       -2.0904541016,      127.1820068359
1489456943.2720899582,1489456943.2745049000,       -1.3798828125,        0.2788085938,        0.2514648438,       43.3349609375,       -2.0904541016,      130.2185058594
1489456943.2747941017,1489456943.2772040367,       -1.3798828125,        0.2788085938,        0.2514648438,       52.8106689453,        0.2441406250,      130.2185058594
1489456943.2774939537,1489456943.2800738811,       -1.3798828125,        0.2788085938,        0.2514648438,       52.8106689453,        0.2441406250,      131.5612792969
1489456943.2803580761,1489456943.2826490402,       -1.3798828125,        0.0288085938,        0.3696289062,       58.9294433594,        2.0141601562,      131.5612792969
1489456943.2829310894,1489456943.2852289677,       -1.3149414062,        0.0971679688,        0.3696289062,       58.9294433594,        2.0141601562,      131.5612792969
1489456943.2855091095,1489456943.2878038883,       -1.3149414062,        0.0971679688,        0.3696289062,       64.1174316406,        2.9907226562,      131.7901611328
1489456943.2880840302,1489456943.2905910015,       -1.3149414062,        0.0971679688,        0.3696289062,       64.1174316406,        2.9907226562,      131.7901611328
1489456943.2908790112,1489456943.2932639122,       -1.1899414062,       -0.0351562500,        0.3828125000,       64.4836425781,        2.9296875000,      132.2937011719
1489456943.2935519218,1489456943.2965190411,       -1.2397460938,       -0.0351562500,        0.3828125000,       64.4836425781,        2.9296875000,      133.2855224609
1489456943.2968039513,1489456943.2991790771,       -1.2397460938,       -0.0351562500,        0.3828125000,       62.2558593750,        1.6326904297,      133.2855224609
1489456943.2994608879,1489456943.3017539978,       -1.2397460938,       -0.0351562500,        0.3828125000,       62.2558593750,        1.6326904297,      133.2550048828
1489456943.3020360470,1489456943.3043260574,       -1.1401367188,       -0.0908203125,        0.3413085938,       56.7626953125,       -2.1057128906,      133.2550048828
1489456943.3046081066,1489456943.3068981171,       -1.1401367188,       -0.0908203125,        0.3413085938,       56.7626953125,       -2.1057128906,      129.3487548828
1489456943.3071789742,1489456943.3094770908,       -1.1401367188,       -0.0908203125,        0.3413085938,       49.8657226562,       -7.5683593750,      130.5847167969
1489456943.3097589016,1489456943.3120489120,       -1.1401367188,       -0.0908203125,        0.3413085938,       49.8657226562,       -7.5683593750,      130.5847167969
1489456943.3123300076,1489456943.3146278858,       -0.9902343750,       -0.2241210938,        0.2856445312,       46.9207763672,      -13.8549804688,      124.5269775391
1489456943.3150229454,1489456943.3173120022,       -0.9902343750,       -0.2241210938,        0.2856445312,       46.9207763672,      -13.8549804688,      124.5269775391
1489456943.3175990582,1489456943.3198969364,       -0.9902343750,       -0.2241210938,        0.2856445312,       44.5098876953,      -20.3247070312,      114.2730712891
1489456943.3201839924,1489456943.3224680424,       -0.9902343750,       -0.2241210938,        0.2856445312,       44.5098876953,      -20.3247070312,      114.2730712891
1489456943.3227519989,1489456943.3250339031,       -0.8793945312,       -0.3081054688,        0.1499023438,       42.8619384766,      -24.1851806641,      102.3406982422
1489456943.3253180981,1489456943.3276169300,       -0.8793945312,       -0.3081054688,        0.1499023438,       42.8619384766,      -24.1851806641,      102.3406982422
1489456943.3278999329,1489456943.3302340508,       -0.8793945312,       -0.3081054688,        0.1499023438,       42.2210693359,      -26.7486572266,       91.1254882812
1489456943.3305189610,1489456943.3328099251,       -0.8793945312,       -0.3081054688,        0.0190429688,       42.2210693359,      -26.7486572266,       91.1254882812
1489456943.3330950737,1489456943.3353879452,       -0.7485351562,       -0.3579101562,        0.0190429688,       37.2009277344,      -32.1807861328,       79.7424316406
1489456943.3356709480,1489456943.3379569054,       -0.7485351562,       -0.3579101562,        0.0190429688,       37.2009277344,      -32.1807861328,       79.7424316406
1489456943.3382411003,1489456943.3406929970,       -0.7485351562,       -0.3579101562,        0.0190429688,       23.4527587891,      -38.7420654297,       65.1397705078
1489456943.3409790993,1489456943.3432700634,       -0.7485351562,       -0.7329101562,       -0.0292968750,       23.4527587891,      -38.7420654297,       65.1397705078
1489456943.3435540199,1489456943.3458430767,       -0.6479492188,       -0.6948242188,       -0.0292968750,        0.0152587891,      -42.7398681641,       49.5758056641
1489456943.3461270332,1489456943.3484170437,       -0.6479492188,       -0.6948242188,       -0.0292968750,        3.4484863281,      -42.7398681641,       49.5758056641
1489456943.3486990929,1489456943.3510749340,       -0.6479492188,       -0.6948242188,       -0.0292968750,        3.4484863281,      -46.6461181641,       35.7513427734
1489456943.3513569832,1489456943.3536450863,       -0.6479492188,       -0.7500000000,       -0.1162109375,      -17.8070068359,      -44.9829101562,       35.7513427734
1489456943.3539309502,1489456943.3562200069,       -0.5595703125,       -0.7500000000,       -0.1162109375,      -17.8070068359,      -44.9829101562,       22.5677490234
1489456943.3565049171,1489456943.3588409424,       -0.5595703125,       -0.7500000000,       -0.1162109375,      -38.0096435547,      -48.2940673828,       22.5677490234
1489456943.3591270447,1489456943.3614261150,       -0.5595703125,       -0.7500000000,       -0.1162109375,      -38.0096435547,      -48.2940673828,       10.8489990234
1489456943.3617100716,1489456943.3639969826,       -0.5146484375,       -0.6704101562,       -0.1357421875,      -54.7637939453,      -50.4760742188,        8.9416503906
1489456943.3642790318,1489456943.3665699959,       -0.5146484375,       -0.6704101562,       -0.1357421875,      -54.7637939453,      -50.4760742188,        8.9416503906
1489456943.3668510914,1489456943.3691720963,       -0.5146484375,       -0.6704101562,       -0.1357421875,      -67.9626464844,      -49.4079589844,       -4.2419433594
1489456943.3694620132,1489456943.3718791008,       -0.5146484375,       -0.6704101562,       -0.1357421875,      -67.9626464844,      -49.4079589844,       -4.2419433594
1489456943.3721671104,1489456943.3745849133,       -0.5151367188,       -0.7119140625,       -0.1381835938,      -73.9593505859,      -46.3256835938,      -18.1732177734
1489456943.3748769760,1489456943.3772950172,       -0.5151367188,       -0.7119140625,       -0.1381835938,      -73.9593505859,      -46.3256835938,      -18.1732177734
1489456943.3776938915,1489456943.3801310062,       -0.5151367188,       -0.7119140625,       -0.1381835938,      -76.4160156250,      -43.7011718750,      -33.7066650391
1489456943.3804240227,1489456943.3828480244,       -0.5151367188,       -0.7119140625,       -0.1381835938,      -76.4160156250,      -43.7011718750,      -33.7066650391
1489456943.3831388950,1489456943.3855559826,       -0.5751953125,       -0.6137695312,       -0.1772460938,      -78.3843994141,      -41.8090820312,      -49.0112304688
1489456943.3858489990,1489456943.3882679939,       -0.5751953125,       -0.6137695312,       -0.1772460938,      -78.3843994141,      -41.8090820312,      -49.0112304688
1489456943.3885591030,1489456943.3908720016,       -0.5751953125,       -0.6137695312,       -0.1772460938,      -77.4688720703,      -38.4521484375,      -64.4226074219
1489456943.3911569118,1489456943.3934469223,       -0.5751953125,       -0.6137695312,       -0.1684570312,      -77.4688720703,      -38.4521484375,      -64.4226074219
1489456943.3937299252,1489456943.3960189819,       -0.5976562500,       -0.4511718750,       -0.1684570312,      -69.4732666016,      -34.6832275391,      -80.3680419922
1489456943.3963029385,1489456943.3985989094,       -0.5976562500,       -0.4511718750,       -0.1684570312,      -69.4732666016,      -34.6832275391,      -80.3680419922
1489456943.3988640308,1489456943.4012811184,       -0.5976562500,       -0.4511718750,       -0.1684570312,      -56.0913085938,      -30.6091308594,      -96.3287353516
1489456943.4015729427,1489456943.4039969444,       -0.5976562500,       -0.3261718750,       -0.1782226562,      -56.0913085938,      -30.6091308594,      -96.3287353516
1489456943.4042880535,1489456943.4069290161,       -0.6445312500,       -0.3481445312,       -0.1782226562,      -41.3360595703,      -27.0385742188,     -111.9079589844
1489456943.4072210789,1489456943.4099619389,       -0.6445312500,       -0.3481445312,       -0.1782226562,      -41.3360595703,      -27.0385742188,     -111.9079589844
1489456943.4102571011,1489456943.4126849174,       -0.6445312500,       -0.3481445312,       -0.1782226562,      -26.1077880859,      -23.6206054688,     -125.7476806641
1489456943.4129779339,1489456943.4153931141,       -0.7265625000,       -0.2812500000,       -0.2036132812,      -26.1077880859,      -23.6206054688,     -125.7476806641
1489456943.4156858921,1489456943.4181048870,       -0.7265625000,       -0.2812500000,       -0.2036132812,      -11.3983154297,      -19.6380615234,     -138.9465332031
1489456943.4183979034,1489456943.4208579063,       -0.7265625000,       -0.2812500000,       -0.2036132812,      -11.3983154297,      -19.6380615234,     -138.9465332031
1489456943.4211509228,1489456943.4235680103,       -0.7265625000,       -0.2812500000,       -0.2036132812,        0.4577636719,      -16.2200927734,     -151.0009765625
1489456943.4238569736,1489456943.4262809753,       -0.7915039062,       -0.2680664062,       -0.2128906250,        0.4577636719,      -16.2200927734,     -151.0009765625
1489456943.4265689850,1489456943.4290139675,       -0.7915039062,       -0.2680664062,       -0.2128906250,        9.1857910156,      -12.4664306641,     -162.2924804688
1489456943.4292969704,1489456943.4315900803,       -0.7915039062,       -0.2680664062,       -0.2128906250,        9.1857910156,      -12.4664306641,     -162.2924804688
1489456943.4318730831,1489456943.4341719151,       -0.7915039062,       -0.2680664062,       -0.2402343750,       14.3737792969,       -8.5296630859,     -172.0123291016
1489456943.4344549179,1489456943.4367489815,       -0.8496093750,       -0.2670898438,       -0.2402343750,       14.3737792969,       -8.5296630859,     -172.0123291016
1489456943.4370300770,1489456943.4393360615,       -0.8496093750,       -0.2670898438,       -0.2402343750,       16.5100097656,       -5.5541992188,     -180.5877685547
1489456943.4396190643,1489456943.4419090748,       -0.8496093750,       -0.2670898438,       -0.2402343750,       16.5100097656,       -5.5541992188,     -180.5877685547
1489456943.4422969818,1489456943.4445869923,       -0.9746093750,       -0.2773437500,       -0.2353515625,       17.1203613281,       -3.4179687500,     -188.5375976562
1489456943.4448680878,1489456943.4471650124,       -0.8959960938,       -0.2773437500,       -0.2353515625,       17.1203613281,       -3.4179687500,     -188.5375976562
1489456943.4474461079,1489456943.4497859478,       -0.8959960938,       -0.2773437500,       -0.2353515625,       14.0228271484,       -1.8768310547,     -195.6329345703
1489456943.4500670433,1489456943.4523611069,       -0.8959960938,       -0.2773437500,       -0.2353515625,       14.0228271484,       -1.8768310547,     -195.6329345703
1489456943.4526419640,1489456943.4549410343,       -0.9287109375,       -0.2807617188,       -0.2392578125,        8.0261230469,       -0.9460449219,     -201.6296386719
1489456943.4552190304,1489456943.4575140476,       -0.9287109375,       -0.2807617188,       -0.2392578125,        8.0261230469,       -0.9460449219,     -201.6296386719
1489456943.4577929974,1489456943.4601778984,       -0.9287109375,       -0.2807617188,       -0.2392578125,       -3.6926269531,       -0.5340576172,     -205.6121826172
1489456943.4604589939,1489456943.4627509117,       -0.9287109375,       -0.2807617188,       -0.2392578125,       -0.3051757812,       -0.5340576172,     -205.6121826172
1489456943.4630310535,1489456943.4653189182,       -0.9599609375,       -0.2646484375,       -0.2187500000,       -0.3051757812,       -0.5340576172,     -209.5489501953
1489456943.4656000137,1489456943.4679009914,       -0.9599609375,       -0.2646484375,       -0.2187500000,      -10.7421875000,       -0.6408691406,     -209.5489501953
1489456943.4681820869,1489456943.4706668854,       -0.9599609375,       -0.2646484375,       -0.2187500000,      -10.7421875000,       -0.6408691406,     -212.0666503906
1489456943.4709570408,1489456943.4733760357,       -0.9599609375,       -0.2646484375,       -0.2187500000,      -23.1781005859,       -1.2359619141,     -212.0666503906
1489456943.4736630917,1489456943.4760808945,       -1.0190429688,       -0.2353515625,       -0.1845703125,      -23.1781005859,       -1.2359619141,     -213.8366699219
1489456943.4763700962,1489456943.4787840843,       -1.0190429688,       -0.2353515625,       -0.1845703125,      -35.9802246094,       -0.5035400391,     -213.8366699219
1489456943.4791069031,1489456943.4814000130,       -1.0190429688,       -0.2353515625,       -0.1845703125,      -35.9802246094,       -0.5035400391,     -215.5151367188
1489456943.4816820621,1489456943.4839739799,       -1.0190429688,       -0.2353515625,       -0.1845703125,      -48.5076904297,       -0.6408691406,     -215.5151367188
1489456943.4842550755,1489456943.4865500927,       -1.0644531250,       -0.1635742188,       -0.1523437500,      -48.5076904297,       -0.6408691406,     -215.5151367188
1489456943.4868299961,1489456943.4891610146,       -1.0644531250,       -0.1635742188,       -0.1523437500,      -59.8297119141,       -0.4119873047,     -216.7510986328
1489456943.4894509315,1489456943.4918670654,       -1.0644531250,       -0.1635742188,       -0.1523437500,      -59.8297119141,       -0.4119873047,     -216.7510986328
1489456943.4921560287,1489456943.4945700169,       -1.0644531250,       -0.1635742188,       -0.1064453125,      -67.8558349609,        0.2441406250,     -217.3919677734
1489456943.4948599339,1489456943.4972820282,       -1.0893554688,       -0.0893554688,       -0.1064453125,      -67.8558349609,        0.2441406250,     -217.3919677734
1489456943.4975759983,1489456943.4999771118,       -1.0893554688,       -0.0893554688,       -0.1064453125,      -71.9604492188,        1.2207031250,     -218.4143066406
1489456943.5002589226,1489456943.5025579929,       -1.0893554688,       -0.0893554688,       -0.1064453125,      -71.9604492188,        1.2207031250,     -218.4143066406
1489456943.5028390884,1489456943.5051350594,       -1.0893554688,       -0.0087890625,       -0.0810546875,      -74.4781494141,        3.2043457031,     -219.3298339844
1489456943.5055260658,1489456943.5078198910,       -1.1093750000,       -0.0087890625,       -0.0810546875,      -74.4781494141,        3.2043457031,     -219.3298339844
1489456943.5081028938,1489456943.5105090141,       -1.1093750000,       -0.0087890625,       -0.0810546875,      -74.8901367188,        6.5155029297,     -219.8791503906
1489456943.5107998848,1489456943.5132179260,       -1.1093750000,       -0.0087890625,       -0.0810546875,      -74.8901367188,        6.5155029297,     -219.8791503906
1489456943.5135080814,1489456943.5159270763,       -1.1044921875,        0.0825195312,       -0.0488281250,      -73.7152099609,       10.1776123047,     -220.3521728516
1489456943.5162200928,1489456943.5186440945,       -1.1044921875,        0.0825195312,       -0.0488281250,      -73.7152099609,       10.1776123047,     -220.3521728516
1489456943.5189430714,1489456943.5213611126,       -1.1044921875,        0.0825195312,       -0.0488281250,      -73.8220214844,       15.3808593750,     -220.7946777344
1489456943.5216519833,1489456943.5240728855,       -1.1044921875,        0.0825195312,       -0.0488281250,      -73.8220214844,       15.3808593750,     -220.7946777344
1489456943.5243649483,1489456943.5269219875,       -1.0742187500,        0.1860351562,       -0.0332031250,      -74.0814208984,       22.5677490234,     -219.3756103516
1489456943.5272140503,1489456943.5298728943,       -1.0742187500,        0.1860351562,       -0.0332031250,      -74.0814208984,       22.5677490234,     -219.3756103516
1489456943.5301609039,1489456943.5324609280,       -1.0742187500,        0.1860351562,       -0.0332031250,      -74.4018554688,       27.8930664062,     -214.4622802734
1489456943.5327470303,1489456943.5350399017,       -1.0742187500,        0.3110351562,        0.0000000000,      -74.4018554688,       27.8930664062,     -214.4622802734
1489456943.5353219509,1489456943.5376238823,       -1.0458984375,        0.3095703125,        0.0000000000,      -74.2492675781,       30.0445556641,     -207.7178955078
1489456943.5379059315,1489456943.5402989388,       -1.0458984375,        0.3095703125,        0.0000000000,      -74.2492675781,       30.0445556641,     -207.7178955078
1489456943.5405900478,1489456943.5430109501,       -1.0458984375,        0.3095703125,        0.0000000000,      -74.9664306641,       31.2042236328,     -200.9277343750
1489456943.5433030128,1489456943.5457239151,       -1.0458984375,        0.3344726562,        0.0737304688,      -74.9664306641,       31.2042236328,     -200.9277343750
1489456943.5460159779,1489456943.5484340191,       -1.0141601562,        0.3344726562,        0.0737304688,      -75.7751464844,       31.7840576172,     -194.4885253906
1489456943.5487260818,1489456943.5511560440,       -1.0141601562,        0.3344726562,        0.0737304688,      -75.7751464844,       31.7840576172,     -194.4885253906
1489456943.5514490604,1489456943.5538730621,       -1.0141601562,        0.3344726562,        0.0737304688,      -75.6988525391,       32.6690673828,     -188.3392333984
1489456943.5541670322,1489456943.5565819740,       -0.9863281250,        0.2524414062,        0.1127929688,      -75.6988525391,       32.6690673828,     -188.3392333984
1489456943.5568730831,1489456943.5592899323,       -0.9863281250,        0.2524414062,        0.1127929688,      -74.2950439453,       32.0739746094,     -182.2662353516
1489456943.5595769882,1489456943.5618669987,       -0.9863281250,        0.2524414062,        0.1127929688,      -74.2950439453,       32.0739746094,     -182.2662353516
1489456943.5621519089,1489456943.5644481182,       -0.9863281250,        0.2524414062,        0.1127929688,      -71.8536376953,       31.3415527344,     -177.8411865234
1489456943.5647349358,1489456943.5670349598,       -0.9384765625,        0.1943359375,        0.1328125000,      -71.8536376953,       31.3415527344,     -177.8411865234
1489456943.5673189163,1489456943.5696599483,       -0.9384765625,        0.1943359375,        0.1328125000,      -68.2067871094,       30.7617187500,     -174.0417480469
1489456943.5700531006,1489456943.5723431110,       -0.9384765625,        0.1943359375,        0.1328125000,      -68.2067871094,       30.7617187500,     -174.0417480469
1489456943.5726289749,1489456943.5749299526,       -0.9384765625,        0.1943359375,        0.1328125000,      -63.1103515625,       29.9530029297,     -169.6319580078
1489456943.5752139091,1489456943.5775060654,       -0.8984375000,        0.1987304688,        0.1269531250,      -63.1103515625,       29.9530029297,     -169.6319580078
1489456943.5777900219,1489456943.5802121162,       -0.8984375000,        0.1987304688,        0.1269531250,      -57.1441650391,       28.2440185547,     -163.9709472656
1489456943.5804970264,1489456943.5827929974,       -0.8984375000,        0.1987304688,        0.1269531250,      -57.1441650391,       28.2440185547,     -163.9709472656
1489456943.5830779076,1489456943.5853700638,       -0.8984375000,        0.1987304688,        0.1083984375,      -53.2379150391,       27.0080566406,     -156.8908691406
1489456943.5856549740,1489456943.5879509449,       -0.8769531250,        0.2768554688,        0.1083984375,      -52.6275634766,       27.0080566406,     -156.8908691406
1489456943.5882370472,1489456943.5907769203,       -0.8769531250,        0.2768554688,        0.1083984375,      -52.6275634766,       26.2756347656,     -148.4985351562
1489456943.5910689831,1489456943.5934929848,       -0.8769531250,        0.2768554688,        0.1083984375,      -49.3621826172,       26.2756347656,     -148.4985351562
1489456943.5937840939,1489456943.5962018967,       -0.7519531250,        0.3603515625,        0.1079101562,      -49.3621826172,       25.8026123047,     -138.7329101562
1489456943.5964939594,1489456943.5989220142,       -0.8564453125,        0.3603515625,        0.1079101562,      -48.5839843750,       25.8026123047,     -138.7329101562
1489456943.5992150307,1489456943.6016399860,       -0.8564453125,        0.3603515625,        0.1079101562,      -48.5839843750,       25.1007080078,     -128.3416748047
1489456943.6019339561,1489456943.6043500900,       -0.8564453125,        0.3603515625,        0.1079101562,      -49.3316650391,       25.1007080078,     -128.3416748047
1489456943.6046431065,1489456943.6070570946,       -0.8374023438,        0.4033203125,        0.1367187500,      -49.3316650391,       23.8647460938,     -118.2708740234
1489456943.6073489189,1489456943.6097760201,       -0.8374023438,        0.4033203125,        0.1367187500,      -50.2014160156,       23.8647460938,     -118.2708740234
1489456943.6100690365,1489456943.6124858856,       -0.8374023438,        0.4033203125,        0.1367187500,      -50.2014160156,       22.7661132812,     -108.0474853516
1489456943.6127779484,1489456943.6151909828,       -0.8374023438,        0.4033203125,        0.1367187500,      -52.0935058594,       22.7661132812,     -108.0474853516
1489456943.6154849529,1489456943.6179070473,       -0.8071289062,        0.4331054688,        0.1298828125,      -52.0935058594,       22.3388671875,      -97.5341796875
1489456943.6181991100,1489456943.6205658913,       -0.8071289062,        0.4331054688,        0.1298828125,      -55.2978515625,       22.3388671875,      -97.5341796875
1489456943.6208510399,1489456943.6231529713,       -0.8071289062,        0.4331054688,        0.1298828125,      -55.2978515625,       22.3388671875,      -86.6699218750
1489456943.6234369278,1489456943.6257269382,       -0.8071289062,        0.4331054688,        0.1469726562,      -58.1665039062,       20.9960937500,      -86.6699218750
1489456943.6260089874,1489456943.6283020973,       -0.7490234375,        0.5239257812,        0.1469726562,      -58.1665039062,       20.9960937500,      -74.6459960938
1489456943.6285839081,1489456943.6309530735,       -0.7490234375,        0.5239257812,        0.1469726562,      -61.5234375000,       18.7835693359,      -74.6459960938
1489456943.6312370300,1489456943.6335289478,       -0.7490234375,        0.5239257812,        0.1469726562,      -61.5234375000,       18.7835693359,      -59.0209960938
1489456943.6339209080,1489456943.6362140179,       -0.7490234375,        0.6225585938,        0.2119140625,      -65.0024414062,       16.0064697266,      -61.9812011719
1489456943.6364998817,1489456943.6388421059,       -0.6870117188,        0.6225585938,        0.2119140625,      -65.0024414062,       16.0064697266,      -61.9812011719
1489456943.6391398907,1489456943.6415569782,       -0.6870117188,        0.6225585938,        0.2119140625,      -66.7572021484,       12.7563476562,      -50.0946044922
1489456943.6418480873,1489456943.6442699432,       -0.6870117188,        0.6225585938,        0.2119140625,      -66.7572021484,       12.7563476562,      -50.0946044922
1489456943.6445610523,1489456943.6471390724,       -0.6313476562,        0.6713867188,        0.2460937500,      -67.2149658203,       10.3912353516,      -38.4979248047
1489456943.6474308968,1489456943.6500949860,       -0.6313476562,        0.6713867188,        0.2460937500,      -67.2149658203,       10.3912353516,      -25.9246826172
1489456943.6503939629,1489456943.6528229713,       -0.6313476562,        0.6713867188,        0.2460937500,      -66.6351318359,        7.0953369141,      -25.9246826172
1489456943.6531119347,1489456943.6555259228,       -0.6313476562,        0.6713867188,        0.2460937500,      -66.6351318359,        7.0953369141,      -13.4429931641
1489456943.6558148861,1489456943.6582350731,       -0.6108398438,        0.7460937500,        0.2885742188,      -64.7125244141,        3.3874511719,      -13.4429931641
1489456943.6585230827,1489456943.6609520912,       -0.6108398438,        0.7460937500,        0.2885742188,      -64.7125244141,        3.3874511719,       -1.5411376953
1489456943.6612379551,1489456943.6636550426,       -0.6108398438,        0.7460937500,        0.2885742188,      -61.1724853516,        0.2746582031,       -1.5411376953
1489456943.6639430523,1489456943.6663630009,       -0.6108398438,        0.7460937500,        0.3344726562,      -61.1724853516,        0.2746582031,        9.8419189453
1489456943.6666491032,1489456943.6690709591,       -0.6025390625,        0.8286132812,        0.3344726562,      -56.3049316406,       -3.0975341797,        9.8419189453
1489456943.6693499088,1489456943.6716430187,       -0.6025390625,        0.8286132812,        0.3344726562,      -56.3049316406,       -3.0975341797,       21.5606689453
1489456943.6719229221,1489456943.6742269993,       -0.6025390625,        0.8286132812,        0.3344726562,      -49.9725341797,       -6.0272216797,       21.6979980469
1489456943.6745069027,1489456943.6767950058,       -0.6025390625,        0.9184570312,        0.4106445312,      -49.9725341797,       -6.0272216797,       21.6979980469
1489456943.6770749092,1489456943.6794168949,       -0.5722656250,        0.9184570312,        0.4106445312,      -42.6635742188,      -10.1165771484,       33.3709716797
1489456943.6797020435,1489456943.6819930077,       -0.5722656250,        0.9184570312,        0.4106445312,      -42.6635742188,      -10.1165771484,       33.3709716797
1489456943.6822779179,1489456943.6845688820,       -0.5722656250,        0.9184570312,        0.4106445312,      -32.0587158203,      -15.0451660156,       46.1578369141
1489456943.6848530769,1489456943.6871531010,       -0.5571289062,        1.0131835938,        0.4731445312,      -32.0587158203,      -15.0451660156,       46.1578369141
1489456943.6874361038,1489456943.6897780895,       -0.5571289062,        1.0131835938,        0.4731445312,      -18.0816650391,      -19.8822021484,       58.4259033203
1489456943.6900629997,1489456943.6923549175,       -0.5571289062,        1.0131835938,        0.4731445312,      -18.0816650391,      -19.8822021484,       58.4259033203
1489456943.6926379204,1489456943.6949350834,       -0.5571289062,        1.0131835938,        0.4731445312,       -3.6621093750,      -25.3448486328,       71.1364746094
1489456943.6952149868,1489456943.6975100040,       -0.5527343750,        1.1069335938,        0.5092773438,       -3.6621093750,      -25.3448486328,       71.1364746094
1489456943.6979000568,1489456943.7003259659,       -0.5527343750,        1.1069335938,        0.5092773438,       10.7269287109,      -31.1431884766,       83.6334228516
1489456943.7006111145,1489456943.7029070854,       -0.5527343750,        1.1069335938,        0.5092773438,       10.7269287109,      -31.1431884766,       83.6334228516
1489456943.7031919956,1489456943.7054829597,       -0.5527343750,        1.1069335938,        0.5092773438,       26.6723632812,      -37.7960205078,       95.2301025391
1489456943.7057669163,1489456943.7080678940,       -0.5786132812,        1.1914062500,        0.5781250000,       26.6723632812,      -37.7960205078,       95.2301025391
1489456943.7083520889,1489456943.7108891010,       -0.5786132812,        1.1914062500,        0.5781250000,       45.5322265625,      -45.3338623047,      105.8959960938
1489456943.7111821175,1489456943.7135999203,       -0.5786132812,        1.1914062500,        0.5781250000,       45.5322265625,      -45.3338623047,      105.8959960938
1489456943.7138910294,1489456943.7163150311,       -0.5786132812,        1.1914062500,        0.5781250000,       63.1256103516,      -52.8564453125,      110.4583740234
1489456943.7166080475,1489456943.7190270424,       -0.7963867188,        0.8183593750,        0.4960937500,       63.1256103516,      -52.8564453125,      110.4583740234
1489456943.7193109989,1489456943.7216029167,       -0.7963867188,        0.8183593750,        0.4960937500,       82.9620361328,      -50.5676269531,      109.1308593750
1489456943.7218871117,1489456943.7241780758,       -0.7963867188,        0.8183593750,        0.4960937500,       82.9620361328,      -50.5676269531,      109.1308593750
1489456943.7244620323,1489456943.7267560959,       -0.7963867188,        0.8183593750,       -0.0434570312,       82.9620361328,      -38.2995605469,      111.7553710938
1489456943.7270419598,1489456943.7293739319,       -1.1445312500,        0.0273437500,       -0.0434570312,      101.4862060547,      -38.2995605469,      111.7553710938
1489456943.7296659946,1489456943.7320809364,       -1.1445312500,        0.0273437500,       -0.0434570312,      101.4862060547,      -26.5808105469,      110.1531982422
1489456943.7323739529,1489456943.7347888947,       -1.1445312500,        0.0273437500,       -0.0434570312,       97.2747802734,      -24.8870849609,      110.1531982422
1489456943.7350819111,1489456943.7374989986,       -1.1445312500,       -1.2666015625,       -0.5185546875,       97.2747802734,       -9.2620849609,      100.4333496094
1489456943.7377851009,1489456943.7402420044,       -1.0878906250,       -1.2666015625,       -0.5185546875,       86.9293212891,      -10.5895996094,      100.4333496094
1489456943.7405340672,1489456943.7429590225,       -1.0878906250,       -1.2666015625,       -0.5185546875,       86.9293212891,       -2.7770996094,       91.8121337891
1489456943.7432460785,1489456943.7456629276,       -1.0878906250,       -1.2666015625,       -0.5185546875,       61.0504150391,       -2.7618408203,       91.8121337891
1489456943.7459490299,1489456943.7483599186,       -0.9340820312,       -1.4682617188,       -0.4726562500,       61.0504150391,       -2.7618408203,       90.1641845703
1489456943.7486479282,1489456943.7510828972,       -0.9340820312,       -1.4682617188,       -0.4726562500,       13.7329101562,       -3.8299560547,       90.1641845703
1489456943.7513720989,1489456943.7537920475,       -0.9340820312,       -1.4682617188,       -0.4726562500,       13.7329101562,       -7.7362060547,       98.0377197266
1489456943.7540810108,1489456943.7565031052,       -0.9340820312,       -1.4682617188,       -0.4726562500,      -32.9589843750,       -6.3171386719,       98.0377197266
1489456943.7567899227,1489456943.7592530251,       -0.9179687500,       -0.5722656250,       -0.2905273438,      -32.9589843750,      -10.2233886719,      112.0605468750
1489456943.7595460415,1489456943.7619600296,       -0.9179687500,       -0.5722656250,       -0.2905273438,      -75.6835937500,      -10.1928710938,      112.0605468750
1489456943.7623529434,1489456943.7647750378,       -0.9179687500,       -0.5722656250,       -0.2905273438,      -75.6835937500,      -18.0053710938,      125.9460449219
1489456943.7652430534,1489456943.7676548958,       -0.9179687500,        0.2065429688,       -0.0366210938,     -112.5488281250,      -17.1203613281,      125.9460449219
1489456943.7679491043,1489456943.7704470158,       -0.9331054688,        0.2065429688,       -0.0366210938,     -132.0800781250,      -23.3764648438,      136.1541748047
1489456943.7707369328,1489456943.7730290890,       -0.9331054688,        0.2065429688,       -0.0366210938,     -132.2021484375,      -23.3764648438,      136.1541748047
1489456943.7733170986,1489456943.7756080627,       -0.9331054688,        0.2065429688,       -0.0366210938,     -132.2021484375,      -31.1889648438,      143.3258056641
1489456943.7758939266,1489456943.7781910896,       -0.9418945312,        0.4702148438,        0.0888671875,     -136.7340087891,      -29.3121337891,      143.3258056641
1489456943.7784769535,1489456943.7808980942,       -0.9418945312,        0.4702148438,        0.0888671875,     -136.7340087891,      -29.3121337891,      145.5688476562
1489456943.7811930180,1489456943.7836101055,       -0.9418945312,        0.4702148438,        0.0888671875,     -136.0931396484,      -35.0494384766,      145.5688476562
1489456943.7839028835,1489456943.7863249779,       -0.9418945312,        0.4702148438,        0.0888671875,     -136.0931396484,      -35.0494384766,      140.7318115234
1489456943.7866170406,1489456943.7890479565,       -0.8994140625,        0.4985351562,        0.0795898438,     -128.2043457031,      -37.0941162109,      140.7318115234
1489456943.7893440723,1489456943.7917649746,       -0.8994140625,        0.4985351562,        0.0795898438,     -128.2043457031,      -37.0941162109,      128.7078857422
1489456943.7920579910,1489456943.7944779396,       -0.8994140625,        0.4985351562,        0.0795898438,     -105.9112548828,      -37.5976562500,      128.7078857422
1489456943.7947709560,1489456943.7971930504,       -0.8994140625,        0.4985351562,        0.0795898438,     -105.9112548828,      -37.5976562500,      115.4479980469
1489456943.7974860668,1489456943.7998669147,       -0.6977539062,        0.6723632812,        0.0175781250,      -73.2269287109,      -38.5894775391,      115.4479980469
1489456943.8001539707,1489456943.8024420738,       -0.6977539062,        0.6723632812,        0.0175781250,      -73.2269287109,      -38.5894775391,      106.3690185547
1489456943.8027269840,1489456943.8050200939,       -0.6977539062,        0.6723632812,        0.0175781250,      -38.7573242188,      -39.4439697266,      106.3690185547
1489456943.8053059578,1489456943.8076019287,       -0.6977539062,        0.6723632812,        0.0820312500,      -38.7573242188,      -39.4439697266,      106.3690185547
1489456943.8078880310,1489456943.8102290630,       -0.7983398438,        0.8051757812,        0.0820312500,       -7.8582763672,      -39.7644042969,      103.1188964844
1489456943.8105130196,1489456943.8128099442,       -0.7983398438,        0.8051757812,        0.0820312500,       -7.8582763672,      -39.7644042969,      103.1188964844
1489456943.8130929470,1489456943.8153839111,       -0.7983398438,        0.8051757812,        0.0820312500,       14.8010253906,      -39.7338867188,      101.7303466797
1489456943.8156669140,1489456943.8179609776,       -0.7983398438,        0.5551757812,        0.1357421875,       14.8010253906,      -39.7338867188,      101.7303466797
1489456943.8182439804,1489456943.8206999302,       -0.9028320312,        0.5668945312,        0.1357421875,       27.0233154297,      -39.1387939453,       98.3734130859
1489456943.8209860325,1489456943.8232810497,       -0.9028320312,        0.5668945312,        0.1357421875,       27.0233154297,      -39.1387939453,       98.3734130859
1489456943.8235650063,1489456943.8258650303,       -0.9028320312,        0.5668945312,        0.1357421875,       31.6009521484,      -38.5437011719,       93.6737060547
1489456943.8261489868,1489456943.8284471035,       -0.7778320312,        0.4003906250,        0.2368164062,       31.6009521484,      -38.5437011719,       93.6737060547
1489456943.8289599419,1489456943.8313739300,       -0.8305664062,        0.4003906250,        0.2368164062,       33.2336425781,      -39.8712158203,       90.6982421875
1489456943.8316669464,1489456943.8340909481,       -0.8305664062,        0.4003906250,        0.2368164062,       33.2336425781,      -39.8712158203,       90.6982421875
1489456943.8343839645,1489456943.8367979527,       -0.8305664062,        0.4003906250,        0.2368164062,       32.6538085938,      -41.7633056641,       89.1265869141
1489456943.8370890617,1489456943.8395240307,       -0.7602539062,        0.3896484375,        0.2700195312,       32.6538085938,      -41.7633056641,       89.1265869141
1489456943.8398170471,1489456943.8422410488,       -0.7602539062,        0.3896484375,        0.2700195312,       30.2886962891,      -41.3208007812,       86.8377685547
1489456943.8425331116,1489456943.8449459076,       -0.7602539062,        0.3896484375,        0.2700195312,       30.2886962891,      -41.3208007812,       86.8377685547
1489456943.8452370167,1489456943.8476500511,       -0.7602539062,        0.3896484375,        0.2700195312,       27.0538330078,      -39.1845703125,       83.3435058594
1489456943.8479421139,1489456943.8503670692,       -0.7475585938,        0.3339843750,        0.2294921875,       27.0538330078,      -39.1845703125,       83.3435058594
1489456943.8506579399,1489456943.8530740738,       -0.7475585938,        0.3339843750,        0.2294921875,       24.0936279297,      -36.9567871094,       80.5206298828
1489456943.8533658981,1489456943.8557879925,       -0.7475585938,        0.3339843750,        0.2294921875,       24.0936279297,      -36.9567871094,       80.5206298828
1489456943.8560779095,1489456943.8584918976,       -0.7475585938,        0.3339843750,        0.2026367188,       19.8516845703,      -34.9578857422,       78.4149169922
1489456943.8587839603,1489456943.8611149788,       -0.7666015625,        0.2690429688,        0.2026367188,       19.8516845703,      -34.9578857422,       78.4149169922
1489456943.8613989353,1489456943.8636939526,       -0.7666015625,        0.2690429688,        0.2026367188,       12.3443603516,      -33.7524414062,       76.5228271484
1489456943.8639779091,1489456943.8662700653,       -0.7666015625,        0.2690429688,        0.2026367188,       12.3443603516,      -33.7524414062,       76.5228271484
1489456943.8665549755,1489456943.8689880371,       -0.7666015625,        0.2563476562,        0.2221679688,        4.5928955078,      -33.2183837891,       74.0203857422
1489456943.8692719936,1489456943.8715670109,       -0.7797851562,        0.2563476562,        0.2221679688,        4.5928955078,      -33.2183837891,       74.0203857422
1489456943.8718481064,1489456943.8741419315,       -0.7797851562,        0.2563476562,        0.2221679688,        0.3509521484,      -32.0892333984,       70.8312988281
1489456943.8744230270,1489456943.8767249584,       -0.7797851562,        0.2563476562,        0.2221679688,        0.3509521484,      -32.0892333984,       70.8312988281
1489456943.8770070076,1489456943.8794329166,       -0.7749023438,        0.2666015625,        0.2231445312,       -3.5552978516,      -29.5410156250,       67.8558349609
1489456943.8797209263,1489456943.8820960522,       -0.7749023438,        0.2666015625,        0.2231445312,       -0.7476806641,      -29.5410156250,       67.8558349609
1489456943.8823831081,1489456943.8848869801,       -0.7749023438,        0.2666015625,        0.2231445312,        3.1585693359,      -26.8707275391,       64.4531250000
1489456943.8851909637,1489456943.8876039982,       -0.7749023438,        0.2666015625,        0.2231445312,        1.8310546875,      -26.8707275391,       64.4531250000
1489456943.8878939152,1489456943.8907239437,       -0.7734375000,        0.2924804688,        0.1684570312,        6.9885253906,      -23.7274169922,       60.3637695312
1489456943.8910140991,1489456943.8934309483,       -0.7734375000,        0.2924804688,        0.1684570312,        6.9885253906,      -23.7274169922,       60.3637695312
1489456943.8938319683,1489456943.8962490559,       -0.7734375000,        0.2924804688,        0.1684570312,       10.5590820312,      -21.0723876953,       56.5643310547
1489456943.8965430260,1489456943.8989689350,       -0.7734375000,        0.2753906250,        0.1469726562,       10.5590820312,      -21.0723876953,       56.5643310547
1489456943.8992609978,1489456943.9016759396,       -0.7592773438,        0.2753906250,        0.1469726562,       12.4206542969,      -19.5617675781,       53.3447265625
1489456943.9019660950,1489456943.9043810368,       -0.7592773438,        0.2753906250,        0.1469726562,       12.4206542969,      -19.5617675781,       53.3447265625
1489456943.9046719074,1489456943.9070949554,       -0.7592773438,        0.2753906250,        0.1469726562,       12.9852294922,      -18.4783935547,       50.1556396484
1489456943.9073851109,1489456943.9097940922,       -0.7539062500,        0.2368164062,        0.1630859375,       12.9852294922,      -18.4783935547,       50.1556396484
