time_stamp before, time_stamp after, Acceleration x, Acceleration y, Acceleration z, Gyro x, Gyro y, Gyro z
1489456882.0207140446,1489456882.0327351093,       -0.7280273438,        0.0541992188,        0.0341796875,       -0.1220703125,        0.3814697266,        0.1525878906
1489456882.0330429077,1489456882.0359768867,       -0.7280273438,        0.0541992188,        0.0341796875,       -0.1220703125,        0.3814697266,        0.1525878906
1489456882.0362589359,1489456882.0385420322,       -0.7397460938,        0.0551757812,        0.0356445312,        0.0305175781,       -0.3051757812,        0.2136230469
1489456882.0390210152,1489456882.0413091183,       -0.7397460938,        0.0551757812,        0.0356445312,        0.0305175781,       -0.3051757812,        0.2136230469
1489456882.0415809155,1489456882.0438699722,       -0.7397460938,        0.0551757812,        0.0356445312,       -0.1525878906,        0.0610351562,        0.4119873047
1489456882.0450170040,1489456882.0473029613,       -0.7314453125,        0.0551757812,        0.0307617188,       -0.1525878906,        0.0610351562,        0.4119873047
1489456882.0475769043,1489456882.0498709679,       -0.7314453125,        0.0551757812,        0.0307617188,       -0.7476806641,        0.1983642578,        0.3356933594
1489456882.0501430035,1489456882.0524270535,       -0.7314453125,        0.0551757812,        0.0307617188,       -0.7476806641,        0.1983642578,        0.3356933594
1489456882.0527009964,1489456882.0549840927,       -0.7314453125,        0.0551757812,        0.0307617188,       -0.3356933594,        0.0915527344,       -0.1831054688
1489456882.0552570820,1489456882.0575420856,       -0.7333984375,        0.0556640625,        0.0283203125,       -0.3356933594,        0.0915527344,       -0.1831054688
1489456882.0578129292,1489456882.0601010323,       -0.7333984375,        0.0556640625,        0.0283203125,        0.1983642578,        0.0915527344,        0.0305175781
1489456882.0603721142,1489456882.0626609325,       -0.7333984375,        0.0556640625,        0.0283203125,        0.1983642578,        0.0915527344,        0.0305175781
1489456882.0629329681,1489456882.0652139187,       -0.7333984375,        0.0556640625,        0.0283203125,        0.1220703125,       -0.1983642578,        0.0915527344
1489456882.0654859543,1489456882.0677709579,       -0.7421875000,        0.0468750000,        0.0390625000,        0.1220703125,       -0.1983642578,        0.0915527344
1489456882.0680429935,1489456882.0703721046,       -0.7421875000,        0.0468750000,        0.0390625000,       -0.1525878906,        0.1678466797,        0.1220703125
1489456882.0706450939,1489456882.0729279518,       -0.7421875000,        0.0468750000,        0.0390625000,       -0.1525878906,        0.1678466797,        0.1220703125
1489456882.0731999874,1489456882.0754930973,       -0.7421875000,        0.0468750000,        0.0390625000,       -0.3662109375,        0.2136230469,        0.3509521484
1489456882.0757670403,1489456882.0780611038,       -0.7314453125,        0.0507812500,        0.0312500000,       -0.3662109375,        0.2136230469,        0.3509521484
1489456882.0783350468,1489456882.0807819366,       -0.7314453125,        0.0507812500,        0.0312500000,       -0.3662109375,        0.1220703125,        0.0610351562
1489456882.0810561180,1489456882.0833539963,       -0.7314453125,        0.0507812500,        0.0312500000,       -0.2746582031,        0.1220703125,        0.0610351562
1489456882.0836288929,1489456882.0859169960,       -0.7314453125,        0.0507812500,        0.0312500000,       -0.2746582031,        0.2899169922,        0.1068115234
1489456882.0861930847,1489456882.0884809494,       -0.7363281250,        0.0590820312,        0.0195312500,       -0.1678466797,        0.2899169922,        0.1068115234
1489456882.0887579918,1489456882.0911018848,       -0.7363281250,        0.0590820312,        0.0195312500,       -0.1678466797,        0.2899169922,        0.6103515625
1489456882.0913779736,1489456882.0936620235,       -0.7363281250,        0.0590820312,        0.0195312500,        0.3509521484,       -0.0457763672,        0.6103515625
1489456882.0940940380,1489456882.0963840485,       -0.7363281250,        0.0590820312,        0.0195312500,        0.3509521484,       -0.0457763672,        0.6408691406
1489456882.0966589451,1489456882.0990180969,       -0.7363281250,        0.0522460938,        0.0454101562,        0.6713867188,       -0.2288818359,        0.6408691406
1489456882.0992939472,1489456882.1015810966,       -0.7363281250,        0.0522460938,        0.0454101562,        0.6713867188,       -0.2288818359,        0.6408691406
1489456882.1018540859,1489456882.1041479111,       -0.7363281250,        0.0522460938,        0.0454101562,        0.2593994141,       -0.1373291016,        0.3662109375
1489456882.1044220924,1489456882.1067130566,       -0.7363281250,        0.0522460938,        0.0375976562,        0.2593994141,       -0.1373291016,        0.3662109375
1489456882.1069869995,1489456882.1092851162,       -0.7319335938,        0.0595703125,        0.0375976562,       -0.1678466797,        0.1831054688,        0.2899169922
1489456882.1095600128,1489456882.1118509769,       -0.7319335938,        0.0595703125,        0.0375976562,       -0.1678466797,        0.1831054688,        0.2899169922
1489456882.1121261120,1489456882.1144120693,       -0.7319335938,        0.0595703125,        0.0375976562,       -0.2746582031,        0.4119873047,        0.1831054688
1489456882.1146860123,1489456882.1169741154,       -0.7319335938,        0.0595703125,        0.0336914062,       -0.2746582031,        0.4119873047,        0.1831054688
1489456882.1172480583,1489456882.1196138859,       -0.7304687500,        0.0546875000,        0.0336914062,       -0.0762939453,        0.2288818359,        0.2899169922
1489456882.1198871136,1489456882.1221768856,       -0.7304687500,        0.0546875000,        0.0336914062,       -0.0762939453,        0.2288818359,        0.2899169922
1489456882.1224529743,1489456882.1248478889,       -0.7304687500,        0.0546875000,        0.0336914062,       -0.1525878906,        0.0762939453,        0.3204345703
1489456882.1251239777,1489456882.1274120808,       -0.7304687500,        0.0605468750,        0.0278320312,       -0.1525878906,        0.0762939453,        0.3204345703
1489456882.1276860237,1489456882.1301510334,       -0.7343750000,        0.0605468750,        0.0278320312,        0.7476806641,       -0.0915527344,        0.6256103516
1489456882.1304268837,1489456882.1327149868,       -0.7343750000,        0.0605468750,        0.0278320312,        0.7476806641,       -0.0915527344,        0.6256103516
1489456882.1329910755,1489456882.1354970932,       -0.7343750000,        0.0605468750,        0.0278320312,        0.4272460938,       -0.1983642578,        0.5798339844
1489456882.1357879639,1489456882.1380860806,       -0.7402343750,        0.0541992188,        0.0454101562,        0.4272460938,       -0.1983642578,        0.5798339844
1489456882.1383640766,1489456882.1406519413,       -0.7402343750,        0.0541992188,        0.0454101562,        0.4272460938,        0.0457763672,        0.3814697266
1489456882.1409280300,1489456882.1432089806,       -0.7402343750,        0.0541992188,        0.0454101562,        0.0305175781,        0.0457763672,        0.3814697266
1489456882.1434829235,1489456882.1457738876,       -0.7402343750,        0.0541992188,        0.0454101562,        0.0305175781,       -3.8604736328,        0.5493164062
1489456882.1460490227,1489456882.1483349800,       -0.7299804688,        0.0581054688,        0.0468750000,        0.3356933594,       -0.3814697266,        0.5493164062
1489456882.1486079693,1489456882.1509439945,       -0.7299804688,        0.0581054688,        0.0468750000,        0.3356933594,       -0.3814697266,        0.3814697266
1489456882.1512179375,1489456882.1535060406,       -0.7299804688,        0.0581054688,        0.0468750000,       -0.2746582031,       -0.1373291016,        0.3814697266
1489456882.1537809372,1489456882.1560680866,       -0.7299804688,        0.0581054688,        0.0468750000,       -0.2746582031,       -0.1373291016,        0.3814697266
1489456882.1564559937,1489456882.1587491035,       -0.7343750000,        0.0556640625,        0.0371093750,       -0.4272460938,        0.0152587891,        0.4730224609
1489456882.1590759754,1489456882.1613619328,       -0.7343750000,        0.0556640625,        0.0371093750,       -0.4272460938,        0.0152587891,        0.4730224609
1489456882.1616370678,1489456882.1639220715,       -0.7343750000,        0.0556640625,        0.0371093750,       -0.7171630859,        0.0762939453,        0.3814697266
1489456882.1641969681,1489456882.1664791107,       -0.7343750000,        0.0556640625,        0.0371093750,       -0.7171630859,        0.0762939453,        0.3814697266
1489456882.1667549610,1489456882.1690800190,       -0.7363281250,        0.0629882812,        0.0375976562,       -0.3967285156,        0.2136230469,        0.3814697266
1489456882.1693561077,1489456882.1716439724,       -0.7363281250,        0.0629882812,        0.0375976562,       -0.3967285156,        0.2136230469,        0.3814697266
1489456882.1719179153,1489456882.1742041111,       -0.7363281250,        0.0629882812,        0.0375976562,       -0.0152587891,       -0.1678466797,        0.5950927734
1489456882.1744790077,1489456882.1767659187,       -0.7363281250,        0.0629882812,        0.0375976562,       -0.0152587891,       -0.1678466797,        0.5950927734
1489456882.1770401001,1489456882.1793789864,       -0.7333984375,        0.0527343750,        0.0341796875,       -0.3967285156,        0.1220703125,        0.5340576172
1489456882.1796550751,1489456882.1819438934,       -0.7333984375,        0.0527343750,        0.0341796875,       -0.3967285156,        0.1220703125,        0.5340576172
1489456882.1822180748,1489456882.1845059395,       -0.7333984375,        0.0527343750,        0.0341796875,       -0.1678466797,        0.2288818359,        0.6713867188
1489456882.1847798824,1489456882.1870648861,       -0.7333984375,        0.0527343750,        0.0341796875,       -0.1678466797,        0.2288818359,        0.6713867188
1489456882.1873400211,1489456882.1897399426,       -0.7373046875,        0.0595703125,        0.0336914062,       -0.1678466797,       -0.1525878906,        0.5187988281
1489456882.1900138855,1489456882.1923010349,       -0.7373046875,        0.0595703125,        0.0336914062,       -0.1068115234,       -0.1525878906,        0.5187988281
1489456882.1925790310,1489456882.1948659420,       -0.7373046875,        0.0595703125,        0.0336914062,       -0.1068115234,       -0.0457763672,        0.1525878906
1489456882.1951439381,1489456882.1974329948,       -0.7373046875,        0.0595703125,        0.0336914062,       -0.3662109375,       -0.0457763672,        0.1525878906
1489456882.1977078915,1489456882.2000238895,       -0.7265625000,        0.0600585938,        0.0288085938,       -0.3662109375,       -0.0457763672,        0.1068115234
1489456882.2002990246,1489456882.2025890350,       -0.7265625000,        0.0600585938,        0.0288085938,       -0.3051757812,       -0.1373291016,        0.1068115234
1489456882.2028629780,1489456882.2051548958,       -0.7265625000,        0.0600585938,        0.0288085938,       -0.3051757812,       -0.1373291016,        0.1068115234
1489456882.2054300308,1489456882.2077190876,       -0.7265625000,        0.0600585938,        0.0288085938,       -0.1068115234,       -0.1373291016,        0.2441406250
1489456882.2079949379,1489456882.2109448910,       -0.7333984375,        0.0590820312,        0.0346679688,       -0.1068115234,       -0.1373291016,        0.3662109375
1489456882.2112390995,1489456882.2136530876,       -0.7333984375,        0.0590820312,        0.0346679688,        0.0305175781,       -0.0915527344,        0.3662109375
1489456882.2139360905,1489456882.2163488865,       -0.7333984375,        0.0590820312,        0.0346679688,        0.0305175781,       -0.0915527344,        0.1831054688
1489456882.2166309357,1489456882.2190520763,       -0.7338867188,        0.0561523438,        0.0424804688,        0.1678466797,       -0.0457763672,        0.1831054688
1489456882.2194490433,1489456882.2217409611,       -0.7338867188,        0.0561523438,        0.0424804688,        0.1678466797,       -0.0457763672,        0.1220703125
1489456882.2220160961,1489456882.2243080139,       -0.7338867188,        0.0561523438,        0.0424804688,        0.1068115234,        0.0762939453,        0.1220703125
1489456882.2245819569,1489456882.2268700600,       -0.7338867188,        0.0561523438,        0.0424804688,        0.1068115234,        0.0762939453,        0.1220703125
1489456882.2271440029,1489456882.2295069695,       -0.7319335938,        0.0576171875,        0.0307617188,       -0.0610351562,       -0.0152587891,        0.1373291016
1489456882.2297899723,1489456882.2322099209,       -0.7319335938,        0.0576171875,        0.0307617188,       -0.0610351562,       -0.0152587891,        0.1373291016
1489456882.2324919701,1489456882.2349081039,       -0.7319335938,        0.0576171875,        0.0307617188,       -0.3509521484,       -0.0457763672,        0.1678466797
1489456882.2351889610,1489456882.2376029491,       -0.7319335938,        0.0576171875,        0.0307617188,       -0.3509521484,       -0.0457763672,        0.1678466797
1489456882.2378849983,1489456882.2404201031,       -0.7387695312,        0.0551757812,        0.0424804688,       -0.3204345703,        0.1678466797,        0.0305175781
1489456882.2407031059,1489456882.2430880070,       -0.7387695312,        0.0551757812,        0.0424804688,       -0.3204345703,        0.1678466797,        0.0305175781
1489456882.2433691025,1489456882.2458539009,       -0.7387695312,        0.0551757812,        0.0424804688,       -0.5798339844,        0.0915527344,        0.0000000000
1489456882.2461369038,1489456882.2485508919,       -0.7387695312,        0.0551757812,        0.0322265625,       -0.5798339844,        0.0915527344,        0.0000000000
1489456882.2488429546,1489456882.2512660027,       -0.7377929688,        0.0566406250,        0.0322265625,       -0.1220703125,       -0.1678466797,        0.1678466797
1489456882.2515490055,1489456882.2539649010,       -0.7377929688,        0.0566406250,        0.0322265625,       -0.1220703125,       -0.1678466797,        0.1678466797
1489456882.2542479038,1489456882.2566659451,       -0.7377929688,        0.0566406250,        0.0322265625,       -0.1983642578,        0.0305175781,        0.2288818359
1489456882.2569470406,1489456882.2593619823,       -0.7387695312,        0.0551757812,        0.0458984375,       -0.1983642578,        0.0305175781,        0.2288818359
1489456882.2596449852,1489456882.2620639801,       -0.7387695312,        0.0551757812,        0.0458984375,       -0.2593994141,        0.1983642578,        0.1220703125
1489456882.2623460293,1489456882.2647678852,       -0.7387695312,        0.0551757812,        0.0458984375,       -0.2593994141,        0.1983642578,        0.1220703125
1489456882.2650489807,1489456882.2674651146,       -0.7387695312,        0.0551757812,        0.0458984375,       -0.0457763672,        0.0152587891,        0.1831054688
1489456882.2677459717,1489456882.2700920105,       -0.7368164062,        0.0532226562,        0.0356445312,       -0.0457763672,        0.0152587891,        0.1831054688
1489456882.2703669071,1489456882.2726640701,       -0.7368164062,        0.0532226562,        0.0356445312,        0.0152587891,        0.1373291016,        0.0915527344
1489456882.2729361057,1489456882.2752239704,       -0.7368164062,        0.0532226562,        0.0356445312,        0.0152587891,        0.1373291016,        0.0915527344
1489456882.2754979134,1489456882.2777860165,       -0.7368164062,        0.0532226562,        0.0356445312,        0.0457763672,       -0.1068115234,        0.3204345703
1489456882.2780599594,1489456882.2804009914,       -0.7407226562,        0.0585937500,        0.0361328125,        0.0457763672,       -0.1068115234,        0.3204345703
1489456882.2806770802,1489456882.2829620838,       -0.7407226562,        0.0585937500,        0.0361328125,        0.1068115234,       -0.1983642578,        0.1525878906
1489456882.2833418846,1489456882.2856409550,       -0.7407226562,        0.0585937500,        0.0361328125,        0.1068115234,       -0.1983642578,        0.1525878906
1489456882.2859160900,1489456882.2882089615,       -0.7407226562,        0.0585937500,        0.0361328125,       -0.1983642578,       -0.1525878906,       -0.0915527344
1489456882.2884840965,1489456882.2908749580,       -0.7338867188,        0.0634765625,        0.0346679688,       -0.1983642578,       -0.1525878906,       -0.0915527344
1489456882.2911489010,1489456882.2934451103,       -0.7338867188,        0.0634765625,        0.0346679688,        0.1525878906,       -0.2593994141,        0.1525878906
1489456882.2937200069,1489456882.2960109711,       -0.7338867188,        0.0634765625,        0.0346679688,        0.1525878906,       -0.2593994141,        0.1525878906
1489456882.2962849140,1489456882.2985820770,       -0.7338867188,        0.0634765625,        0.0346679688,        0.2746582031,       -0.3051757812,        0.2746582031
1489456882.2989521027,1489456882.3013679981,       -0.7338867188,        0.0556640625,        0.0375976562,        0.2746582031,       -0.3051757812,        0.2746582031
1489456882.3016500473,1489456882.3040599823,       -0.7338867188,        0.0556640625,        0.0375976562,        0.1678466797,       -0.1373291016,       -0.1373291016
1489456882.3043420315,1489456882.3067600727,       -0.7338867188,        0.0556640625,        0.0375976562,        0.1678466797,       -0.1373291016,       -0.1373291016
1489456882.3070430756,1489456882.3094699383,       -0.7338867188,        0.0644531250,        0.0297851562,        0.1678466797,        0.1525878906,        0.1373291016
1489456882.3097519875,1489456882.3121690750,       -0.7319335938,        0.0644531250,        0.0297851562,        0.1678466797,        0.1525878906,        0.1373291016
1489456882.3124489784,1489456882.3148748875,       -0.7319335938,        0.0644531250,        0.0297851562,       -3.7384033203,        0.3662109375,        0.0000000000
1489456882.3151559830,1489456882.3175721169,       -0.7319335938,        0.0644531250,        0.0297851562,       -0.4272460938,        0.3662109375,        0.0000000000
1489456882.3178539276,1489456882.3202149868,       -0.7319335938,        0.0561523438,        0.0415039062,       -0.4272460938,       -0.0457763672,       -0.1220703125
1489456882.3204898834,1489456882.3227820396,       -0.7319335938,        0.0561523438,        0.0415039062,       -0.0152587891,       -0.0457763672,       -0.1220703125
1489456882.3230569363,1489456882.3253469467,       -0.7319335938,        0.0561523438,        0.0415039062,       -0.0152587891,        3.8604736328,        0.2899169922
1489456882.3256199360,1489456882.3279221058,       -0.7319335938,        0.0561523438,        0.0415039062,       -0.1525878906,        0.1068115234,        0.2899169922
1489456882.3281960487,1489456882.3305890560,       -0.7324218750,        0.0585937500,        0.0424804688,       -0.1525878906,        0.1068115234,        0.0762939453
1489456882.3308699131,1489456882.3332839012,       -0.7324218750,        0.0585937500,        0.0424804688,       -0.3967285156,        0.2441406250,        0.0762939453
1489456882.3335649967,1489456882.3361279964,       -0.7324218750,        0.0585937500,        0.0424804688,       -0.3967285156,        0.2441406250,       -0.0762939453
1489456882.3364050388,1489456882.3386969566,       -0.7324218750,        0.0585937500,        0.0424804688,        0.2136230469,        0.4272460938,       -0.0762939453
1489456882.3390378952,1489456882.3414320946,       -0.7319335938,        0.0532226562,        0.0375976562,        0.2136230469,        0.4272460938,        0.3662109375
1489456882.3417139053,1489456882.3440999985,       -0.7319335938,        0.0532226562,        0.0375976562,        0.3204345703,       -0.1831054688,        0.3662109375
1489456882.3444809914,1489456882.3468620777,       -0.7319335938,        0.0532226562,        0.0375976562,        0.3204345703,       -0.1831054688,        0.4272460938
1489456882.3472480774,1489456882.3501091003,       -0.7319335938,        0.0532226562,        0.0297851562,        0.6561279297,       -0.1983642578,        0.4272460938
1489456882.3503930569,1489456882.3528130054,       -0.7304687500,        0.0605468750,        0.0297851562,        0.6561279297,        0.1068115234,        0.6256103516
1489456882.3530941010,1489456882.3555130959,       -0.7304687500,        0.0605468750,        0.0297851562,        0.2288818359,        0.1068115234,        0.6256103516
1489456882.3557949066,1489456882.3582060337,       -0.7304687500,        0.0605468750,        0.0297851562,        0.2288818359,       -0.0457763672,        0.2593994141
1489456882.3584868908,1489456882.3609158993,       -0.7285156250,        0.0600585938,        0.0390625000,        0.1220703125,       -0.0457763672,        0.2593994141
1489456882.3612000942,1489456882.3636200428,       -0.7285156250,        0.0600585938,        0.0390625000,        0.1220703125,       -0.1373291016,        0.1373291016
1489456882.3639039993,1489456882.3663239479,       -0.7285156250,        0.0600585938,        0.0390625000,        0.3356933594,       -0.1373291016,        0.1373291016
1489456882.3666059971,1489456882.3690218925,       -0.7285156250,        0.0600585938,        0.0390625000,        0.3356933594,        0.0457763672,        0.2288818359
1489456882.3692960739,1489456882.3715910912,       -0.7348632812,        0.0566406250,        0.0336914062,        0.1525878906,        0.0457763672,        0.2288818359
1489456882.3718640804,1489456882.3741559982,       -0.7348632812,        0.0566406250,        0.0336914062,        0.1525878906,        0.0457763672,        0.1220703125
1489456882.3744299412,1489456882.3767209053,       -0.7348632812,        0.0566406250,        0.0336914062,       -0.0915527344,        0.1068115234,        0.1220703125
1489456882.3769960403,1489456882.3792951107,       -0.7348632812,        0.0566406250,        0.0336914062,       -0.0915527344,        0.1068115234,        0.1220703125
1489456882.3795719147,1489456882.3818640709,       -0.7373046875,        0.0551757812,        0.0263671875,       -0.4425048828,       -0.1220703125,        0.3356933594
1489456882.3821399212,1489456882.3844349384,       -0.7373046875,        0.0551757812,        0.0263671875,       -0.4425048828,       -0.1220703125,        0.3356933594
1489456882.3847100735,1489456882.3870029449,       -0.7373046875,        0.0551757812,        0.0263671875,       -0.9307861328,        0.1678466797,        0.1678466797
1489456882.3872790337,1489456882.3896129131,       -0.7373046875,        0.0551757812,        0.0292968750,       -0.9307861328,        0.1678466797,        0.1678466797
1489456882.3898880482,1489456882.3921859264,       -0.7382812500,        0.0561523438,        0.0292968750,       -0.5645751953,        0.1983642578,        0.2746582031
1489456882.3924589157,1489456882.3947548866,       -0.7382812500,        0.0561523438,        0.0292968750,       -0.5645751953,        0.1983642578,        0.2746582031
1489456882.3950281143,1489456882.3973228931,       -0.7382812500,        0.0561523438,        0.0292968750,       -0.9460449219,        0.0915527344,        0.6256103516
1489456882.3975970745,1489456882.3999819756,       -0.7382812500,        0.0561523438,        0.0283203125,       -0.9460449219,        0.0915527344,        0.6256103516
1489456882.4002571106,1489456882.4025499821,       -0.7358398438,        0.0561523438,        0.0283203125,       -0.8239746094,        0.0000000000,        0.6561279297
1489456882.4028251171,1489456882.4051189423,       -0.7358398438,        0.0561523438,        0.0283203125,       -0.8239746094,        0.0000000000,        0.6561279297
1489456882.4053928852,1489456882.4076840878,       -0.7358398438,        0.0561523438,        0.0283203125,       -1.2664794922,        0.4577636719,        0.6866455078
1489456882.4079580307,1489456882.4104650021,       -0.7358398438,        0.0610351562,        0.0273437500,       -1.2664794922,        0.4577636719,        0.6866455078
1489456882.4108490944,1489456882.4132659435,       -0.7280273438,        0.0610351562,        0.0273437500,       -1.3732910156,        0.4425048828,        0.3967285156
1489456882.4135479927,1489456882.4159650803,       -0.7280273438,        0.0610351562,        0.0273437500,       -1.3732910156,        0.4425048828,        0.3967285156
1489456882.4162449837,1489456882.4186599255,       -0.7280273438,        0.0610351562,        0.0273437500,       -1.8920898438,        0.7324218750,        0.2288818359
1489456882.4189519882,1489456882.4212400913,       -0.7338867188,        0.0615234375,        0.0444335938,       -1.8920898438,        0.7324218750,        0.2288818359
1489456882.4215149879,1489456882.4238040447,       -0.7338867188,        0.0615234375,        0.0444335938,       -1.5258789062,        0.5035400391,       -0.1373291016
1489456882.4240789413,1489456882.4263699055,       -0.7338867188,        0.0615234375,        0.0444335938,       -1.5258789062,        0.5035400391,       -0.1373291016
1489456882.4266450405,1489456882.4289500713,       -0.7338867188,        0.0615234375,        0.0444335938,       -1.5258789062,        0.6408691406,       -0.0152587891
1489456882.4292330742,1489456882.4317429066,       -0.7353515625,        0.0654296875,        0.0336914062,       -1.5869140625,        0.6408691406,       -0.0152587891
1489456882.4320189953,1489456882.4343130589,       -0.7353515625,        0.0654296875,        0.0336914062,       -1.5869140625,        0.8544921875,        0.0152587891
1489456882.4345879555,1489456882.4368829727,       -0.7353515625,        0.0654296875,        0.0336914062,       -1.6937255859,        0.8544921875,        0.0152587891
1489456882.4371550083,1489456882.4395658970,       -0.7353515625,        0.0654296875,        0.0336914062,       -1.6937255859,        0.8544921875,       -0.0152587891
1489456882.4398460388,1489456882.4422309399,       -0.7241210938,        0.0678710938,        0.0400390625,       -1.9531250000,        0.6408691406,       -0.0152587891
1489456882.4425120354,1489456882.4459860325,       -0.7241210938,        0.0678710938,        0.0400390625,       -1.9531250000,        0.6408691406,        0.0762939453
1489456882.4462618828,1489456882.4485480785,       -0.7241210938,        0.0678710938,        0.0400390625,       -1.5258789062,        0.5187988281,        0.0762939453
1489456882.4488830566,1489456882.4511680603,       -0.7207031250,        0.0708007812,        0.0249023438,       -1.8615722656,        0.1678466797,        0.0915527344
1489456882.4514410496,1489456882.4537250996,       -0.7207031250,        0.0708007812,        0.0249023438,       -1.8615722656,        0.1678466797,        0.0915527344
1489456882.4539999962,1489456882.4562819004,       -0.7207031250,        0.0708007812,        0.0249023438,       -1.8615722656,       -0.0152587891,       -0.0915527344
1489456882.4565570354,1489456882.4588830471,       -0.7207031250,        0.0708007812,        0.0249023438,       -2.4871826172,       -0.0152587891,       -0.0915527344
1489456882.4591569901,1489456882.4614429474,       -0.7089843750,        0.0673828125,        0.0151367188,       -2.4871826172,        3.8909912109,        0.2136230469
1489456882.4617159367,1489456882.4640009403,       -0.7089843750,        0.0673828125,        0.0151367188,       -2.6397705078,        0.0152587891,        0.2136230469
1489456882.4642748833,1489456882.4665648937,       -0.7089843750,        0.0673828125,        0.0151367188,       -2.6397705078,        0.0152587891,        0.0915527344
1489456882.4668369293,1489456882.4691340923,       -0.7089843750,        0.0673828125,        0.0151367188,       -3.5858154297,       -0.5340576172,        0.0915527344
1489456882.4694089890,1489456882.4716949463,       -0.7290039062,        0.0590820312,       -0.0019531250,       -3.5858154297,       -0.5340576172,       -3.8146972656
1489456882.4719688892,1489456882.4742588997,       -0.7290039062,        0.0590820312,       -0.0019531250,       -4.5166015625,       -1.7089843750,       -0.2136230469
1489456882.4745330811,1489456882.4768240452,       -0.7290039062,        0.0590820312,       -0.0019531250,       -4.5166015625,       -1.7089843750,       -0.2136230469
1489456882.4772059917,1489456882.4795050621,       -0.7290039062,        0.0590820312,       -0.0019531250,       -5.8441162109,       -2.0141601562,       -0.2288818359
1489456882.4797809124,1489456882.4820768833,       -0.7451171875,        0.0556640625,       -0.0063476562,       -5.8441162109,       -2.0141601562,       -0.2288818359
1489456882.4823529720,1489456882.4846379757,       -0.7451171875,        0.0556640625,       -0.0063476562,       -7.8887939453,       -2.2125244141,        0.1678466797
1489456882.4849131107,1489456882.4871969223,       -0.7451171875,        0.0556640625,       -0.0063476562,       -7.8887939453,       -2.2125244141,        0.1678466797
1489456882.4874711037,1489456882.4899299145,       -0.7451171875,        0.0556640625,       -0.0063476562,       -9.7656250000,       -2.0904541016,        0.5645751953
1489456882.4902060032,1489456882.4924960136,       -0.7573242188,        0.0488281250,        0.0117187500,       -9.7656250000,       -2.0904541016,        0.5645751953
1489456882.4927699566,1489456882.4950668812,       -0.7573242188,        0.0488281250,        0.0117187500,      -11.0015869141,       -1.9989013672,        0.2441406250
1489456882.4953470230,1489456882.4976389408,       -0.7573242188,        0.0488281250,        0.0117187500,      -11.0015869141,       -1.9989013672,        0.2441406250
1489456882.4979190826,1489456882.5003790855,       -0.7573242188,        0.0488281250,        0.0117187500,      -10.6658935547,       -1.3427734375,        0.7781982422
1489456882.5006649494,1489456882.5030860901,       -0.7500000000,        0.0590820312,        0.0283203125,      -10.6658935547,       -1.3427734375,        0.7781982422
1489456882.5033729076,1489456882.5057890415,       -0.7500000000,        0.0590820312,        0.0283203125,      -10.1318359375,       -0.9460449219,        0.8239746094
1489456882.5060749054,1489456882.5084919930,       -0.7500000000,        0.0590820312,        0.0283203125,      -10.1318359375,       -0.9460449219,        0.8239746094
1489456882.5087780952,1489456882.5112340450,       -0.7500000000,        0.0590820312,        0.0556640625,       -9.4757080078,       -0.6256103516,        0.5493164062
1489456882.5115160942,1489456882.5139338970,       -0.7387695312,        0.0727539062,        0.0556640625,       -9.4757080078,       -0.6256103516,        0.5493164062
1489456882.5142159462,1489456882.5166330338,       -0.7387695312,        0.0727539062,        0.0556640625,       -8.7280273438,       -0.5950927734,        0.6103515625
1489456882.5169160366,1489456882.5193269253,       -0.7387695312,        0.0727539062,        0.0556640625,       -8.7280273438,       -0.5950927734,        0.6103515625
1489456882.5196020603,1489456882.5218911171,       -0.7402343750,        0.0590820312,        0.0712890625,       -7.0495605469,       -0.7934570312,        0.3814697266
1489456882.5221650600,1489456882.5244560242,       -0.7402343750,        0.0590820312,        0.0712890625,       -7.0495605469,       -0.7934570312,        0.3814697266
1489456882.5247299671,1489456882.5270240307,       -0.7402343750,        0.0590820312,        0.0712890625,       -7.0495605469,       -0.5187988281,        0.0762939453
1489456882.5272989273,1489456882.5296781063,       -0.7402343750,        0.0590820312,        0.0712890625,       -5.2032470703,       -0.5187988281,        0.0762939453
1489456882.5299599171,1489456882.5323820114,       -0.7255859375,        0.0668945312,        0.0859375000,       -5.2032470703,        0.2441406250,       -0.2593994141
1489456882.5326631069,1489456882.5352270603,       -0.7255859375,        0.0668945312,        0.0859375000,       -4.1198730469,        0.2441406250,       -0.2593994141
1489456882.5355050564,1489456882.5377979279,       -0.7255859375,        0.0668945312,        0.0859375000,       -4.1198730469,        1.2207031250,       -0.7019042969
1489456882.5380721092,1489456882.5405941010,       -0.7255859375,        0.0668945312,        0.0859375000,       -1.7852783203,        1.2207031250,       -0.7019042969
1489456882.5409810543,1489456882.5433630943,       -0.7377929688,        0.1171875000,        0.0639648438,        2.1209716797,        1.6937255859,       -1.5563964844
1489456882.5436410904,1489456882.5461769104,       -0.7377929688,        0.1171875000,        0.0639648438,        1.5258789062,        1.6937255859,       -1.5563964844
1489456882.5464560986,1489456882.5487399101,       -0.7377929688,        0.1171875000,        0.0639648438,        5.4321289062,        2.3345947266,       -2.5024414062
1489456882.5490970612,1489456882.5513889790,       -0.7377929688,        0.1171875000,        0.0532226562,        5.3558349609,        2.3345947266,       -2.5024414062
1489456882.5516629219,1489456882.5539479256,       -0.7524414062,        0.1313476562,        0.0532226562,        5.3558349609,        2.3345947266,       -3.3874511719
1489456882.5542199612,1489456882.5565009117,       -0.7524414062,        0.1313476562,        0.0532226562,        9.3688964844,        2.3040771484,       -3.3874511719
1489456882.5567750931,1489456882.5590729713,       -0.7524414062,        0.1313476562,        0.0532226562,        9.3688964844,        2.3040771484,       -4.5318603516
1489456882.5593481064,1489456882.5616309643,       -0.7524414062,        0.0063476562,        0.0483398438,       12.2528076172,        2.3193359375,       -4.5318603516
1489456882.5619089603,1489456882.5641949177,       -0.7246093750,        0.1030273438,        0.0483398438,       12.2528076172,        2.3193359375,       -4.5318603516
1489456882.5644729137,1489456882.5667619705,       -0.7246093750,        0.1030273438,        0.0483398438,       14.3890380859,        2.5024414062,       -5.4931640625
1489456882.5670399666,1489456882.5693309307,       -0.7246093750,        0.1030273438,        0.0483398438,       14.3890380859,        2.5024414062,       -5.4931640625
1489456882.5696079731,1489456882.5719029903,       -0.7246093750,        0.0805664062,        0.0351562500,       15.5792236328,        2.3956298828,       -6.0577392578
1489456882.5721809864,1489456882.5744678974,       -0.7363281250,        0.0805664062,        0.0351562500,       15.5792236328,        2.3956298828,       -6.0577392578
1489456882.5747449398,1489456882.5770280361,       -0.7363281250,        0.0805664062,        0.0351562500,       16.6778564453,        2.9907226562,       -6.1645507812
1489456882.5773069859,1489456882.5796420574,       -0.7363281250,        0.0805664062,        0.0351562500,       16.6778564453,        2.9907226562,       -6.1645507812
1489456882.5799200535,1489456882.5822029114,       -0.7363281250,        0.0698242188,        0.0332031250,       15.8996582031,        2.9449462891,       -5.8441162109
1489456882.5824809074,1489456882.5847680569,       -0.7456054688,        0.0698242188,        0.0332031250,       15.8996582031,        2.9449462891,       -5.8441162109
1489456882.5850450993,1489456882.5873410702,       -0.7456054688,        0.0698242188,        0.0332031250,       14.3585205078,        3.1585693359,       -5.9204101562
1489456882.5876181126,1489456882.5899610519,       -0.7456054688,        0.0698242188,        0.0332031250,       14.3585205078,        3.1585693359,       -5.9204101562
1489456882.5902380943,1489456882.5925369263,       -0.7343750000,        0.0288085938,        0.0244140625,       12.7258300781,        2.8381347656,       -5.7678222656
1489456882.5928161144,1489456882.5951049328,       -0.7343750000,        0.0288085938,        0.0244140625,       12.7258300781,        2.8381347656,       -5.7678222656
1489456882.5953838825,1489456882.5976719856,       -0.7343750000,        0.0288085938,        0.0244140625,       12.7258300781,        2.7313232422,       -5.0354003906
1489456882.5979480743,1489456882.6004080772,       -0.7343750000,        0.0288085938,        0.0244140625,       10.9252929688,        2.7313232422,       -5.0354003906
1489456882.6006939411,1489456882.6031069756,       -0.7402343750,        0.0146484375,        0.0444335938,       10.9252929688,        3.1890869141,       -4.1351318359
1489456882.6035010815,1489456882.6059169769,       -0.7402343750,        0.0146484375,        0.0444335938,        9.7045898438,        3.1890869141,       -4.1351318359
1489456882.6061990261,1489456882.6086199284,       -0.7402343750,        0.0146484375,        0.0444335938,        9.7045898438,        3.5552978516,       -3.6773681641
1489456882.6089110374,1489456882.6113269329,       -0.7402343750,        0.0146484375,        0.0444335938,        9.0942382812,        3.5552978516,       -3.6773681641
1489456882.6116080284,1489456882.6140279770,       -0.7421875000,        0.0073242188,        0.0317382812,        9.0942382812,        3.6010742188,       -3.1280517578
1489456882.6143109798,1489456882.6167271137,       -0.7421875000,        0.0073242188,        0.0317382812,        8.8348388672,        3.6010742188,       -3.1280517578
1489456882.6170079708,1489456882.6194090843,       -0.7421875000,        0.0073242188,        0.0317382812,        8.8348388672,        2.9602050781,       -2.5939941406
1489456882.6196839809,1489456882.6219849586,       -0.7421875000,        0.0073242188,        0.0283203125,        7.3242187500,        2.9602050781,       -2.5939941406
1489456882.6222579479,1489456882.6245501041,       -0.7426757812,       -0.0092773438,        0.0283203125,        7.3242187500,        2.9602050781,       -1.7242431641
1489456882.6248230934,1489456882.6271150112,       -0.7426757812,       -0.0092773438,        0.0283203125,        5.7678222656,        3.1433105469,       -1.7242431641
1489456882.6273880005,1489456882.6297800541,       -0.7426757812,       -0.0092773438,        0.0283203125,        5.7678222656,        3.1433105469,       -0.4119873047
1489456882.6300640106,1489456882.6324779987,       -0.7426757812,        0.1157226562,        0.0395507812,        3.5095214844,        3.7841796875,       -0.4119873047
1489456882.6327600479,1489456882.6351780891,       -0.7402343750,        0.0039062500,        0.0395507812,        3.5095214844,        3.7841796875,        3.4942626953
1489456882.6354570389,1489456882.6378710270,       -0.7402343750,        0.0039062500,        0.0395507812,        1.3427734375,        4.1503906250,        0.7019042969
1489456882.6381518841,1489456882.6405699253,       -0.7402343750,        0.0039062500,        0.0395507812,        1.3427734375,        4.1503906250,        0.7019042969
1489456882.6408519745,1489456882.6432731152,       -0.7382812500,        0.0087890625,        0.0541992188,        0.8392333984,        4.1351318359,        1.1291503906
1489456882.6435530186,1489456882.6459639072,       -0.7382812500,        0.0087890625,        0.0541992188,        0.8392333984,        4.1351318359,        1.1291503906
1489456882.6462440491,1489456882.6486599445,       -0.7382812500,        0.0087890625,        0.0541992188,        0.1678466797,        4.4708251953,        1.3122558594
1489456882.6489500999,1489456882.6513769627,       -0.7382812500,        0.0087890625,        0.0541992188,        0.1678466797,        4.4708251953,        1.3122558594
1489456882.6516571045,1489456882.6540710926,       -0.7416992188,        0.0419921875,        0.0668945312,       -0.1373291016,        5.3710937500,        1.8005371094
1489456882.6543509960,1489456882.6569809914,       -0.7416992188,        0.0419921875,        0.0668945312,       -0.1373291016,        5.3710937500,        2.4108886719
1489456882.6572630405,1489456882.6600110531,       -0.7416992188,        0.0419921875,        0.0668945312,       -0.1525878906,        5.8441162109,        2.4108886719
1489456882.6602940559,1489456882.6627140045,       -0.7416992188,        0.0419921875,        0.0522460938,       -0.1525878906,        5.8441162109,        2.6855468750
1489456882.6629951000,1489456882.6654140949,       -0.7377929688,        0.0649414062,        0.0522460938,        0.7324218750,        5.8746337891,        2.6855468750
1489456882.6656939983,1489456882.6681120396,       -0.7377929688,        0.0649414062,        0.0522460938,        0.7324218750,        5.8746337891,        2.5634765625
1489456882.6685009003,1489456882.6708300114,       -0.7377929688,        0.0649414062,        0.0522460938,        1.5716552734,        5.9814453125,        2.5634765625
1489456882.6711039543,1489456882.6733970642,       -0.7368164062,        0.0634765625,        0.0605468750,        1.5716552734,        5.9814453125,        2.3040771484
1489456882.6736700535,1489456882.6759591103,       -0.7368164062,        0.0634765625,        0.0605468750,        1.9226074219,        6.2103271484,        2.3040771484
1489456882.6762309074,1489456882.6785259247,       -0.7368164062,        0.0634765625,        0.0605468750,        1.9226074219,        6.2103271484,        2.3040771484
1489456882.6788439751,1489456882.6812601089,       -0.7368164062,        0.0634765625,        0.0605468750,        2.6550292969,        6.8359375000,        2.2583007812
1489456882.6815390587,1489456882.6839609146,       -0.7363281250,        0.0693359375,        0.0537109375,        2.6550292969,        6.8359375000,        2.2583007812
1489456882.6842410564,1489456882.6866600513,       -0.7363281250,        0.0693359375,        0.0537109375,        3.5095214844,        7.1411132812,        2.0599365234
1489456882.6869399548,1489456882.6893289089,       -0.7363281250,        0.0693359375,        0.0537109375,        3.5095214844,        7.1411132812,        2.0599365234
1489456882.6896030903,1489456882.6919019222,       -0.7363281250,        0.0693359375,        0.0537109375,        4.2724609375,        7.1258544922,        2.1057128906
1489456882.6921739578,1489456882.6944649220,       -0.7412109375,        0.0688476562,        0.0317382812,        4.2724609375,        7.1258544922,        2.1057128906
1489456882.6947369576,1489456882.6970329285,       -0.7412109375,        0.0688476562,        0.0317382812,        4.7302246094,        7.1258544922,        2.2125244141
1489456882.6973059177,1489456882.6996440887,       -0.7412109375,        0.0688476562,        0.0317382812,        4.7302246094,        7.1258544922,        2.2125244141
1489456882.6999149323,1489456882.7022070885,       -0.7412109375,        0.0688476562,        0.0317382812,        4.4097900391,        7.4768066406,        1.9836425781
1489456882.7024779320,1489456882.7047760487,       -0.7358398438,        0.0668945312,        0.0312500000,        4.4097900391,        7.4768066406,        1.9836425781
1489456882.7050490379,1489456882.7073390484,       -0.7358398438,        0.0668945312,        0.0312500000,        4.0588378906,        7.5531005859,        2.1057128906
1489456882.7076110840,1489456882.7099499702,       -0.7358398438,        0.0668945312,        0.0312500000,        4.0588378906,        7.5531005859,        2.1057128906
1489456882.7102229595,1489456882.7125220299,       -0.7358398438,        0.0668945312,        0.0312500000,        3.7384033203,        7.6141357422,        1.8615722656
1489456882.7127950191,1489456882.7150878906,       -0.7348632812,        0.0683593750,        0.0195312500,        3.7384033203,        7.6141357422,        1.8615722656
1489456882.7153599262,1489456882.7176520824,       -0.7348632812,        0.0683593750,        0.0195312500,        3.1280517578,        7.8277587891,        1.9226074219
1489456882.7179250717,1489456882.7204189301,       -0.7348632812,        0.0683593750,        0.0195312500,        3.1280517578,        7.8277587891,        1.9226074219
1489456882.7207009792,1489456882.7231090069,       -0.7348632812,        0.0683593750,        0.0180664062,        3.1280517578,        8.2397460938,        1.6174316406
1489456882.7233901024,1489456882.7258090973,       -0.7407226562,        0.0629882812,        0.0180664062,        1.4190673828,        8.2397460938,        1.6174316406
1489456882.7260899544,1489456882.7285010815,       -0.7407226562,        0.0629882812,        0.0180664062,        1.4190673828,        8.7127685547,        1.8768310547
1489456882.7287809849,1489456882.7312409878,       -0.7407226562,        0.0629882812,        0.0180664062,        0.5493164062,        8.7127685547,        1.8768310547
1489456882.7316300869,1489456882.7340528965,       -0.7407226562,        0.0610351562,        0.0214843750,        0.1220703125,        9.0026855469,        2.3345947266
1489456882.7343358994,1489456882.7367470264,       -0.7407226562,        0.0610351562,        0.0214843750,        0.1220703125,        9.0026855469,        2.3345947266
1489456882.7370290756,1489456882.7395889759,       -0.7407226562,        0.0610351562,        0.0214843750,       -0.6866455078,        9.5062255859,        2.5482177734
1489456882.7398700714,1489456882.7422521114,       -0.7407226562,        0.0610351562,        0.0214843750,       -0.6866455078,        9.5062255859,        2.5482177734
1489456882.7425310612,1489456882.7451469898,       -0.7363281250,        0.0571289062,        0.0322265625,       -0.4730224609,        9.9487304688,        2.8076171875
1489456882.7454409599,1489456882.7477428913,       -0.7363281250,        0.0571289062,        0.0322265625,       -0.4730224609,        9.9487304688,        2.8076171875
1489456882.7480199337,1489456882.7503869534,       -0.7363281250,        0.0571289062,        0.0322265625,       -0.0305175781,        9.6740722656,        3.8299560547
1489456882.7506620884,1489456882.7529489994,       -0.7363281250,        0.0571289062,        0.0322265625,       -0.0305175781,        9.6740722656,        3.8299560547
1489456882.7532229424,1489456882.7555100918,       -0.7387695312,        0.0498046875,        0.0195312500,       -0.0305175781,        9.4604492188,        4.2114257812
1489456882.7557859421,1489456882.7580730915,       -0.7387695312,        0.0498046875,        0.0195312500,        0.5340576172,        9.4604492188,        4.2114257812
1489456882.7583479881,1489456882.7606439590,       -0.7387695312,        0.0498046875,        0.0195312500,        0.5340576172,        9.4604492188,        4.7912597656
1489456882.7609190941,1489456882.7632079124,       -0.7387695312,        0.0498046875,        0.0195312500,        1.4495849609,        9.4909667969,        4.7912597656
1489456882.7634799480,1489456882.7657649517,       -0.7363281250,        0.0463867188,        0.0224609375,        1.4495849609,        9.4909667969,        4.7912597656
1489456882.7660379410,1489456882.7683260441,       -0.7363281250,        0.0463867188,        0.0224609375,        2.2125244141,        9.8419189453,        5.6610107422
1489456882.7686009407,1489456882.7709369659,       -0.7363281250,        0.0463867188,        0.0224609375,        2.2125244141,        9.8419189453,        5.6610107422
1489456882.7712099552,1489456882.7734909058,       -0.7363281250,        0.0463867188,        0.0312500000,        2.7923583984,       10.0708007812,        6.7138671875
1489456882.7737700939,1489456882.7760610580,       -0.7416992188,        0.0336914062,        0.0312500000,        2.7923583984,       10.0708007812,        6.7138671875
1489456882.7763390541,1489456882.7786269188,       -0.7416992188,        0.0336914062,        0.0312500000,        3.0670166016,       10.0708007812,        7.4462890625
1489456882.7789030075,1489456882.7811989784,       -0.7416992188,        0.0336914062,        0.0312500000,        3.0670166016,       10.0708007812,        7.4462890625
1489456882.7814788818,1489456882.7837738991,       -0.7416992188,        0.0336914062,        0.0366210938,        2.7160644531,       10.0097656250,        8.1024169922
1489456882.7840518951,1489456882.7863481045,       -0.7416992188,        0.0249023438,        0.0366210938,        2.7160644531,       10.0097656250,        8.1024169922
1489456882.7866261005,1489456882.7889900208,       -0.7416992188,        0.0249023438,        0.0366210938,        2.9144287109,       10.2996826172,        9.1857910156
1489456882.7892689705,1489456882.7915620804,       -0.7416992188,        0.0249023438,        0.0366210938,        2.9144287109,       10.2996826172,        9.1857910156
1489456882.7918419838,1489456882.7941329479,       -0.7416992188,        0.0209960938,        0.0288085938,        2.5482177734,       10.8947753906,       10.4522705078
1489456882.7945239544,1489456882.7968199253,       -0.7480468750,        0.0209960938,        0.0288085938,        2.5482177734,       10.8947753906,       10.4522705078
1489456882.7971010208,1489456882.7995669842,       -0.7480468750,        0.0209960938,        0.0288085938,        2.5482177734,       10.9558105469,       11.9018554688
1489456882.7998569012,1489456882.8022739887,       -0.7480468750,        0.0209960938,        0.0288085938,        2.5482177734,       10.9558105469,       11.9018554688
1489456882.8025588989,1489456882.8049740791,       -0.7558593750,        0.0229492188,        0.0307617188,        2.7770996094,       11.1083984375,       13.4124755859
1489456882.8052620888,1489456882.8076760769,       -0.7558593750,        0.0229492188,        0.0307617188,        2.7770996094,       11.1083984375,       13.4124755859
1489456882.8079659939,1489456882.8103480339,       -0.7558593750,        0.0229492188,        0.0307617188,        1.8463134766,       11.5509033203,       14.5263671875
1489456882.8106300831,1489456882.8129179478,       -0.7558593750,        0.0229492188,        0.0307617188,        1.8463134766,       11.5509033203,       14.5263671875
1489456882.8131968975,1489456882.8154890537,       -0.7451171875,        0.0136718750,        0.0371093750,        1.8463134766,       12.1612548828,       15.9759521484
1489456882.8157680035,1489456882.8180620670,       -0.7451171875,        0.0136718750,        0.0371093750,        1.4343261719,       12.1612548828,       15.9759521484
1489456882.8183410168,1489456882.8207850456,       -0.7451171875,        0.0136718750,        0.0371093750,        1.4343261719,       12.1459960938,       17.9443359375
1489456882.8210730553,1489456882.8234870434,       -0.7451171875,        0.0136718750,        0.0371093750,        1.8615722656,       12.1459960938,       17.9443359375
1489456882.8237750530,1489456882.8261909485,       -0.7451171875,        0.0185546875,        0.0195312500,        1.8615722656,       12.1459960938,       19.7296142578
1489456882.8264820576,1489456882.8289101124,       -0.7451171875,        0.0185546875,        0.0195312500,        1.6326904297,       12.2375488281,       19.7296142578
1489456882.8291978836,1489456882.8316199780,       -0.7451171875,        0.0185546875,        0.0195312500,        1.6326904297,       12.2375488281,       21.1181640625
1489456882.8319089413,1489456882.8343260288,       -0.7451171875,        0.0185546875,        0.0244140625,        1.4801025391,       12.4359130859,       21.1181640625
1489456882.8346130848,1489456882.8370280266,       -0.7485351562,        0.0136718750,        0.0244140625,        1.4801025391,       12.4359130859,       22.8881835938
1489456882.8373160362,1489456882.8397428989,       -0.7485351562,        0.0136718750,        0.0244140625,        1.1291503906,       12.1002197266,       22.8881835938
1489456882.8400340080,1489456882.8424448967,       -0.7485351562,        0.0136718750,        0.0244140625,        1.1291503906,       12.1002197266,       24.5819091797
1489456882.8427329063,1489456882.8451480865,       -0.7514648438,        0.0043945312,        0.0209960938,        1.2512207031,       12.8784179688,       24.5819091797
1489456882.8454360962,1489456882.8478519917,       -0.7514648438,        0.0043945312,        0.0209960938,        1.2512207031,       12.8784179688,       26.7639160156
1489456882.8481390476,1489456882.8505680561,       -0.7514648438,        0.0043945312,        0.0209960938,        1.6479492188,       13.1072998047,       26.7639160156
1489456882.8508579731,1489456882.8532669544,       -0.7514648438,        0.0043945312,        0.0209960938,        1.6479492188,       13.1072998047,       29.4189453125
1489456882.8535559177,1489456882.8560481071,       -0.7583007812,        0.0126953125,        0.0097656250,        1.4190673828,       13.1378173828,       29.4189453125
1489456882.8563399315,1489456882.8587439060,       -0.7583007812,        0.0126953125,        0.0097656250,        1.4190673828,       13.1378173828,       31.8450927734
1489456882.8595960140,1489456882.8618900776,       -0.7583007812,        0.0126953125,        0.0097656250,        0.7324218750,       13.3361816406,       31.8450927734
1489456882.8621759415,1489456882.8644640446,       -0.7583007812,        0.0126953125,        0.0039062500,        0.7324218750,       13.1225585938,       34.9121093750
1489456882.8647470474,1489456882.8670380116,       -0.7700195312,        0.0092773438,        0.0039062500,        1.3580322266,       13.1225585938,       34.9121093750
1489456882.8673219681,1489456882.8696880341,       -0.7700195312,        0.0092773438,        0.0039062500,        1.3580322266,       13.1225585938,       37.7349853516
1489456882.8699810505,1489456882.8723909855,       -0.7700195312,        0.0092773438,        0.0039062500,        2.0294189453,       13.0767822266,       37.7349853516
1489456882.8726809025,1489456882.8750970364,       -0.7700195312,        0.0029296875,        0.0019531250,        2.0294189453,       13.0767822266,       40.2526855469
1489456882.8753850460,1489456882.8777990341,       -0.7768554688,        0.0029296875,        0.0019531250,        1.9683837891,       13.1530761719,       40.2526855469
1489456882.8780889511,1489456882.8805170059,       -0.7768554688,        0.0029296875,        0.0019531250,        1.9683837891,       13.1530761719,       43.3807373047
1489456882.8808059692,1489456882.8832230568,       -0.7768554688,        0.0029296875,        0.0019531250,        2.4261474609,       13.1378173828,       43.3807373047
1489456882.8835101128,1489456882.8859241009,       -0.7690429688,       -0.0166015625,       -0.0019531250,        2.4261474609,       13.1378173828,       46.7071533203
1489456882.8862130642,1489456882.8886320591,       -0.7690429688,       -0.0166015625,       -0.0019531250,        2.0141601562,       13.2598876953,       46.7071533203
1489456882.8889288902,1489456882.8912210464,       -0.7690429688,       -0.0166015625,       -0.0019531250,        2.0141601562,       13.2598876953,       50.6286621094
1489456882.8915019035,1489456882.8937950134,       -0.7690429688,       -0.0166015625,       -0.0019531250,        2.1209716797,       13.2598876953,       50.6286621094
1489456882.8940770626,1489456882.8963708878,       -0.7612304688,       -0.0200195312,       -0.0043945312,        2.1209716797,       13.2598876953,       54.5349121094
1489456882.8966538906,1489456882.8989500999,       -0.7612304688,       -0.0200195312,       -0.0043945312,        2.1972656250,       13.3514404297,       54.4281005859
1489456882.8992331028,1489456882.9015250206,       -0.7612304688,       -0.0200195312,       -0.0043945312,        2.1972656250,       13.3514404297,       54.4281005859
1489456882.9018061161,1489456882.9040989876,       -0.7612304688,       -0.0200195312,       -0.0043945312,        1.5716552734,       12.7868652344,       58.2122802734
1489456882.9043800831,1489456882.9066760540,       -0.7792968750,       -0.0195312500,        0.0083007812,        1.5716552734,       12.7868652344,       58.2122802734
1489456882.9069581032,1489456882.9093720913,       -0.7792968750,       -0.0195312500,        0.0083007812,        0.7324218750,       12.3901367188,       61.5997314453
1489456882.9096570015,1489456882.9119510651,       -0.7792968750,       -0.0195312500,        0.0083007812,        0.7324218750,       12.3901367188,       61.5997314453
1489456882.9122350216,1489456882.9145219326,       -0.7792968750,       -0.0195312500,        0.0083007812,        0.5035400391,       12.7410888672,       65.9942626953
1489456882.9148030281,1489456882.9170939922,       -0.7939453125,       -0.0302734375,        0.0058593750,        0.5035400391,       12.7410888672,       65.9942626953
1489456882.9173789024,1489456882.9198050499,       -0.7939453125,       -0.0302734375,        0.0058593750,       -0.3509521484,       13.0462646484,       70.7550048828
1489456882.9200980663,1489456882.9225161076,       -0.7939453125,       -0.0302734375,        0.0058593750,       -0.3509521484,       13.0462646484,       70.7550048828
1489456882.9229159355,1489456882.9253339767,       -0.7939453125,       -0.0302734375,        0.0268554688,       -1.3732910156,       12.8936767578,       74.7528076172
1489456882.9256219864,1489456882.9280369282,       -0.8041992188,       -0.0351562500,        0.0268554688,       -1.3732910156,       12.8936767578,       74.7528076172
1489456882.9283258915,1489456882.9307520390,       -0.8041992188,       -0.0351562500,        0.0268554688,       -3.4790039062,       12.3138427734,       78.8574218750
1489456882.9310419559,1489456882.9334580898,       -0.8041992188,       -0.0351562500,        0.0268554688,       -3.4790039062,       12.3138427734,       78.8574218750
1489456882.9337480068,1489456882.9361588955,       -0.8291015625,       -0.0458984375,        0.0385742188,       -5.2795410156,       11.2609863281,       83.3129882812
1489456882.9364469051,1489456882.9388759136,       -0.8291015625,       -0.0458984375,        0.0385742188,       -5.2795410156,       11.2609863281,       83.3129882812
1489456882.9391660690,1489456882.9415829182,       -0.8291015625,       -0.0458984375,        0.0385742188,       -7.1868896484,       10.0860595703,       87.8143310547
1489456882.9418718815,1489456882.9443340302,       -0.8291015625,       -0.0458984375,        0.0385742188,       -7.1868896484,       10.0860595703,       87.8143310547
1489456882.9446179867,1489456882.9469060898,       -0.8569335938,       -0.0244140625,        0.0600585938,       -9.6893310547,        8.6212158203,       92.0104980469
1489456882.9471859932,1489456882.9495720863,       -0.8569335938,       -0.0244140625,        0.0600585938,       -9.6893310547,        8.6212158203,       92.0104980469
1489456882.9498519897,1489456882.9521520138,       -0.8569335938,       -0.0244140625,        0.0600585938,      -11.5966796875,        6.7596435547,       96.4813232422
1489456882.9524331093,1489456882.9552869797,       -0.8569335938,       -0.0244140625,        0.0600585938,      -11.5966796875,        6.7596435547,       96.4813232422
1489456882.9555718899,1489456882.9578659534,       -0.9082031250,        0.0322265625,        0.0791015625,      -11.2304687500,        5.1574707031,       99.9145507812
1489456882.9581499100,1489456882.9605369568,       -0.9082031250,        0.0322265625,        0.0791015625,      -11.2304687500,        5.1574707031,       99.9145507812
1489456882.9608209133,1489456882.9631080627,       -0.9082031250,        0.0322265625,        0.0791015625,       -8.7127685547,        3.4179687500,      103.0120849609
1489456882.9633870125,1489456882.9656829834,       -0.9082031250,        0.1572265625,        0.1313476562,       -8.7127685547,        3.4179687500,      103.0120849609
1489456882.9659609795,1489456882.9682450294,       -0.9799804688,        0.1342773438,        0.1313476562,       -6.3018798828,        1.8005371094,      106.3995361328
1489456882.9685211182,1489456882.9708220959,       -0.9799804688,        0.1342773438,        0.1313476562,       -6.3018798828,        1.8005371094,      106.3995361328
1489456882.9710988998,1489456882.9733910561,       -0.9799804688,        0.1342773438,        0.1313476562,       -2.3956298828,        1.2359619141,      108.5815429688
1489456882.9736680984,1489456882.9759569168,       -0.9799804688,        0.1420898438,        0.2446289062,       -2.4566650391,        1.2359619141,      108.5815429688
1489456882.9762330055,1489456882.9785289764,       -1.0834960938,        0.1420898438,        0.2446289062,       -2.4566650391,        1.2359619141,      108.3831787109
1489456882.9788401127,1489456882.9811339378,       -1.0834960938,        0.1420898438,        0.2446289062,        8.3770751953,        2.3345947266,      108.3831787109
1489456882.9814109802,1489456882.9836978912,       -1.0834960938,        0.1420898438,        0.2446289062,        8.3770751953,        2.3345947266,      108.5662841797
1489456882.9839739799,1489456882.9862639904,       -1.2084960938,        0.0449218750,        0.2363281250,       20.6756591797,        3.6010742188,      108.5662841797
1489456882.9866590500,1489456882.9889459610,       -1.1313476562,        0.0449218750,        0.2363281250,       20.6756591797,        3.6010742188,      108.5662841797
1489456882.9892289639,1489456882.9915189743,       -1.1313476562,        0.0449218750,        0.2363281250,       27.2979736328,        4.1961669922,      109.1613769531
1489456882.9918000698,1489456882.9940950871,       -1.1313476562,        0.0449218750,        0.2363281250,       27.2979736328,        4.1961669922,      109.1613769531
1489456882.9943759441,1489456882.9966640472,       -1.0615234375,       -0.0917968750,        0.1953125000,       28.9916992188,        3.1433105469,      108.7799072266
1489456882.9969460964,1489456882.9993810654,       -1.0615234375,       -0.0917968750,        0.1953125000,       28.9916992188,        3.1433105469,      108.7799072266
1489456882.9996631145,1489456883.0019590855,       -1.0615234375,       -0.0917968750,        0.1953125000,       24.7192382812,        1.3275146484,      107.1624755859
1489456883.0022389889,1489456883.0045349598,       -1.0615234375,       -0.0917968750,        0.1953125000,       24.7192382812,        1.3275146484,      107.1624755859
1489456883.0048151016,1489456883.0071139336,       -0.9287109375,       -0.2758789062,        0.1718750000,       14.7247314453,       -0.6256103516,      104.0954589844
1489456883.0073950291,1489456883.0098409653,       -0.9287109375,       -0.2758789062,        0.1718750000,       14.7247314453,       -0.6256103516,      104.0954589844
1489456883.0101249218,1489456883.0124180317,       -0.9287109375,       -0.2758789062,        0.1718750000,        4.3334960938,       -3.9978027344,       98.4954833984
1489456883.0126960278,1489456883.0149939060,       -0.9287109375,       -0.2758789062,        0.1718750000,        4.3334960938,       -3.9978027344,       98.4954833984
1489456883.0152730942,1489456883.0175640583,       -0.7929687500,       -0.2246093750,        0.1289062500,       -2.2735595703,       -6.7596435547,       91.1560058594
1489456883.0178430080,1489456883.0202639103,       -0.7929687500,       -0.2246093750,        0.1289062500,       -2.2735595703,       -6.7596435547,       91.1560058594
1489456883.0205490589,1489456883.0229649544,       -0.7929687500,       -0.2246093750,        0.1289062500,       -4.5013427734,       -7.4462890625,       83.5723876953
1489456883.0232510567,1489456883.0256650448,       -0.7929687500,       -0.2246093750,        0.1289062500,       -4.5013427734,       -7.4462890625,       83.5723876953
1489456883.0259521008,1489456883.0283710957,       -0.7929687500,       -0.2143554688,        0.1152343750,       -6.2255859375,       -8.9263916016,       76.7364501953
1489456883.0286579132,1489456883.0310869217,       -0.7929687500,       -0.2143554688,        0.1152343750,       -6.2255859375,       -8.9263916016,       76.7364501953
1489456883.0313739777,1489456883.0337951183,       -0.7929687500,       -0.2143554688,        0.1152343750,      -12.1612548828,      -11.2915039062,       68.3746337891
1489456883.0340878963,1489456883.0365080833,       -0.7929687500,       -0.4643554688,        0.1054687500,      -12.1612548828,      -11.2915039062,       68.3746337891
1489456883.0367999077,1489456883.0392329693,       -0.7446289062,       -0.4550781250,        0.1054687500,      -20.6604003906,      -14.2364501953,       59.2193603516
1489456883.0395250320,1489456883.0419418812,       -0.7446289062,       -0.4550781250,        0.1054687500,      -20.6604003906,      -14.2364501953,       59.2193603516
1489456883.0422339439,1489456883.0446500778,       -0.7446289062,       -0.4550781250,        0.1054687500,      -31.2042236328,      -16.9525146484,       50.8270263672
1489456883.0450980663,1489456883.0473959446,       -0.6967773438,       -0.4995117188,        0.0473632812,      -31.2042236328,      -16.9525146484,       50.8270263672
1489456883.0476810932,1489456883.0502119064,       -0.6967773438,       -0.4995117188,        0.0473632812,      -40.8935546875,      -18.1579589844,       43.0908203125
1489456883.0506110191,1489456883.0529909134,       -0.6967773438,       -0.4995117188,        0.0473632812,      -40.8935546875,      -18.1579589844,       43.0908203125
1489456883.0532801151,1489456883.0561819077,       -0.6967773438,       -0.4995117188,        0.0473632812,      -49.2248535156,      -19.5312500000,       34.1949462891
1489456883.0564680099,1489456883.0587549210,       -0.6372070312,       -0.4238281250,        0.0063476562,      -49.2248535156,      -19.5312500000,       34.1949462891
1489456883.0591259003,1489456883.0614159107,       -0.6372070312,       -0.4238281250,        0.0063476562,      -55.8166503906,      -20.8740234375,       24.2462158203
1489456883.0617020130,1489456883.0639939308,       -0.6372070312,       -0.4238281250,        0.0063476562,      -55.8166503906,      -20.8740234375,       24.2462158203
1489456883.0642809868,1489456883.0665678978,       -0.6372070312,       -0.4238281250,        0.0039062500,      -59.5703125000,      -21.6522216797,       12.4359130859
1489456883.0668520927,1489456883.0691499710,       -0.6005859375,       -0.4174804688,        0.0039062500,      -59.5703125000,      -21.6522216797,       12.4359130859
1489456883.0694360733,1489456883.0717248917,       -0.6005859375,       -0.4174804688,        0.0039062500,      -63.5070800781,      -22.5067138672,       -0.3051757812
1489456883.0720078945,1489456883.0742990971,       -0.6005859375,       -0.4174804688,        0.0039062500,      -63.5070800781,      -22.5067138672,       -0.3051757812
1489456883.0745820999,1489456883.0768699646,       -0.6005859375,       -0.4516601562,        0.0136718750,      -67.2454833984,      -22.9187011719,      -13.1988525391
1489456883.0771529675,1489456883.0795400143,       -0.5708007812,       -0.4516601562,        0.0136718750,      -67.2454833984,      -22.9187011719,      -13.1988525391
1489456883.0798249245,1489456883.0821120739,       -0.5708007812,       -0.4516601562,        0.0136718750,      -67.2454833984,      -21.8811035156,      -26.2145996094
1489456883.0823969841,1489456883.0846869946,       -0.5708007812,       -0.4516601562,        0.0136718750,      -70.7550048828,      -21.8811035156,      -26.2145996094
1489456883.0849750042,1489456883.0872600079,       -0.5708007812,       -0.4794921875,        0.0068359375,      -70.7550048828,      -21.8811035156,      -38.5284423828
1489456883.0875470638,1489456883.0898358822,       -0.5805664062,       -0.4794921875,        0.0068359375,      -74.4171142578,      -20.6146240234,      -38.5284423828
1489456883.0901219845,1489456883.0924088955,       -0.5805664062,       -0.4794921875,        0.0068359375,      -74.4171142578,      -20.6146240234,      -50.5828857422
1489456883.0926930904,1489456883.0949759483,       -0.5805664062,       -0.4794921875,        0.0068359375,      -79.0557861328,      -18.9208984375,      -50.5828857422
1489456883.0952610970,1489456883.0975539684,       -0.6025390625,       -0.4453125000,        0.0092773438,      -79.0557861328,      -18.9208984375,      -50.5828857422
1489456883.0978379250,1489456883.1003038883,       -0.6025390625,       -0.4453125000,        0.0092773438,      -82.5042724609,      -17.6086425781,      -62.3779296875
1489456883.1005899906,1489456883.1028869152,       -0.6025390625,       -0.4453125000,        0.0092773438,      -82.5042724609,      -17.6086425781,      -62.3779296875
1489456883.1031730175,1489456883.1054689884,       -0.6025390625,       -0.4453125000,        0.0092773438,      -84.1674804688,      -17.0745849609,      -73.6236572266
1489456883.1057550907,1489456883.1080520153,       -0.6264648438,       -0.3339843750,        0.0058593750,      -84.1674804688,      -17.0745849609,      -73.6236572266
1489456883.1083369255,1489456883.1107459068,       -0.6264648438,       -0.3339843750,        0.0058593750,      -82.9162597656,      -16.0980224609,      -83.4808349609
1489456883.1110351086,1489456883.1133260727,       -0.6264648438,       -0.3339843750,        0.0058593750,      -82.9162597656,      -16.0980224609,      -83.4808349609
1489456883.1137120724,1489456883.1160089970,       -0.6264648438,       -0.3339843750,        0.0058593750,      -77.7435302734,      -13.9160156250,      -92.4835205078
1489456883.1162950993,1489456883.1185870171,       -0.6499023438,       -0.1845703125,        0.0122070312,      -77.7435302734,      -13.9160156250,      -92.4835205078
1489456883.1188619137,1489456883.1212759018,       -0.6499023438,       -0.1845703125,        0.0122070312,      -69.0002441406,      -10.1928710938,     -101.6387939453
1489456883.1215689182,1489456883.1239869595,       -0.6499023438,       -0.1845703125,        0.0122070312,      -69.0002441406,      -10.1928710938,     -101.6387939453
1489456883.1242799759,1489456883.1266961098,       -0.6499023438,       -0.1845703125,        0.0122070312,      -58.8836669922,       -5.6915283203,     -110.0921630859
1489456883.1269860268,1489456883.1294419765,       -0.7207031250,       -0.1684570312,        0.0283203125,      -58.8836669922,       -5.6915283203,     -110.0921630859
1489456883.1297318935,1489456883.1321439743,       -0.7207031250,       -0.1684570312,        0.0283203125,      -49.4079589844,       -2.6092529297,     -117.2637939453
1489456883.1324319839,1489456883.1348481178,       -0.7207031250,       -0.1684570312,        0.0283203125,      -49.4079589844,       -2.6092529297,     -117.2637939453
1489456883.1351370811,1489456883.1375510693,       -0.7207031250,       -0.1684570312,        0.0283203125,      -43.1365966797,       -1.0223388672,     -123.7030029297
1489456883.1378409863,1489456883.1402668953,       -0.7641601562,       -0.1450195312,        0.0283203125,      -43.1365966797,       -1.0223388672,     -123.7030029297
1489456883.1405570507,1489456883.1429719925,       -0.7641601562,       -0.1450195312,        0.0283203125,      -38.8793945312,       -0.4577636719,     -129.2266845703
1489456883.1432619095,1489456883.1456780434,       -0.7641601562,       -0.1450195312,        0.0283203125,      -38.8793945312,       -0.4577636719,     -129.2266845703
1489456883.1459679604,1489456883.1483829021,       -0.8037109375,       -0.1069335938,        0.0415039062,      -34.5001220703,        0.7171630859,     -133.9721679688
1489456883.1486749649,1489456883.1509859562,       -0.8037109375,       -0.1069335938,        0.0415039062,      -34.5001220703,        0.7171630859,     -133.9721679688
1489456883.1512680054,1489456883.1535589695,       -0.8037109375,       -0.1069335938,        0.0415039062,      -30.1361083984,        2.3498535156,     -138.9312744141
1489456883.1538410187,1489456883.1561400890,       -0.8037109375,       -0.1069335938,        0.0415039062,      -30.1361083984,        2.3498535156,     -138.9312744141
1489456883.1564240456,1489456883.1587119102,       -0.8320312500,       -0.0727539062,        0.0468750000,      -26.1688232422,        4.3029785156,     -143.4783935547
1489456883.1590418816,1489456883.1613290310,       -0.8320312500,       -0.0727539062,        0.0468750000,      -26.1688232422,        4.3029785156,     -143.4783935547
1489456883.1616110802,1489456883.1639010906,       -0.8320312500,       -0.0727539062,        0.0468750000,      -22.2625732422,        5.3863525391,     -147.1557617188
1489456883.1641840935,1489456883.1666491032,       -0.8320312500,       -0.0727539062,        0.0468750000,      -23.2849121094,        5.3863525391,     -147.1557617188
1489456883.1669330597,1489456883.1695160866,       -0.8403320312,       -0.0639648438,        0.0458984375,      -23.2849121094,        5.7983398438,     -150.1922607422
1489456883.1698079109,1489456883.1722199917,       -0.8403320312,       -0.0639648438,        0.0458984375,      -21.5911865234,        5.7983398438,     -150.1922607422
1489456883.1725099087,1489456883.1749188900,       -0.8403320312,       -0.0639648438,        0.0458984375,      -22.0184326172,        4.8675537109,     -153.0761718750
1489456883.1752080917,1489456883.1776249409,       -0.8403320312,       -0.0639648438,        0.0468750000,      -22.0184326172,        4.8675537109,     -153.0761718750
1489456883.1779150963,1489456883.1803441048,       -0.8544921875,       -0.0644531250,        0.0468750000,      -25.9246826172,        3.7689208984,     -154.8309326172
1489456883.1807401180,1489456883.1831569672,       -0.8544921875,       -0.0644531250,        0.0468750000,      -24.2309570312,        3.7689208984,     -154.8309326172
1489456883.1834468842,1489456883.1858680248,       -0.8544921875,       -0.0644531250,        0.0468750000,      -27.0538330078,        2.7923583984,     -156.8756103516
1489456883.1861579418,1489456883.1885719299,       -0.8740234375,       -0.0434570312,        0.0366210938,      -27.0538330078,        2.7923583984,     -156.8756103516
1489456883.1888699532,1489456883.1912910938,       -0.8740234375,       -0.0434570312,        0.0366210938,      -30.8990478516,        1.5869140625,     -157.6232910156
1489456883.1915819645,1489456883.1939980984,       -0.8740234375,       -0.0434570312,        0.0366210938,      -30.8990478516,        1.5869140625,     -157.6232910156
1489456883.1942870617,1489456883.1967248917,       -0.8740234375,       -0.0434570312,        0.0366210938,      -35.0036621094,        0.7629394531,     -158.1420898438
1489456883.1970140934,1489456883.1994159222,       -0.8916015625,       -0.0312500000,        0.0341796875,      -35.0036621094,        0.7629394531,     -158.1420898438
1489456883.1997001171,1489456883.2019910812,       -0.8916015625,       -0.0312500000,        0.0341796875,      -38.9099121094,        0.1068115234,     -158.1115722656
1489456883.2022750378,1489456883.2045669556,       -0.8916015625,       -0.0312500000,        0.0341796875,      -38.4063720703,        0.1068115234,     -158.1115722656
1489456883.2048490047,1489456883.2071430683,       -0.8916015625,       -0.0312500000,        0.0341796875,      -38.4063720703,       -3.7994384766,     -158.4320068359
1489456883.2074239254,1489456883.2097249031,       -0.9086914062,       -0.0302734375,        0.0434570312,      -41.5496826172,       -1.0375976562,     -158.4320068359
1489456883.2100079060,1489456883.2123000622,       -0.9086914062,       -0.0302734375,        0.0434570312,      -41.5496826172,       -1.0375976562,     -158.8439941406
1489456883.2125830650,1489456883.2148759365,       -0.9086914062,       -0.0302734375,        0.0434570312,      -44.9218750000,       -1.6326904297,     -158.8439941406
1489456883.2151570320,1489456883.2174510956,       -0.9086914062,       -0.0302734375,        0.0434570312,      -44.9218750000,       -1.6326904297,     -158.8439941406
1489456883.2177329063,1489456883.2201669216,       -0.9091796875,       -0.0166015625,        0.0527343750,      -47.6074218750,       -1.8920898438,     -158.7677001953
1489456883.2204489708,1489456883.2227420807,       -0.9091796875,       -0.0166015625,        0.0527343750,      -47.6074218750,       -1.8920898438,     -158.7677001953
1489456883.2230250835,1489456883.2253201008,       -0.9091796875,       -0.0166015625,        0.0527343750,      -49.7741699219,       -2.2125244141,     -158.8897705078
1489456883.2256019115,1489456883.2278931141,       -0.9091796875,       -0.0166015625,        0.0527343750,      -49.7741699219,       -2.2125244141,     -158.8897705078
1489456883.2281749249,1489456883.2306520939,       -0.9116210938,        0.0083007812,        0.0551757812,      -50.9338378906,       -1.7242431641,     -157.9589843750
1489456883.2309429646,1489456883.2333600521,       -0.9116210938,        0.0083007812,        0.0551757812,      -50.9338378906,       -1.7242431641,     -157.9589843750
1489456883.2336499691,1489456883.2360620499,       -0.9116210938,        0.0083007812,        0.0551757812,      -51.7578125000,       -1.2359619141,     -156.8756103516
1489456883.2363541126,1489456883.2387659550,       -0.9116210938,        0.0507812500,        0.0502929688,      -51.7578125000,       -1.2359619141,     -156.8756103516
1489456883.2391049862,1489456883.2415230274,       -0.9160156250,        0.0507812500,        0.0502929688,      -53.0090332031,       -0.5645751953,     -154.8614501953
1489456883.2418138981,1489456883.2442269325,       -0.9160156250,        0.0507812500,        0.0502929688,      -53.0090332031,       -0.5645751953,     -154.8614501953
1489456883.2446260452,1489456883.2470428944,       -0.9160156250,        0.0507812500,        0.0502929688,      -54.0008544922,        0.1831054688,     -152.0233154297
1489456883.2473340034,1489456883.2497520447,       -0.9233398438,        0.0874023438,        0.0576171875,      -54.0008544922,        0.1831054688,     -152.0233154297
1489456883.2500450611,1489456883.2524619102,       -0.9233398438,        0.0874023438,        0.0576171875,      -53.4973144531,        1.0223388672,     -148.7579345703
1489456883.2527499199,1489456883.2551689148,       -0.9233398438,        0.0874023438,        0.0576171875,      -53.4973144531,        1.0223388672,     -148.7579345703
1489456883.2554581165,1489456883.2578730583,       -0.9233398438,        0.0874023438,        0.0576171875,      -52.5512695312,        1.4495849609,     -145.5688476562
1489456883.2581620216,1489456883.2604889870,       -0.8930664062,        0.1171875000,        0.0522460938,      -52.5512695312,        1.4495849609,     -145.5688476562
1489456883.2607719898,1489456883.2630620003,       -0.8930664062,        0.1171875000,        0.0522460938,      -52.0324707031,        1.7242431641,     -141.5557861328
1489456883.2633450031,1489456883.2656390667,       -0.8930664062,        0.1171875000,        0.0522460938,      -52.0324707031,        1.7242431641,     -141.5557861328
1489456883.2659211159,1489456883.2682089806,       -0.8930664062,        0.1171875000,        0.0522460938,      -51.3916015625,        2.3345947266,     -137.9241943359
1489456883.2684929371,1489456883.2708539963,       -0.8823242188,        0.1044921875,        0.0659179688,      -51.3916015625,        2.3345947266,     -137.9241943359
1489456883.2711400986,1489456883.2734289169,       -0.8823242188,        0.1044921875,        0.0659179688,      -49.4689941406,        2.9907226562,     -134.6740722656
1489456883.2737109661,1489456883.2760059834,       -0.8823242188,        0.1044921875,        0.0659179688,      -49.4689941406,        2.9907226562,     -134.6740722656
1489456883.2762889862,1489456883.2785770893,       -0.8823242188,        0.1044921875,        0.0561523438,      -47.8820800781,        3.1433105469,     -131.3476562500
1489456883.2789900303,1489456883.2813770771,       -0.8671875000,        0.0844726562,        0.0561523438,      -47.8820800781,        3.1433105469,     -131.3476562500
1489456883.2816650867,1489456883.2840490341,       -0.8671875000,        0.0844726562,        0.0561523438,      -47.7142333984,        2.8228759766,     -127.7313232422
1489456883.2843511105,1489456883.2867910862,       -0.8671875000,        0.0844726562,        0.0561523438,      -47.7142333984,        2.8228759766,     -127.7313232422
1489456883.2870810032,1489456883.2895159721,       -0.8671875000,        0.0805664062,        0.0644531250,      -46.8902587891,        3.3264160156,     -124.4201660156
1489456883.2898070812,1489456883.2922220230,       -0.8466796875,        0.0805664062,        0.0644531250,      -46.8902587891,        3.3264160156,     -124.4201660156
1489456883.2925100327,1489456883.2949290276,       -0.8466796875,        0.0805664062,        0.0644531250,      -46.1120605469,        3.2653808594,     -120.9259033203
1489456883.2952170372,1489456883.2976369858,       -0.8466796875,        0.0805664062,        0.0644531250,      -46.1120605469,        3.2653808594,     -120.9259033203
1489456883.2979259491,1489456883.3003480434,       -0.8291015625,        0.1079101562,        0.0566406250,      -45.1354980469,        3.2806396484,     -117.0654296875
1489456883.3006389141,1489456883.3030550480,       -0.8291015625,        0.1079101562,        0.0566406250,      -45.1354980469,        3.2806396484,     -117.0654296875
1489456883.3033471107,1489456883.3057639599,       -0.8291015625,        0.1079101562,        0.0566406250,      -44.4793701172,        2.9144287109,     -112.6861572266
1489456883.3060541153,1489456883.3084659576,       -0.8291015625,        0.1079101562,        0.0566406250,      -44.4793701172,        2.9144287109,     -112.6861572266
1489456883.3088710308,1489456883.3112969398,       -0.7871093750,        0.1372070312,        0.0429687500,      -44.4335937500,        2.3193359375,     -107.8186035156
1489456883.3115859032,1489456883.3140029907,       -0.7871093750,        0.1372070312,        0.0429687500,      -44.4335937500,        2.3193359375,     -107.8186035156
1489456883.3142919540,1489456883.3167490959,       -0.7871093750,        0.1372070312,        0.0429687500,      -44.0368652344,        2.1972656250,     -102.9357910156
1489456883.3170399666,1489456883.3194348812,       -0.7871093750,        0.1494140625,        0.0380859375,      -44.0368652344,        2.1972656250,     -102.9357910156
1489456883.3201010227,1489456883.3223938942,       -0.7553710938,        0.1494140625,        0.0380859375,      -44.1894531250,        2.0141601562,      -98.1597900391
1489456883.3226780891,1489456883.3249709606,       -0.7553710938,        0.1494140625,        0.0380859375,      -44.1894531250,        2.0141601562,      -98.1597900391
1489456883.3252561092,1489456883.3275470734,       -0.7553710938,        0.1494140625,        0.0380859375,      -44.9523925781,        1.6021728516,      -93.0786132812
1489456883.3278300762,1489456883.3302450180,       -0.7416992188,        0.1660156250,        0.0507812500,      -44.9523925781,        1.6021728516,      -93.0786132812
1489456883.3305339813,1489456883.3329539299,       -0.7416992188,        0.1660156250,        0.0507812500,      -45.0439453125,        0.8239746094,      -88.1347656250
1489456883.3332440853,1489456883.3356580734,       -0.7416992188,        0.1660156250,        0.0507812500,      -45.0439453125,        0.8239746094,      -88.1347656250
1489456883.3359470367,1489456883.3383638859,       -0.7416992188,        0.1660156250,        0.0507812500,      -45.2423095703,       -0.2746582031,      -82.9162597656
1489456883.3386540413,1489456883.3410789967,       -0.7001953125,        0.1884765625,        0.0537109375,      -45.2423095703,       -0.2746582031,      -82.9162597656
1489456883.3413701057,1489456883.3437829018,       -0.7001953125,        0.1884765625,        0.0537109375,      -45.5322265625,       -1.2664794922,      -77.6519775391
1489456883.3440709114,1489456883.3464860916,       -0.7001953125,        0.1884765625,        0.0537109375,      -45.5322265625,       -1.2664794922,      -77.6519775391
1489456883.3467750549,1489456883.3492391109,       -0.7001953125,        0.1884765625,        0.0537109375,      -45.6085205078,       -2.7923583984,      -72.6165771484
1489456883.3495268822,1489456883.3519420624,       -0.6601562500,        0.2265625000,        0.0610351562,      -45.6085205078,       -2.7923583984,      -72.6165771484
1489456883.3522300720,1489456883.3548069000,       -0.6601562500,        0.2265625000,        0.0610351562,      -45.5322265625,       -4.3029785156,      -66.9860839844
1489456883.3550920486,1489456883.3573830128,       -0.6601562500,        0.2265625000,        0.0610351562,      -45.5322265625,       -4.3029785156,      -66.9860839844
1489456883.3576650620,1489456883.3600239754,       -0.6601562500,        0.2802734375,        0.0615234375,      -45.6542968750,       -5.9204101562,      -60.7147216797
1489456883.3603069782,1489456883.3625900745,       -0.6440429688,        0.2802734375,        0.0615234375,      -45.6542968750,       -5.9204101562,      -60.7147216797
1489456883.3628709316,1489456883.3651618958,       -0.6440429688,        0.2802734375,        0.0615234375,      -45.6542968750,       -6.5765380859,      -54.9011230469
1489456883.3654429913,1489456883.3677310944,       -0.6440429688,        0.2802734375,        0.0615234375,      -45.2270507812,       -6.5765380859,      -54.9011230469
1489456883.3680150509,1489456883.3703670502,       -0.6230468750,        0.3271484375,        0.0712890625,      -45.2270507812,      -10.4827880859,      -48.7976074219
1489456883.3706541061,1489456883.3729469776,       -0.6230468750,        0.3271484375,        0.0712890625,      -44.0521240234,       -7.8735351562,      -48.7976074219
1489456883.3733389378,1489456883.3756320477,       -0.6230468750,        0.3271484375,        0.0712890625,      -44.0521240234,       -7.8735351562,      -41.7938232422
1489456883.3759150505,1489456883.3782041073,       -0.6230468750,        0.3271484375,        0.0712890625,      -42.7246093750,       -9.1094970703,      -41.7938232422
1489456883.3784859180,1489456883.3807809353,       -0.6147460938,        0.3876953125,        0.0703125000,      -42.7246093750,       -9.1094970703,      -33.9813232422
1489456883.3810639381,1489456883.3833498955,       -0.6147460938,        0.3876953125,        0.0703125000,      -41.2750244141,      -10.3302001953,      -34.9578857422
1489456883.3836369514,1489456883.3859229088,       -0.6147460938,        0.3876953125,        0.0703125000,      -41.2750244141,      -10.3302001953,      -34.9578857422
1489456883.3862080574,1489456883.3884980679,       -0.6147460938,        0.3876953125,        0.0703125000,      -39.0777587891,      -11.0015869141,      -28.0914306641
1489456883.3887839317,1489456883.3911180496,       -0.6005859375,        0.4101562500,        0.0893554688,      -39.0777587891,      -11.0015869141,      -28.0914306641
1489456883.3914020061,1489456883.3936939240,       -0.6005859375,        0.4101562500,        0.0893554688,      -36.6821289062,      -11.0015869141,      -21.7437744141
1489456883.3939800262,1489456883.3962709904,       -0.6005859375,        0.4101562500,        0.0893554688,      -36.6821289062,      -11.0015869141,      -21.7437744141
1489456883.3965570927,1489456883.3989939690,       -0.6005859375,        0.4101562500,        0.0893554688,      -34.1949462891,      -11.5203857422,      -15.1062011719
1489456883.3992800713,1489456883.4015789032,       -0.5903320312,        0.4375000000,        0.1093750000,      -34.1949462891,      -11.5203857422,      -15.1062011719
1489456883.4018650055,1489456883.4041559696,       -0.5903320312,        0.4375000000,        0.1093750000,      -31.2194824219,      -12.4206542969,       -8.6212158203
1489456883.4044389725,1489456883.4067280293,       -0.5903320312,        0.4375000000,        0.1093750000,      -31.2194824219,      -12.4206542969,       -8.6212158203
1489456883.4070100784,1489456883.4097208977,       -0.5903320312,        0.4375000000,        0.1093750000,      -29.0679931641,      -13.6718750000,       -1.2664794922
1489456883.4100229740,1489456883.4142279625,       -0.5927734375,        0.4589843750,        0.1391601562,      -29.0679931641,      -13.6718750000,        6.5460205078
1489456883.4145441055,1489456883.4169669151,       -0.5927734375,        0.4589843750,        0.1391601562,      -27.5421142578,      -15.9759521484,        5.8135986328
1489456883.4172561169,1489456883.4196879864,       -0.5927734375,        0.4589843750,        0.1391601562,      -23.6358642578,      -18.4173583984,       13.5192871094
1489456883.4199800491,1489456883.4223949909,       -0.5942382812,        0.4868164062,        0.1479492188,      -24.6124267578,      -18.4173583984,       13.5192871094
1489456883.4226870537,1489456883.4251019955,       -0.5942382812,        0.4868164062,        0.1479492188,      -20.7061767578,      -20.7366943359,       21.5454101562
1489456883.4253919125,1489456883.4278090000,       -0.5942382812,        0.4868164062,        0.1479492188,      -21.6217041016,      -20.7366943359,       21.5454101562
1489456883.4281001091,1489456883.4305329323,       -0.5942382812,        0.5239257812,        0.1708984375,      -17.7154541016,      -22.4456787109,       29.5715332031
1489456883.4308240414,1489456883.4332380295,       -0.6049804688,        0.5239257812,        0.1708984375,      -18.7225341797,      -22.4456787109,       29.5715332031
1489456883.4335289001,1489456883.4359378815,       -0.6049804688,        0.5239257812,        0.1708984375,      -18.7225341797,      -24.6887207031,       37.7044677734
1489456883.4362308979,1489456883.4386439323,       -0.6049804688,        0.5239257812,        0.1708984375,      -14.8010253906,      -24.6887207031,       37.7044677734
1489456883.4391579628,1489456883.4415750504,       -0.6127929688,        0.5463867188,        0.1914062500,      -10.8947753906,      -26.9012451172,       46.1883544922
1489456883.4418671131,1489456883.4442880154,       -0.6127929688,        0.5463867188,        0.1914062500,      -10.9710693359,      -26.9012451172,       46.1883544922
1489456883.4445800781,1489456883.4470009804,       -0.6127929688,        0.5463867188,        0.1914062500,       -7.0648193359,      -28.7780761719,       54.1687011719
1489456883.4472899437,1489456883.4497210979,       -0.6127929688,        0.5463867188,        0.1914062500,       -7.3547363281,      -28.7780761719,       54.1687011719
1489456883.4500091076,1489456883.4524240494,       -0.6293945312,        0.5605468750,        0.1884765625,       -7.3547363281,      -30.8074951172,       61.9659423828
1489456883.4527120590,1489456883.4551999569,       -0.6293945312,        0.5605468750,        0.1884765625,       -4.7454833984,      -30.8074951172,       61.9659423828
1489456883.4554889202,1489456883.4579050541,       -0.6293945312,        0.5605468750,        0.1884765625,       -0.8392333984,      -31.7535400391,       69.0612792969
1489456883.4581959248,1489456883.4606840611,       -0.6293945312,        0.5605468750,        0.2006835938,       -1.6326904297,      -31.7535400391,       69.0612792969
1489456883.4609739780,1489456883.4633910656,       -0.6416015625,        0.5927734375,        0.2006835938,        2.0141601562,      -33.8745117188,       75.7751464844
1489456883.4636800289,1489456883.4663310051,       -0.6416015625,        0.5927734375,        0.2006835938,        2.0141601562,      -33.8745117188,       75.7751464844
1489456883.4666199684,1489456883.4697530270,       -0.6416015625,        0.5927734375,        0.2006835938,        5.0811767578,      -36.3006591797,       80.5206298828
1489456883.4700388908,1489456883.4723269939,       -0.6967773438,        0.3129882812,        0.2246093750,        5.0811767578,      -36.3006591797,       80.5206298828
1489456883.4726099968,1489456883.4748980999,       -0.6967773438,        0.3129882812,        0.2246093750,        0.4425048828,      -37.0178222656,       75.9429931641
1489456883.4751780033,1489456883.4774620533,       -0.6967773438,        0.3129882812,        0.2246093750,        0.4425048828,      -37.0178222656,       75.9429931641
1489456883.4777429104,1489456883.4801540375,       -0.6967773438,        0.3129882812,        0.2246093750,        5.6762695312,      -27.3284912109,       70.0988769531
1489456883.4804360867,1489456883.4827239513,       -1.0244140625,       -0.3334960938,       -0.1118164062,        5.6762695312,      -27.3284912109,       70.0988769531
1489456883.4830069542,1489456883.4852941036,       -1.0244140625,       -0.3334960938,       -0.1118164062,        6.4392089844,      -17.0898437500,       66.4978027344
1489456883.4855749607,1489456883.4878671169,       -1.0244140625,       -0.3334960938,       -0.1118164062,        6.4392089844,      -17.0898437500,       66.4978027344
1489456883.4881489277,1489456883.4904460907,       -1.0244140625,       -0.3334960938,       -0.2368164062,       -5.2795410156,      -12.2222900391,       55.1757812500
1489456883.4907269478,1489456883.4930160046,       -0.9316406250,       -1.1083984375,       -0.1982421875,       -5.4931640625,      -12.2222900391,       55.1757812500
1489456883.4932959080,1489456883.4955849648,       -0.9316406250,       -1.1083984375,       -0.1982421875,       -5.4931640625,       -4.4097900391,       42.7703857422
1489456883.4958629608,1489456883.4981439114,       -0.9316406250,       -1.1083984375,       -0.1982421875,       -6.8664550781,       -5.7678222656,       42.7703857422
1489456883.4984209538,1489456883.5007541180,       -0.9316406250,       -1.1083984375,       -0.4414062500,       -6.8664550781,       -5.7678222656,       44.6929931641
1489456883.5010309219,1489456883.5033259392,       -1.1284179688,       -1.0512695312,       -0.4414062500,      -21.2249755859,       -2.6550292969,       44.6929931641
1489456883.5037150383,1489456883.5060029030,       -1.1284179688,       -1.0512695312,       -0.4414062500,      -21.2249755859,       -2.6550292969,       56.4117431641
1489456883.5062830448,1489456883.5085709095,       -1.1284179688,       -1.0512695312,       -0.4414062500,      -59.7381591797,       -4.1046142578,       58.3038330078
1489456883.5088789463,1489456883.5111620426,       -1.1284179688,       -0.3593750000,       -0.1108398438,      -59.7381591797,       -4.1046142578,       58.3038330078
1489456883.5114450455,1489456883.5137310028,       -1.1430664062,       -0.3593750000,       -0.1108398438,      -89.7369384766,       -5.4321289062,       72.3114013672
1489456883.5140130520,1489456883.5163049698,       -1.1430664062,       -0.3593750000,       -0.1108398438,      -89.7369384766,       -5.4321289062,       72.3114013672
1489456883.5165870190,1489456883.5189900398,       -1.1430664062,       -0.3593750000,       -0.1108398438,     -107.8338623047,       -8.9721679688,       88.8366699219
1489456883.5192730427,1489456883.5215640068,       -1.1430664062,        0.2592773438,        0.1196289062,     -107.8338623047,       -8.9721679688,       88.8366699219
1489456883.5218460560,1489456883.5241339207,       -1.1333007812,        0.2592773438,        0.1196289062,     -116.5008544922,      -14.2669677734,      100.5401611328
1489456883.5244209766,1489456883.5267078876,       -1.1333007812,        0.2592773438,        0.1196289062,     -116.5008544922,      -14.2669677734,      100.5401611328
1489456883.5269939899,1489456883.5293729305,       -1.1333007812,        0.2592773438,        0.1196289062,     -104.8431396484,      -16.0827636719,      107.3150634766
1489456883.5296580791,1489456883.5319459438,       -1.1918945312,        0.4233398438,       -0.0336914062,     -104.8431396484,      -16.0827636719,      107.3150634766
1489456883.5322310925,1489456883.5345211029,       -1.1918945312,        0.4233398438,       -0.0336914062,      -88.0432128906,      -17.1356201172,      112.1520996094
1489456883.5348079205,1489456883.5370979309,       -1.1918945312,        0.4233398438,       -0.0336914062,      -88.0432128906,      -17.1356201172,      112.1520996094
1489456883.5373840332,1489456883.5396800041,       -1.1918945312,        0.4233398438,       -0.0336914062,      -74.6765136719,      -18.5089111328,      112.5030517578
1489456883.5399649143,1489456883.5422549248,       -1.0468750000,        0.3754882812,       -0.1293945312,      -74.6765136719,      -18.5089111328,      112.5030517578
1489456883.5425410271,1489456883.5448269844,       -1.0468750000,        0.3754882812,       -0.1293945312,      -62.9577636719,      -21.6979980469,      108.7341308594
1489456883.5451099873,1489456883.5473959446,       -1.0468750000,        0.3754882812,       -0.1293945312,      -64.5294189453,      -21.6979980469,      108.7341308594
1489456883.5476789474,1489456883.5500869751,       -1.0468750000,        0.3754882812,       -0.1293945312,      -64.5294189453,      -25.6042480469,      103.8970947266
1489456883.5503790379,1489456883.5527949333,       -0.8007812500,        0.3232421875,       -0.0117187500,      -58.7615966797,      -25.1617431641,      103.8970947266
1489456883.5530900955,1489456883.5555059910,       -0.8007812500,        0.3232421875,       -0.0117187500,      -58.7615966797,      -25.1617431641,       99.1821289062
1489456883.5557999611,1489456883.5582849979,       -0.8007812500,        0.3232421875,       -0.0117187500,      -51.5136718750,      -26.9165039062,       99.1821289062
1489456883.5585720539,1489456883.5610060692,       -0.8007812500,        0.3232421875,       -0.0117187500,      -51.5136718750,      -27.9693603516,       94.6197509766
1489456883.5612978935,1489456883.5636799335,       -0.6958007812,        0.2983398438,       -0.0092773438,      -40.9088134766,      -27.9693603516,       94.6197509766
1489456883.5639700890,1489456883.5665619373,       -0.6958007812,        0.2983398438,       -0.0092773438,      -33.0963134766,      -29.0527343750,       89.9658203125
1489456883.5669589043,1489456883.5692820549,       -0.6958007812,        0.2983398438,       -0.0092773438,      -31.5704345703,      -29.0527343750,       89.9658203125
1489456883.5695710182,1489456883.5718629360,       -0.6958007812,        0.2866210938,       -0.0034179688,      -31.5704345703,      -28.6407470703,       84.8693847656
1489456883.5721499920,1489456883.5744369030,       -0.6738281250,        0.2866210938,       -0.0034179688,      -21.9421386719,      -28.6407470703,       84.8693847656
1489456883.5747230053,1489456883.5770111084,       -0.6738281250,        0.2866210938,       -0.0034179688,      -21.9421386719,      -28.6407470703,       78.8574218750
1489456883.5772950649,1489456883.5796389580,       -0.6738281250,        0.2866210938,       -0.0034179688,       -9.7503662109,      -27.6947021484,       78.8574218750
1489456883.5799210072,1489456883.5822069645,       -0.6738281250,        0.2856445312,        0.0810546875,       -9.7503662109,      -27.6947021484,       71.0449218750
1489456883.5824899673,1489456883.5847849846,       -0.6342773438,        0.2856445312,        0.0810546875,        1.1749267578,      -27.6489257812,       72.3724365234
1489456883.5850648880,1489456883.5873510838,       -0.6342773438,        0.2856445312,        0.0810546875,        1.1749267578,      -27.6489257812,       72.3724365234
1489456883.5876309872,1489456883.5899710655,       -0.6342773438,        0.2856445312,        0.0810546875,       10.9405517578,      -28.5797119141,       65.9332275391
1489456883.5902559757,1489456883.5925490856,       -0.6054687500,        0.2485351562,        0.2182617188,       10.9405517578,      -28.5797119141,       65.9332275391
1489456883.5928339958,1489456883.5951189995,       -0.6054687500,        0.2485351562,        0.2182617188,       18.2647705078,      -30.6701660156,       60.3485107422
1489456883.5954029560,1489456883.5976920128,       -0.6054687500,        0.2485351562,        0.2182617188,       18.2647705078,      -30.6701660156,       60.3485107422
1489456883.5979790688,1489456883.6002779007,       -0.6054687500,        0.2485351562,        0.2182617188,       25.0091552734,      -33.5540771484,       56.6253662109
1489456883.6005640030,1489456883.6028490067,       -0.7060546875,        0.1752929688,        0.2539062500,       25.0091552734,      -33.5540771484,       56.6253662109
1489456883.6031320095,1489456883.6054210663,       -0.7060546875,        0.1752929688,        0.2539062500,       30.6396484375,      -34.1491699219,       54.7485351562
1489456883.6057059765,1489456883.6079940796,       -0.7060546875,        0.1752929688,        0.2539062500,       30.6396484375,      -34.1491699219,       54.7485351562
1489456883.6082749367,1489456883.6107089520,       -0.7060546875,        0.1752929688,        0.2539062500,       34.0270996094,      -32.6995849609,       53.3905029297
1489456883.6109941006,1489456883.6132938862,       -0.8310546875,        0.1352539062,        0.1992187500,       34.0270996094,      -32.6995849609,       53.3905029297
1489456883.6135780811,1489456883.6158740520,       -0.8310546875,        0.1352539062,        0.1992187500,       35.6597900391,      -31.9671630859,       53.2379150391
1489456883.6161570549,1489456883.6184511185,       -0.8310546875,        0.1352539062,        0.1992187500,       35.6597900391,      -31.9671630859,       53.2379150391
1489456883.6187338829,1489456883.6212239265,       -0.8310546875,        0.1352539062,        0.1992187500,       35.6597900391,      -33.9965820312,       55.8471679688
1489456883.6215159893,1489456883.6239221096,       -0.8833007812,        0.3046875000,        0.2202148438,       36.4074707031,      -33.9965820312,       55.8471679688
1489456883.6242139339,1489456883.6266360283,       -0.8833007812,        0.3046875000,        0.2202148438,       40.3137207031,      -36.0565185547,       58.0596923828
1489456883.6269268990,1489456883.6293530464,       -0.8833007812,        0.3046875000,        0.2202148438,       39.4897460938,      -36.0565185547,       58.0596923828
1489456883.6297550201,1489456883.6321730614,       -0.8833007812,        0.3046875000,        0.0864257812,       52.4444580078,      -32.4859619141,       56.2286376953
1489456883.6324670315,1489456883.6348860264,       -0.9379882812,        0.2343750000,        0.0864257812,       52.4444580078,      -32.4859619141,       56.2286376953
1489456883.6351780891,1489456883.6375920773,       -0.9379882812,        0.2343750000,        0.0864257812,       59.4482421875,      -27.3590087891,       51.9714355469
1489456883.6378839016,1489456883.6402420998,       -0.9379882812,        0.2343750000,        0.0864257812,       59.4482421875,      -27.3590087891,       51.9714355469
1489456883.6405260563,1489456883.6428239346,       -0.8129882812,        0.1489257812,        0.1259765625,       55.5419921875,      -27.2064208984,       49.2858886719
1489456883.6431069374,1489456883.6453979015,       -0.7768554688,        0.1489257812,        0.1259765625,       55.0994873047,      -27.2064208984,       49.2858886719
1489456883.6456809044,1489456883.6479780674,       -0.7768554688,        0.1489257812,        0.1259765625,       55.0994873047,      -31.1126708984,       48.9501953125
1489456883.6482629776,1489456883.6506960392,       -0.7768554688,        0.1489257812,        0.1259765625,       49.1790771484,      -29.1900634766,       48.9501953125
1489456883.6509869099,1489456883.6534080505,       -0.7563476562,        0.1655273438,        0.0786132812,       49.1790771484,      -29.1900634766,       47.5769042969
1489456883.6537001133,1489456883.6561169624,       -0.7563476562,        0.1655273438,        0.0786132812,       45.4559326172,      -28.0151367188,       47.5769042969
1489456883.6564080715,1489456883.6588349342,       -0.7563476562,        0.1655273438,        0.0786132812,       45.4559326172,      -24.1088867188,       45.0439453125
1489456883.6591279507,1489456883.6615459919,       -0.7563476562,        0.1655273438,        0.0786132812,       42.2363281250,      -25.6042480469,       45.0439453125
1489456883.6618380547,1489456883.6642611027,       -0.7500000000,        0.1411132812,        0.0698242188,       42.2363281250,      -25.6042480469,       42.4957275391
1489456883.6645519733,1489456883.6669631004,       -0.7500000000,        0.1411132812,        0.0698242188,       37.6281738281,      -24.3530273438,       42.4957275391
1489456883.6672561169,1489456883.6696839333,       -0.7500000000,        0.1411132812,        0.0698242188,       37.6281738281,      -24.3530273438,       42.0379638672
1489456883.6699750423,1489456883.6723909378,       -0.7500000000,        0.1411132812,        0.1113281250,       33.8897705078,      -24.9786376953,       42.0379638672
1489456883.6726820469,1489456883.6751179695,       -0.7485351562,        0.1147460938,        0.1113281250,       33.8897705078,      -24.9786376953,       41.2597656250
1489456883.6755731106,1489456883.6779789925,       -0.7485351562,        0.1147460938,        0.1113281250,       30.3344726562,      -24.9786376953,       41.2597656250
1489456883.6782710552,1489456883.6808249950,       -0.7485351562,        0.1147460938,        0.1113281250,       30.3344726562,      -23.3459472656,       38.9556884766
1489456883.6811220646,1489456883.6835451126,       -0.7324218750,        0.0820312500,        0.1347656250,       27.4505615234,      -23.3459472656,       38.9556884766
1489456883.6838369370,1489456883.6862580776,       -0.7324218750,        0.0820312500,        0.1347656250,       27.4505615234,      -22.8271484375,       37.1856689453
1489456883.6865510941,1489456883.6889610291,       -0.7324218750,        0.0820312500,        0.1347656250,       26.4434814453,      -22.8271484375,       37.1856689453
1489456883.6892459393,1489456883.6915419102,       -0.7324218750,        0.0820312500,        0.1347656250,       26.4434814453,      -22.8271484375,       36.0870361328
1489456883.6918261051,1489456883.6941161156,       -0.7236328125,        0.1020507812,        0.1357421875,       27.2521972656,      -21.9726562500,       36.0870361328
1489456883.6945080757,1489456883.6968059540,       -0.7236328125,        0.1020507812,        0.1357421875,       27.2521972656,      -21.9726562500,       33.5845947266
1489456883.6970889568,1489456883.6994669437,       -0.7236328125,        0.1020507812,        0.1357421875,       28.2287597656,      -20.4467773438,       33.5845947266
1489456883.6997609138,1489456883.7021789551,       -0.7236328125,        0.1020507812,        0.1357421875,       28.2287597656,      -20.4467773438,       31.0821533203
1489456883.7024700642,1489456883.7048959732,       -0.7451171875,        0.1127929688,        0.1323242188,       28.8238525391,      -18.3258056641,       31.0821533203
1489456883.7051870823,1489456883.7076020241,       -0.7451171875,        0.1127929688,        0.1323242188,       28.8238525391,      -18.3258056641,       29.5410156250
1489456883.7078940868,1489456883.7102489471,       -0.7451171875,        0.1127929688,        0.1323242188,       29.9835205078,      -15.8843994141,       29.5410156250
1489456883.7105340958,1489456883.7128300667,       -0.7451171875,        0.1127929688,        0.1215820312,       29.9835205078,      -15.8843994141,       29.5410156250
1489456883.7131149769,1489456883.7154030800,       -0.7436523438,        0.0942382812,        0.1215820312,       32.2113037109,      -14.0380859375,       27.9388427734
1489456883.7156879902,1489456883.7179811001,       -0.7436523438,        0.0942382812,        0.1215820312,       32.2113037109,      -14.0380859375,       27.9388427734
1489456883.7182669640,1489456883.7205910683,       -0.7436523438,        0.0942382812,        0.1215820312,       34.4390869141,      -12.7105712891,       26.0314941406
1489456883.7208778858,1489456883.7231719494,       -0.7436523438,        0.0942382812,        0.1054687500,       34.4390869141,      -12.7105712891,       26.0314941406
1489456883.7234580517,1489456883.7257580757,       -0.7294921875,        0.0917968750,        0.1054687500,       35.0341796875,      -11.1236572266,       24.6124267578
1489456883.7260429859,1489456883.7283360958,       -0.7294921875,        0.0917968750,        0.1054687500,       35.0341796875,      -11.1236572266,       24.6124267578
1489456883.7286210060,1489456883.7310650349,       -0.7294921875,        0.0917968750,        0.1054687500,       33.7371826172,      -10.3454589844,       23.5290527344
1489456883.7313499451,1489456883.7336490154,       -0.7294921875,        0.0820312500,        0.1264648438,       33.7371826172,      -10.3454589844,       23.5290527344
1489456883.7339329720,1489456883.7362260818,       -0.7138671875,        0.0820312500,        0.1264648438,       32.6538085938,       -9.3994140625,       22.7813720703
1489456883.7365078926,1489456883.7389481068,       -0.7138671875,        0.0820312500,        0.1264648438,       32.6538085938,       -9.3994140625,       22.7813720703
1489456883.7392311096,1489456883.7415280342,       -0.7138671875,        0.0820312500,        0.1264648438,       30.8074951172,       -9.0332031250,       22.1557617188
1489456883.7418100834,1489456883.7441051006,       -0.7138671875,        0.0458984375,        0.1000976562,       30.8074951172,       -9.0332031250,       22.1557617188
1489456883.7443900108,1489456883.7466878891,       -0.7138671875,        0.0458984375,        0.1000976562,       27.2674560547,       -8.6212158203,       22.0947265625
1489456883.7469689846,1489456883.7493069172,       -0.7138671875,        0.0458984375,        0.1000976562,       27.2674560547,       -8.6212158203,       22.0947265625
1489456883.7495970726,1489456883.7520189285,       -0.7138671875,        0.0458984375,        0.1000976562,       22.9644775391,       -7.5988769531,       22.4304199219
1489456883.7523090839,1489456883.7547268867,       -0.7153320312,        0.0463867188,        0.1005859375,       22.9644775391,       -7.5988769531,       22.4304199219
1489456883.7550148964,1489456883.7574319839,       -0.7153320312,        0.0463867188,        0.1005859375,       19.7753906250,       -6.8664550781,       22.1405029297
1489456883.7578239441,1489456883.7602510452,       -0.7153320312,        0.0463867188,        0.1005859375,       19.7753906250,       -6.8664550781,       22.1405029297
1489456883.7605419159,1489456883.7630350590,       -0.7153320312,        0.0463867188,        0.1005859375,       17.5018310547,       -6.9427490234,       22.2473144531
1489456883.7633190155,1489456883.7656109333,       -0.6992187500,        0.0546875000,        0.1015625000,       17.5018310547,       -6.9427490234,       22.2473144531
1489456883.7658929825,1489456883.7681839466,       -0.6992187500,        0.0546875000,        0.1015625000,       14.1601562500,       -6.9732666016,       22.1710205078
1489456883.7684640884,1489456883.7709879875,       -0.6992187500,        0.0546875000,        0.1015625000,       14.1601562500,       -6.9732666016,       22.1710205078
1489456883.7712759972,1489456883.7736580372,       -0.6992187500,        0.0546875000,        0.1059570312,       12.4969482422,       -7.2326660156,       21.7742919922
1489456883.7739460468,1489456883.7766671181,       -0.7114257812,        0.0839843750,        0.1059570312,       12.4969482422,       -7.2326660156,       21.7742919922
1489456883.7769529819,1489456883.7792859077,       -0.7114257812,        0.0839843750,        0.1059570312,       12.2070312500,       -7.3699951172,       21.4233398438
1489456883.7795689106,1489456883.7818629742,       -0.7114257812,        0.0839843750,        0.1059570312,       12.2070312500,       -7.3699951172,       21.4233398438
1489456883.7821450233,1489456883.7844309807,       -0.6899414062,        0.1049804688,        0.1098632812,       12.2070312500,       -7.3089599609,       21.2707519531
1489456883.7847108841,1489456883.7869958878,       -0.6899414062,        0.1049804688,        0.1098632812,       12.4664306641,       -7.3089599609,       21.2707519531
1489456883.7872769833,1489456883.7896170616,       -0.6899414062,        0.1049804688,        0.1098632812,       12.4664306641,       -7.2021484375,       20.8892822266
1489456883.7898979187,1489456883.7921900749,       -0.6899414062,        0.1049804688,        0.1098632812,       13.4124755859,       -7.2021484375,       20.8892822266
1489456883.7924709320,1489456883.7947649956,       -0.6982421875,        0.0957031250,        0.1035156250,       13.4124755859,       -7.2021484375,       20.0653076172
1489456883.7950479984,1489456883.7973330021,       -0.6982421875,        0.0957031250,        0.1035156250,       13.7176513672,       -7.8125000000,       20.0653076172
1489456883.7976169586,1489456883.7999160290,       -0.6982421875,        0.0957031250,        0.1035156250,       13.7176513672,       -7.8125000000,       20.0653076172
1489456883.8001990318,1489456883.8024849892,       -0.6982421875,        0.0957031250,        0.1035156250,       13.6108398438,       -7.3699951172,       19.6228027344
1489456883.8027670383,1489456883.8050539494,       -0.7055664062,        0.0844726562,        0.1215820312,       13.6108398438,       -7.3699951172,       19.6228027344
1489456883.8053369522,1489456883.8076250553,       -0.7055664062,        0.0844726562,        0.1215820312,       13.1072998047,       -6.8359375000,       19.7143554688
1489456883.8079090118,1489456883.8102090359,       -0.7055664062,        0.0844726562,        0.1215820312,       13.1072998047,       -6.8359375000,       19.7143554688
1489456883.8104929924,1489456883.8127789497,       -0.7055664062,        0.0844726562,        0.1215820312,       11.8560791016,       -6.7138671875,       19.7448730469
1489456883.8130609989,1489456883.8153460026,       -0.6914062500,        0.0849609375,        0.1269531250,       11.8560791016,       -6.7138671875,       19.7448730469
1489456883.8156280518,1489456883.8179180622,       -0.6914062500,        0.0849609375,        0.1269531250,        9.0179443359,       -6.4392089844,       19.6075439453
1489456883.8181970119,1489456883.8205270767,       -0.6914062500,        0.0849609375,        0.1269531250,        9.0179443359,       -6.4392089844,       19.6075439453
1489456883.8208050728,1489456883.8231019974,       -0.6914062500,        0.0849609375,        0.1269531250,        6.4697265625,       -6.0577392578,       19.5465087891
1489456883.8234870434,1489456883.8257811069,       -0.6875000000,        0.0874023438,        0.1127929688,        6.4697265625,       -6.0577392578,       19.5465087891
1489456883.8260610104,1489456883.8283500671,       -0.6875000000,        0.0874023438,        0.1127929688,        4.0130615234,       -5.2032470703,       19.6533203125
1489456883.8286280632,1489456883.8311719894,       -0.6875000000,        0.0874023438,        0.1127929688,        4.0130615234,       -5.2032470703,       19.6533203125
1489456883.8314580917,1489456883.8338758945,       -0.6875000000,        0.0874023438,        0.2377929688,        2.5634765625,       -4.0435791016,       20.2941894531
1489456883.8341619968,1489456883.8365850449,       -0.6889648438,        0.0917968750,        0.1323242188,        2.5634765625,       -4.0435791016,       20.2941894531
1489456883.8368680477,1489456883.8392798901,       -0.6889648438,        0.0917968750,        0.1323242188,        1.5716552734,       -3.3569335938,       21.6369628906
1489456883.8395590782,1489456883.8418509960,       -0.6889648438,        0.0917968750,        0.1323242188,        1.5716552734,       -3.3569335938,       21.6369628906
1489456883.8421299458,1489456883.8444271088,       -0.6889648438,        0.0917968750,        0.1562500000,        1.0375976562,       -3.5095214844,       22.3541259766
1489456883.8447070122,1489456883.8470020294,       -0.6967773438,        0.1215820312,        0.1562500000,        1.0375976562,       -3.5095214844,       22.3541259766
1489456883.8472800255,1489456883.8496708870,       -0.6967773438,        0.1215820312,        0.1562500000,        1.0375976562,       -3.1585693359,       22.8271484375
1489456883.8499569893,1489456883.8523769379,       -0.6967773438,        0.1215820312,        0.1562500000,        2.2583007812,       -3.1585693359,       22.8271484375
1489456883.8526620865,1489456883.8550739288,       -0.6967773438,        0.1215820312,        0.1323242188,        2.2583007812,       -2.8991699219,       23.2696533203
1489456883.8553590775,1489456883.8577740192,       -0.7221679688,        0.1215820312,        0.1323242188,        4.5166015625,       -2.8991699219,       23.2696533203
1489456883.8580579758,1489456883.8604910374,       -0.7221679688,        0.1215820312,        0.1323242188,        4.5166015625,       -3.1585693359,       24.4140625000
1489456883.8607759476,1489456883.8631949425,       -0.7221679688,        0.1215820312,        0.1323242188,        6.6528320312,       -3.1585693359,       24.4140625000
1489456883.8634800911,1489456883.8659000397,       -0.7241210938,        0.0737304688,        0.1035156250,        6.6528320312,       -4.0588378906,       26.0314941406
1489456883.8661870956,1489456883.8685979843,       -0.7241210938,        0.0737304688,        0.1035156250,        8.3770751953,       -4.0588378906,       26.0314941406
1489456883.8688941002,1489456883.8713109493,       -0.7241210938,        0.0737304688,        0.1035156250,        8.3770751953,       -5.2947998047,       27.4505615234
1489456883.8715970516,1489456883.8740170002,       -0.7241210938,        0.0737304688,        0.1035156250,        9.4299316406,       -5.2947998047,       27.4505615234
1489456883.8743019104,1489456883.8767220974,       -0.7270507812,       -0.0126953125,        0.0825195312,        9.4299316406,       -6.1645507812,       28.0914306641
1489456883.8770089149,1489456883.8794400692,       -0.7270507812,       -0.0126953125,        0.0825195312,        9.9639892578,       -6.1645507812,       28.0914306641
1489456883.8797249794,1489456883.8821430206,       -0.7270507812,       -0.0126953125,        0.0825195312,        9.9639892578,       -6.1645507812,       28.8085937500
1489456883.8824279308,1489456883.8848888874,       -0.7270507812,       -0.0126953125,        0.0415039062,        8.4838867188,       -6.9885253906,       28.8085937500
1489456883.8852660656,1489456883.8876829147,       -0.7509765625,       -0.0473632812,        0.0415039062,        8.4838867188,       -7.5988769531,       30.1055908203
1489456883.8880820274,1489456883.8907470703,       -0.7509765625,       -0.0473632812,        0.0415039062,        4.5166015625,       -7.5988769531,       30.1055908203
1489456883.8910260201,1489456883.8933229446,       -0.7509765625,       -0.0473632812,        0.0415039062,       -0.3204345703,       -7.5073242188,       31.5246582031
1489456883.8936030865,1489456883.8958969116,       -0.7543945312,        0.0390625000,        0.0249023438,       -0.3204345703,       -7.5073242188,       31.5246582031
1489456883.8961770535,1489456883.8984720707,       -0.7543945312,        0.0390625000,        0.0249023438,       -0.3204345703,       -7.7972412109,       33.6456298828
1489456883.8987500668,1489456883.9011731148,       -0.7543945312,        0.0390625000,        0.0249023438,       -4.3945312500,       -7.7972412109,       33.6456298828
1489456883.9014570713,1489456883.9038729668,       -0.7543945312,        0.0390625000,        0.0249023438,       -4.3945312500,      -11.7034912109,       34.7290039062
