time_stamp before, Acceleration x, Acceleration y, Acceleration z, Gyro x, Gyro y, Gyro z
1494035526.0161480904,       -0.8330078125,        0.3920898438,       -0.2192382812,      -30.6091308594,      -18.6767578125,      117.3400878906
1494035526.0273520947,       -0.7841796875,        0.3920898438,       -0.2192382812,      -30.6091308594,      -18.6767578125,      111.2060546875
1494035526.0301098824,       -0.7841796875,        0.3920898438,       -0.2192382812,      -30.1818847656,      -18.0358886719,      111.2060546875
1494035526.0333039761,       -0.7841796875,        0.1420898438,       -0.2490234375,      -29.8309326172,      -16.1895751953,      106.5979003906
1494035526.0360031128,       -0.6953125000,        0.2187500000,       -0.2490234375,      -29.8309326172,      -16.1895751953,      106.5979003906
1494035526.0386939049,       -0.6953125000,        0.2187500000,       -0.2490234375,      -29.8309326172,      -13.7481689453,      102.8900146484
1494035526.0413880348,       -0.6953125000,        0.2187500000,       -0.2490234375,      -31.0058593750,      -13.7481689453,      102.8900146484
1494035526.0440928936,       -0.6254882812,        0.0380859375,       -0.2495117188,      -34.9121093750,      -11.0931396484,       95.7641601562
1494035526.0467889309,       -0.6254882812,        0.0380859375,       -0.2495117188,      -32.1044921875,      -11.0931396484,       95.7641601562
1494035526.0494790077,       -0.6254882812,        0.0380859375,       -0.2495117188,      -36.0107421875,       -8.4838867188,       89.1876220703
1494035526.0521669388,       -0.6254882812,        0.0380859375,       -0.2495117188,      -35.5072021484,       -8.4838867188,       89.1876220703
1494035526.0548748970,       -0.5566406250,       -0.0668945312,       -0.2348632812,      -39.4134521484,       -5.0964355469,       84.1827392578
1494035526.0575668812,       -0.5566406250,       -0.0668945312,       -0.2348632812,      -41.4276123047,       -5.0964355469,       84.1827392578
1494035526.0602529049,       -0.5566406250,       -0.0668945312,       -0.2348632812,      -41.4276123047,       -0.6713867188,       77.3773193359
1494035526.0629520416,       -0.5566406250,       -0.0668945312,       -0.2348632812,      -46.7376708984,       -0.6713867188,       77.3773193359
1494035526.0655519962,       -0.5024414062,       -0.1108398438,       -0.2177734375,      -46.7376708984,        3.2348632812,       70.2819824219
1494035526.0681030750,       -0.5024414062,       -0.1108398438,       -0.2177734375,      -51.2084960938,        2.5177001953,       70.2819824219
1494035526.0706570148,       -0.5024414062,       -0.1108398438,       -0.2177734375,      -51.2084960938,        2.5177001953,       62.4847412109
1494035526.0732190609,       -0.5024414062,       -0.1108398438,       -0.2177734375,      -55.2368164062,        4.4860839844,       62.4847412109
1494035526.0757811069,       -0.4116210938,       -0.0678710938,       -0.1723632812,      -55.2368164062,        4.4860839844,       62.4847412109
1494035526.0783390999,       -0.4116210938,       -0.0678710938,       -0.1723632812,      -58.1817626953,        5.6762695312,       54.6722412109
1494035526.0808920860,       -0.4116210938,       -0.0678710938,       -0.1723632812,      -58.1817626953,        5.6762695312,       54.6722412109
1494035526.0836079121,       -0.4116210938,       -0.0678710938,       -0.1401367188,      -58.0749511719,        6.9427490234,       45.1660156250
1494035526.0861620903,       -0.3515625000,       -0.1635742188,       -0.1401367188,      -58.0749511719,        6.9427490234,       45.1660156250
1494035526.0887179375,       -0.3515625000,       -0.1635742188,       -0.1401367188,      -53.1311035156,        8.2855224609,       33.8134765625
1494035526.0912690163,       -0.3515625000,       -0.1635742188,       -0.1401367188,      -53.1311035156,        8.2855224609,       33.8134765625
1494035526.0939950943,       -0.3515625000,       -0.2304687500,       -0.1020507812,      -45.8526611328,        8.9263916016,       21.0571289062
1494035526.0966970921,       -0.3769531250,       -0.2304687500,       -0.1020507812,      -45.8526611328,        8.9263916016,       21.0571289062
1494035526.0995569229,       -0.3769531250,       -0.2304687500,       -0.1020507812,      -40.2069091797,        9.0179443359,       10.6048583984
1494035526.1022610664,       -0.3769531250,       -0.2304687500,       -0.1020507812,      -40.2069091797,        9.0179443359,       10.6048583984
1494035526.1048920155,       -0.3325195312,       -0.2524414062,       -0.0625000000,      -34.9426269531,        8.6059570312,        1.5716552734
1494035526.1074409485,       -0.3325195312,       -0.2524414062,       -0.0625000000,      -34.9426269531,        8.6059570312,        1.5716552734
1494035526.1099929810,       -0.3325195312,       -0.2524414062,       -0.0625000000,      -28.4729003906,        8.0871582031,       -9.2163085938
1494035526.1125490665,       -0.3325195312,       -0.2524414062,       -0.0625000000,      -28.4729003906,        8.0871582031,       -9.2163085938
1494035526.1152200699,       -0.2954101562,       -0.2661132812,       -0.0439453125,      -21.8200683594,        8.2550048828,      -20.7214355469
1494035526.1179890633,       -0.2954101562,       -0.2661132812,       -0.0439453125,      -21.8200683594,        8.2550048828,      -20.7214355469
1494035526.1205511093,       -0.2954101562,       -0.2661132812,       -0.0439453125,      -15.5792236328,        7.5073242188,      -30.5175781250
1494035526.1231009960,       -0.2954101562,       -0.2661132812,       -0.0439453125,      -15.5792236328,        7.5073242188,      -30.5175781250
1494035526.1259601116,       -0.2333984375,       -0.2934570312,       -0.0429687500,      -10.1776123047,        5.9356689453,      -39.7796630859
1494035526.1292169094,       -0.2333984375,       -0.2934570312,       -0.0429687500,      -10.1776123047,        5.9356689453,      -39.7796630859
1494035526.1319260597,       -0.2333984375,       -0.2934570312,       -0.0429687500,       -5.3100585938,        6.0577392578,      -50.7049560547
1494035526.1346709728,       -0.2333984375,       -0.2680664062,       -0.0488281250,       -5.3100585938,        6.0577392578,      -50.7049560547
1494035526.1373639107,       -0.2348632812,       -0.2680664062,       -0.0488281250,       -1.1444091797,        6.6070556641,      -60.9436035156
1494035526.1400599480,       -0.2348632812,       -0.2680664062,       -0.0488281250,       -1.1444091797,        6.6070556641,      -60.9436035156
1494035526.1427509785,       -0.2348632812,       -0.2680664062,       -0.0488281250,        3.2348632812,        7.1105957031,      -69.8242187500
1494035526.1454889774,       -0.2114257812,       -0.2509765625,       -0.0551757812,        3.2348632812,        7.1105957031,      -69.8242187500
1494035526.1481819153,       -0.2114257812,       -0.2509765625,       -0.0551757812,        5.9051513672,        7.2174072266,      -76.8890380859
1494035526.1508719921,       -0.2114257812,       -0.2509765625,       -0.0551757812,        5.9051513672,        7.2174072266,      -76.8890380859
1494035526.1535680294,       -0.2114257812,       -0.2509765625,       -0.0551757812,        3.3111572266,        7.0953369141,      -83.8317871094
1494035526.1561169624,       -0.2001953125,       -0.2622070312,       -0.0869140625,        3.3111572266,        7.0953369141,      -83.8317871094
1494035526.1586658955,       -0.2001953125,       -0.2622070312,       -0.0869140625,       -0.3051757812,        8.1634521484,      -91.5527343750
1494035526.1612219810,       -0.2001953125,       -0.2622070312,       -0.0869140625,       -0.3051757812,        8.1634521484,      -91.5527343750
1494035526.1637840271,       -0.2001953125,       -0.2622070312,       -0.0869140625,       -4.2114257812,        9.2315673828,      -98.6633300781
1494035526.1663401127,       -0.1835937500,       -0.2231445312,       -0.0756835938,       -6.2408447266,        9.2315673828,      -98.6633300781
1494035526.1688959599,       -0.1835937500,       -0.2231445312,       -0.0756835938,       -6.2408447266,        9.2315673828,     -106.0791015625
1494035526.1715569496,       -0.1835937500,       -0.2231445312,       -0.0756835938,      -10.9405517578,       10.0708007812,     -106.0791015625
1494035526.1741890907,       -0.1835937500,       -0.2231445312,       -0.0708007812,      -10.9405517578,       10.0708007812,     -112.6403808594
1494035526.1767530441,       -0.1777343750,       -0.1025390625,       -0.0708007812,      -14.2517089844,       12.0239257812,     -112.6403808594
1494035526.1793129444,       -0.1777343750,       -0.1025390625,       -0.0708007812,      -14.2517089844,       12.0239257812,     -120.4528808594
1494035526.1818759441,       -0.1777343750,       -0.1025390625,       -0.0708007812,      -17.9290771484,       12.3443603516,     -119.0490722656
1494035526.1846170425,       -0.1777343750,       -0.1025390625,       -0.0053710938,      -17.9290771484,       12.3443603516,     -126.8615722656
1494035526.1873250008,       -0.1455078125,       -0.0009765625,       -0.0053710938,      -20.5841064453,       11.6271972656,     -125.0457763672
1494035526.1900329590,       -0.1455078125,       -0.0009765625,       -0.0053710938,      -20.5841064453,       11.6271972656,     -125.0457763672
1494035526.1927340031,       -0.1455078125,       -0.0009765625,       -0.0053710938,      -20.2941894531,       11.3525390625,     -130.2795410156
1494035526.1954839230,       -0.1679687500,        0.1093750000,        0.0761718750,      -20.2941894531,       11.3525390625,     -130.2795410156
1494035526.1981859207,       -0.1679687500,        0.1093750000,        0.0761718750,      -16.4947509766,       10.3607177734,     -133.9111328125
1494035526.2008860111,       -0.1679687500,        0.1093750000,        0.0761718750,      -16.4947509766,       10.3607177734,     -133.9111328125
1494035526.2035779953,       -0.1679687500,        0.1093750000,        0.0761718750,      -12.5885009766,        8.6975097656,     -135.0402832031
1494035526.2061359882,       -0.2329101562,        0.1997070312,        0.1123046875,      -12.5885009766,        8.6975097656,     -135.0402832031
1494035526.2086880207,       -0.2329101562,        0.1997070312,        0.1123046875,      -11.6271972656,        7.2631835938,     -135.5285644531
1494035526.2112500668,       -0.2329101562,        0.1997070312,        0.1123046875,      -11.6271972656,        7.2631835938,     -135.5285644531
1494035526.2138841152,       -0.2329101562,        0.1997070312,        0.1123046875,      -11.1541748047,        5.3253173828,     -135.8795166016
1494035526.2165880203,       -0.2568359375,        0.3481445312,        0.1318359375,      -11.1541748047,        5.3253173828,     -135.8795166016
1494035526.2192800045,       -0.2568359375,        0.3481445312,        0.1318359375,       -6.8206787109,        4.3029785156,     -136.4898681641
1494035526.2219738960,       -0.2568359375,        0.3481445312,        0.1318359375,       -6.8206787109,        4.3029785156,     -136.4898681641
1494035526.2246799469,       -0.2568359375,        0.3481445312,        0.1186523438,       -1.6937255859,        4.2724609375,     -135.5133056641
1494035526.2273769379,       -0.2788085938,        0.4926757812,        0.1186523438,       -1.6937255859,        4.2724609375,     -135.5133056641
1494035526.2300689220,       -0.2788085938,        0.4926757812,        0.1186523438,        2.1362304688,        2.8991699219,     -133.7738037109
1494035526.2327630520,       -0.2788085938,        0.4926757812,        0.1186523438,        2.1362304688,        2.8991699219,     -133.7738037109
1494035526.2354888916,       -0.2788085938,        0.5493164062,        0.0922851562,        5.3710937500,        1.5411376953,     -131.4697265625
1494035526.2381770611,       -0.2910156250,        0.5493164062,        0.0922851562,        5.3710937500,        1.5411376953,     -131.4697265625
1494035526.2409958839,       -0.2910156250,        0.5493164062,        0.0922851562,        7.8430175781,        0.1831054688,     -128.4942626953
1494035526.2437009811,       -0.2910156250,        0.5493164062,        0.0922851562,        7.8430175781,        0.1831054688,     -128.4942626953
1494035526.2465128899,       -0.3276367188,        0.6215820312,        0.0668945312,        9.8114013672,       -0.5187988281,     -125.2899169922
1494035526.2492070198,       -0.3276367188,        0.6215820312,        0.0668945312,        9.8114013672,       -0.5187988281,     -125.2899169922
1494035526.2519009113,       -0.3276367188,        0.6215820312,        0.0668945312,        9.1094970703,       -0.2441406250,     -121.3684082031
1494035526.2545320988,       -0.3276367188,        0.6215820312,        0.0668945312,        9.1094970703,       -0.2441406250,     -121.3684082031
1494035526.2570888996,       -0.3725585938,        0.6035156250,       -0.0126953125,        6.4849853516,        0.3509521484,     -116.5313720703
1494035526.2596430779,       -0.3725585938,        0.6035156250,       -0.0126953125,        6.4849853516,        0.3509521484,     -116.5313720703
1494035526.2621939182,       -0.3725585938,        0.6035156250,       -0.0126953125,        1.0528564453,        1.2207031250,     -111.1450195312
1494035526.2648758888,       -0.3725585938,        0.6035156250,       -0.0126953125,        1.0528564453,        1.2207031250,     -111.1450195312
1494035526.2675731182,       -0.3754882812,        0.6147460938,       -0.0795898438,       -7.5073242188,        2.6397705078,     -106.7504882812
1494035526.2702710629,       -0.3754882812,        0.6147460938,       -0.0795898438,       -7.5073242188,        2.6397705078,     -106.7504882812
1494035526.2729640007,       -0.3754882812,        0.6147460938,       -0.0795898438,      -18.0511474609,        3.8604736328,     -103.9123535156
1494035526.2755389214,       -0.3754882812,        0.6640625000,       -0.0639648438,      -18.0511474609,        3.8604736328,     -103.9123535156
1494035526.2780919075,       -0.3618164062,        0.6640625000,       -0.0639648438,      -18.0511474609,        5.9204101562,     -101.1810302734
1494035526.2806470394,       -0.3618164062,        0.6640625000,       -0.0639648438,      -26.7333984375,        5.9204101562,     -101.1810302734
1494035526.2833058834,       -0.3618164062,        0.6640625000,       -0.0639648438,      -26.7333984375,        9.8266601562,      -97.6104736328
1494035526.2858650684,       -0.4868164062,        0.7001953125,       -0.0429687500,      -31.7230224609,        8.6517333984,      -97.6104736328
1494035526.2884259224,       -0.4301757812,        0.7001953125,       -0.0429687500,      -31.7230224609,        8.6517333984,      -93.4295654297
1494035526.2909829617,       -0.4301757812,        0.7001953125,       -0.0429687500,      -38.2080078125,        9.6588134766,      -93.4295654297
1494035526.2936890125,       -0.4301757812,        0.7001953125,       -0.0429687500,      -38.2080078125,        9.6588134766,      -89.5233154297
1494035526.2962601185,       -0.4794921875,        0.7714843750,        0.0556640625,      -42.6025390625,       11.2915039062,      -89.3707275391
1494035526.2988159657,       -0.4794921875,        0.7714843750,        0.0556640625,      -42.6025390625,       11.2915039062,      -89.3707275391
1494035526.3013749123,       -0.4794921875,        0.7714843750,        0.0556640625,      -42.1905517578,       13.1988525391,      -86.4868164062
1494035526.3040161133,       -0.4794921875,        0.7714843750,        0.0556640625,      -42.1905517578,       13.1988525391,      -86.4868164062
1494035526.3067169189,       -0.5244140625,        0.8056640625,        0.1162109375,      -37.7197265625,       13.9465332031,      -81.3140869141
1494035526.3094120026,       -0.5244140625,        0.8056640625,        0.1162109375,      -37.7197265625,       13.9465332031,      -81.3140869141
1494035526.3121099472,       -0.5244140625,        0.8056640625,        0.1162109375,      -31.5856933594,       13.3666992188,      -75.5462646484
1494035526.3148119450,       -0.5244140625,        0.8056640625,        0.1162109375,      -31.5856933594,       13.3666992188,      -75.5462646484
1494035526.3175060749,       -0.5546875000,        0.7944335938,        0.0742187500,      -23.7274169922,       12.6190185547,      -70.1446533203
1494035526.3203198910,       -0.5546875000,        0.7944335938,        0.0742187500,      -23.7274169922,       12.6190185547,      -70.1446533203
1494035526.3230190277,       -0.5546875000,        0.7944335938,        0.0742187500,      -17.1508789062,       13.1683349609,      -65.9179687500
1494035526.3257319927,       -0.5546875000,        0.6694335938,        0.0170898438,      -17.1508789062,       13.1683349609,      -65.9179687500
1494035526.3284320831,       -0.5268554688,        0.7055664062,        0.0170898438,      -12.4359130859,       13.7939453125,      -63.8732910156
1494035526.3311269283,       -0.5268554688,        0.7055664062,        0.0170898438,      -12.4359130859,       13.7939453125,      -63.8732910156
1494035526.3338680267,       -0.5268554688,        0.7055664062,        0.0170898438,      -10.1928710938,       14.5111083984,      -62.0727539062
1494035526.3365650177,       -0.4243164062,        0.6215820312,       -0.0390625000,      -10.1928710938,       14.5111083984,      -62.0727539062
1494035526.3392639160,       -0.4243164062,        0.6215820312,       -0.0390625000,      -13.4887695312,       14.7857666016,      -61.1267089844
1494035526.3419671059,       -0.4243164062,        0.6215820312,       -0.0390625000,      -13.4887695312,       14.7857666016,      -61.1267089844
1494035526.3446090221,       -0.4243164062,        0.6215820312,       -0.0390625000,      -15.5181884766,       14.9078369141,      -61.1877441406
1494035526.3471729755,       -0.2866210938,        0.6391601562,        0.0258789062,      -15.5181884766,       14.9078369141,      -61.1877441406
1494035526.3497300148,       -0.2866210938,        0.6391601562,        0.0258789062,      -12.1765136719,       14.2059326172,      -60.9436035156
1494035526.3522899151,       -0.2866210938,        0.6391601562,        0.0258789062,      -12.1765136719,       14.2059326172,      -60.9436035156
1494035526.3549489975,       -0.2866210938,        0.6391601562,        0.0258789062,       -7.0648193359,       12.0391845703,      -59.2041015625
1494035526.3576440811,       -0.2138671875,        0.6064453125,        0.0556640625,       -7.0648193359,       12.0391845703,      -59.2041015625
1494035526.3603379726,       -0.2138671875,        0.6064453125,        0.0556640625,       -3.4179687500,        9.5214843750,      -56.7779541016
1494035526.3630270958,       -0.2138671875,        0.6064453125,        0.0556640625,       -3.4179687500,        9.5214843750,      -56.7779541016
1494035526.3657279015,       -0.2138671875,        0.6064453125,        0.0556640625,       -1.4190673828,        8.0261230469,      -54.1076660156
1494035526.3684198856,       -0.1782226562,        0.5405273438,        0.0463867188,       -1.4190673828,        8.0261230469,      -54.1076660156
1494035526.3711121082,       -0.1782226562,        0.5405273438,        0.0463867188,       -1.9531250000,        7.4768066406,      -51.6510009766
1494035526.3738040924,       -0.1782226562,        0.5405273438,        0.0463867188,       -1.9531250000,        7.4768066406,      -51.6510009766
1494035526.3765029907,       -0.1782226562,        0.4633789062,       -0.0278320312,       -5.0506591797,        7.4615478516,      -49.9114990234
1494035526.3791959286,       -0.1518554688,        0.4633789062,       -0.0278320312,       -5.0506591797,        7.4615478516,      -49.9114990234
1494035526.3818891048,       -0.1518554688,        0.4633789062,       -0.0278320312,      -12.9241943359,        7.2631835938,      -48.3551025391
1494035526.3845820427,       -0.1518554688,        0.4633789062,       -0.0278320312,      -12.9241943359,        7.2631835938,      -48.3551025391
1494035526.3872718811,       -0.0903320312,        0.4497070312,       -0.0742187500,      -23.3764648438,        7.4615478516,      -47.1649169922
1494035526.3899629116,       -0.0903320312,        0.4497070312,       -0.0742187500,      -23.3764648438,        7.4615478516,      -47.1649169922
1494035526.3927628994,       -0.0903320312,        0.4497070312,       -0.0742187500,      -35.9649658203,        8.1634521484,      -46.2341308594
1494035526.3953518867,       -0.0903320312,        0.4497070312,       -0.0742187500,      -35.9649658203,        8.1634521484,      -46.2341308594
1494035526.3979051113,       -0.1098632812,        0.8769531250,       -0.2441406250,      -32.0587158203,       11.3372802734,      -35.2325439453
1494035526.4004650116,       -0.1098632812,        0.8769531250,       -0.2441406250,      -33.6608886719,       11.3372802734,      -35.2325439453
1494035526.4030249119,       -0.1098632812,        0.8769531250,       -0.2441406250,      -33.6608886719,       11.3372802734,       -6.5460205078
1494035526.4057259560,       -0.1098632812,        0.8769531250,       -0.2441406250,      -12.6037597656,        8.4991455078,       -6.5460205078
1494035526.4084229469,       -1.2846679688,        3.8608398438,        0.3818359375,      -12.6037597656,       -3.2196044922,       53.5583496094
1494035526.4111149311,       -1.2846679688,        3.8608398438,        0.3818359375,      -72.2045898438,       -2.5939941406,       53.5583496094
1494035526.4138491154,       -1.2846679688,        3.8608398438,        0.3818359375,      -72.2045898438,       -6.5002441406,       51.7883300781
1494035526.4165420532,       -1.2846679688,        2.6108398438,        0.7500000000,      -35.0646972656,       -4.5318603516,       51.7883300781
1494035526.4192380905,       -0.3837890625,        2.5742187500,        0.7500000000,      -35.0646972656,      -12.3443603516,        3.3111572266
1494035526.4219369888,       -0.3837890625,        2.5742187500,        0.7500000000,       16.1285400391,      -15.4571533203,        3.3111572266
1494035526.4246718884,       -0.3837890625,        2.5742187500,        0.7500000000,       16.1285400391,      -11.5509033203,       -5.1116943359
1494035526.4273679256,       -2.2763671875,       -0.3344726562,       -0.4760742188,       -5.7983398438,      -11.3830566406,       -5.1116943359
1494035526.4300520420,       -2.2763671875,       -0.3344726562,       -0.4760742188,       -5.7983398438,      -11.3830566406,        9.1705322266
1494035526.4327340126,       -2.2763671875,       -0.3344726562,       -0.4760742188,      -48.5076904297,       -3.4179687500,        9.1705322266
1494035526.4354650974,       -2.2763671875,       -0.3344726562,       -0.4760742188,      -48.5076904297,       -3.4179687500,       18.5241699219
1494035526.4381530285,       -2.2060546875,       -1.8554687500,       -0.2592773438,      -27.6947021484,       -6.8664550781,       18.5241699219
1494035526.4408450127,       -2.2060546875,       -1.8554687500,       -0.2592773438,      -27.6947021484,       -6.8664550781,       29.7698974609
1494035526.4435389042,       -2.2060546875,       -1.8554687500,       -0.2592773438,       10.5285644531,       -3.0822753906,       29.7698974609
1494035526.4460890293,       -2.2060546875,       -1.8554687500,       -0.2592773438,       10.5285644531,       -3.0822753906,       37.5823974609
1494035526.4486439228,       -1.0839843750,        0.6074218750,        0.0834960938,        9.7045898438,      -12.0544433594,       38.7115478516
1494035526.4512000084,       -1.0839843750,        0.6074218750,        0.0834960938,        9.7045898438,      -12.0544433594,       38.7115478516
1494035526.4537920952,       -1.0839843750,        0.6074218750,        0.0834960938,        2.0446777344,      -18.9361572266,       34.6069335938
1494035526.4564878941,       -1.0839843750,        0.6074218750,       -0.0415039062,        2.0446777344,      -18.9361572266,       34.6069335938
1494035526.4591839314,       -0.4536132812,        0.9360351562,       -0.1191406250,       -8.2855224609,      -20.4772949219,       27.1148681641
1494035526.4618809223,       -0.4536132812,        0.9360351562,       -0.1191406250,       -8.2855224609,      -20.4772949219,       27.1148681641
1494035526.4645800591,       -0.4536132812,        0.9360351562,       -0.1191406250,      -11.0626220703,      -21.8353271484,       23.2086181641
1494035526.4673879147,       -0.4536132812,        0.5732421875,       -0.4711914062,      -11.0626220703,      -21.8353271484,       23.2086181641
1494035526.4700849056,       -0.1787109375,        0.5732421875,       -0.4711914062,       -3.9978027344,      -22.9797363281,       23.2849121094
1494035526.4727790356,       -0.1787109375,        0.5732421875,       -0.4711914062,       -3.9978027344,      -22.9797363281,       23.2849121094
1494035526.4754910469,       -0.1787109375,        0.5732421875,       -0.4711914062,        6.4239501953,      -23.4832763672,       21.0571289062
1494035526.4781849384,       -0.3730468750,        0.4199218750,       -0.0478515625,        6.4239501953,      -23.4832763672,       21.0571289062
1494035526.4808800220,       -0.3730468750,        0.4199218750,       -0.0478515625,        5.4321289062,      -23.5900878906,       16.3421630859
1494035526.4835810661,       -0.3730468750,        0.4199218750,       -0.0478515625,        5.4321289062,      -23.5900878906,       16.3421630859
1494035526.4862749577,       -0.3730468750,        0.4199218750,       -0.0478515625,       -5.6304931641,      -24.5819091797,       12.3748779297
1494035526.4889719486,       -0.6333007812,        0.3935546875,        0.3408203125,       -5.6304931641,      -24.5819091797,       12.3748779297
1494035526.4916670322,       -0.6333007812,        0.3935546875,        0.3408203125,      -16.2811279297,      -24.1699218750,        8.9416503906
1494035526.4943261147,       -0.6333007812,        0.3935546875,        0.3408203125,      -16.2811279297,      -24.1699218750,        8.9416503906
1494035526.4968850613,       -0.6333007812,        0.3935546875,        0.3408203125,      -20.2026367188,      -23.5443115234,        6.9122314453
1494035526.4994380474,       -0.7343750000,        0.3774414062,        0.2734375000,      -20.2026367188,      -23.5443115234,        6.9122314453
1494035526.5019919872,       -0.7343750000,        0.3774414062,        0.2734375000,      -15.9759521484,      -25.5737304688,        5.1422119141
1494035526.5046830177,       -0.7343750000,        0.3774414062,        0.2734375000,      -15.9759521484,      -25.5737304688,        5.1422119141
1494035526.5073800087,       -0.7343750000,        0.3774414062,        0.0659179688,       -9.1705322266,      -28.1524658203,        2.1972656250
1494035526.5100789070,       -0.7587890625,        0.4589843750,        0.0659179688,       -9.1705322266,      -28.1524658203,        2.1972656250
1494035526.5127730370,       -0.7587890625,        0.4589843750,        0.0659179688,       -9.7961425781,      -29.1748046875,       -0.4882812500
1494035526.5154690742,       -0.7587890625,        0.4589843750,        0.0659179688,       -9.7961425781,      -29.1748046875,       -0.4882812500
1494035526.5181629658,       -0.7226562500,        0.4682617188,       -0.0908203125,      -14.4500732422,      -28.5949707031,       -1.2054443359
1494035526.5208590031,       -0.7226562500,        0.4682617188,       -0.0908203125,      -14.4500732422,      -28.5949707031,       -1.2054443359
1494035526.5235691071,       -0.7226562500,        0.4682617188,       -0.0908203125,      -21.2249755859,      -28.1982421875,       -1.6021728516
1494035526.5262660980,       -0.7226562500,        0.4682617188,       -0.0908203125,      -21.2249755859,      -28.1982421875,       -1.6021728516
1494035526.5289599895,       -0.5712890625,        0.5419921875,       -0.0014648438,      -21.6064453125,      -27.7557373047,       -3.4484863281
1494035526.5316560268,       -0.5712890625,        0.5419921875,       -0.0014648438,      -21.6064453125,      -27.7557373047,       -3.4484863281
1494035526.5343120098,       -0.5712890625,        0.5419921875,       -0.0014648438,      -20.3247070312,      -26.1840820312,       -5.4626464844
1494035526.5368709564,       -0.5712890625,        0.5419921875,       -0.0014648438,      -20.3247070312,      -26.1840820312,       -5.4626464844
1494035526.5394260883,       -0.5390625000,        0.5053710938,        0.1777343750,      -16.4184570312,      -24.9481201172,       -9.1400146484
1494035526.5420820713,       -0.5390625000,        0.5053710938,        0.1777343750,      -18.5852050781,      -24.9481201172,       -9.1400146484
1494035526.5446510315,       -0.5390625000,        0.5053710938,        0.1777343750,      -18.5852050781,      -24.9481201172,      -14.9383544922
1494035526.5472118855,       -0.5390625000,        0.5053710938,        0.1777343750,      -21.9268798828,      -25.2990722656,      -14.9383544922
1494035526.5497720242,       -0.5644531250,        0.4609375000,        0.2436523438,      -21.9268798828,      -25.2990722656,      -20.0500488281
1494035526.5523331165,       -0.5644531250,        0.4609375000,        0.2436523438,      -23.0712890625,      -24.5361328125,      -20.0500488281
1494035526.5549950600,       -0.5644531250,        0.4609375000,        0.2436523438,      -23.0712890625,      -24.5361328125,      -21.2097167969
1494035526.5576949120,       -0.5644531250,        0.4609375000,        0.1293945312,      -19.5922851562,      -23.7121582031,      -21.2097167969
1494035526.5603959560,       -0.5444335938,        0.4707031250,        0.1293945312,      -19.5922851562,      -23.7121582031,      -21.2097167969
1494035526.5631000996,       -0.5444335938,        0.4707031250,        0.1293945312,      -15.1824951172,      -22.3999023438,      -22.9949951172
1494035526.5658030510,       -0.5444335938,        0.4707031250,        0.1293945312,      -15.1824951172,      -22.3999023438,      -26.9012451172
1494035526.5684990883,       -0.5444335938,        0.4619140625,        0.0712890625,      -12.8631591797,      -19.8364257812,      -25.7263183594
1494035526.5711939335,       -0.5566406250,        0.4619140625,        0.0712890625,      -12.8631591797,      -19.8364257812,      -25.7263183594
1494035526.5739049911,       -0.5566406250,        0.4619140625,        0.0712890625,      -12.9547119141,      -15.1367187500,      -26.5197753906
1494035526.5766060352,       -0.5566406250,        0.4619140625,        0.0712890625,      -12.9547119141,      -15.1367187500,      -26.5197753906
1494035526.5793058872,       -0.5854492188,        0.4340820312,        0.0664062500,      -15.6860351562,      -10.6964111328,      -26.4892578125
1494035526.5820031166,       -0.5854492188,        0.4340820312,        0.0664062500,      -15.6860351562,      -10.6964111328,      -26.4892578125
1494035526.5846419334,       -0.5854492188,        0.4340820312,        0.0664062500,      -14.9841308594,       -5.8288574219,      -25.8026123047
1494035526.5871949196,       -0.5854492188,        0.4340820312,        0.0664062500,      -14.9841308594,       -5.8288574219,      -25.8026123047
1494035526.5897479057,       -0.5888671875,        0.4814453125,        0.1132812500,      -11.9628906250,       -1.8615722656,      -24.6582031250
1494035526.5923008919,       -0.5888671875,        0.4814453125,        0.1132812500,      -11.9628906250,       -1.8615722656,      -24.6582031250
1494035526.5949540138,       -0.5888671875,        0.4814453125,        0.1132812500,       -7.4157714844,        1.7395019531,      -24.4445800781
1494035526.5976281166,       -0.5888671875,        0.4814453125,        0.1132812500,       -7.4157714844,        1.7395019531,      -24.4445800781
1494035526.6002960205,       -0.6005859375,        0.4594726562,        0.1337890625,       -2.3803710938,        4.2572021484,      -25.2532958984
1494035526.6029689312,       -0.6005859375,        0.4594726562,        0.1337890625,       -2.3803710938,        4.2572021484,      -25.2532958984
1494035526.6056499481,       -0.6005859375,        0.4594726562,        0.1337890625,        1.0986328125,        6.3934326172,      -25.2990722656
1494035526.6083281040,       -0.6005859375,        0.4594726562,        0.0957031250,        1.0986328125,        6.3934326172,      -25.2990722656
1494035526.6109960079,       -0.6245117188,        0.4345703125,        0.0957031250,        4.6081542969,        7.8735351562,      -25.0244140625
1494035526.6137828827,       -0.6245117188,        0.4345703125,        0.0957031250,        4.6081542969,        7.8735351562,      -25.0244140625
1494035526.6164600849,       -0.6245117188,        0.4345703125,        0.0957031250,        7.4462890625,        8.8958740234,      -25.3906250000
1494035526.6191329956,       -0.6210937500,        0.4252929688,        0.0375976562,        7.4462890625,        8.8958740234,      -25.3906250000
1494035526.6218039989,       -0.6210937500,        0.4252929688,        0.0375976562,        9.5367431641,        9.5825195312,      -25.2380371094
1494035526.6244869232,       -0.6210937500,        0.4252929688,        0.0375976562,        9.5367431641,        9.5825195312,      -25.2380371094
1494035526.6271550655,       -0.6210937500,        0.4252929688,        0.0375976562,        9.8724365234,       10.1928710938,      -25.4974365234
1494035526.6298270226,       -0.6269531250,        0.3789062500,        0.0405273438,        9.8724365234,       10.1928710938,      -25.4974365234
1494035526.6324949265,       -0.6269531250,        0.3789062500,        0.0405273438,        8.5449218750,       10.9863281250,      -26.7486572266
1494035526.6350879669,       -0.6269531250,        0.3789062500,        0.0405273438,        8.5449218750,       10.9863281250,      -26.7486572266
1494035526.6376430988,       -0.6269531250,        0.3789062500,        0.0405273438,        6.2408447266,       11.5509033203,      -27.9388427734
1494035526.6401970387,       -0.5742187500,        0.4384765625,        0.0131835938,        6.2408447266,       11.5509033203,      -27.9388427734
1494035526.6427490711,       -0.5742187500,        0.4384765625,        0.0131835938,        2.3345947266,       11.3830566406,      -29.3884277344
1494035526.6454770565,       -0.5742187500,        0.4384765625,        0.0131835938,        3.3874511719,       11.3830566406,      -29.3884277344
1494035526.6481750011,       -0.5742187500,        0.4384765625,       -0.1118164062,        3.3874511719,       11.6729736328,      -31.2652587891
1494035526.6508729458,       -0.4965820312,        0.4741210938,       -0.0117187500,        1.5563964844,       11.6729736328,      -31.2652587891
1494035526.6535789967,       -0.4965820312,        0.4741210938,       -0.0117187500,        1.5563964844,       12.0849609375,      -34.1033935547
1494035526.6562759876,       -0.4965820312,        0.4741210938,       -0.0117187500,        0.9613037109,       12.0849609375,      -34.1033935547
1494035526.6589770317,       -0.4965820312,        0.5000000000,        0.0092773438,        0.9613037109,       12.4969482422,      -37.3687744141
1494035526.6616730690,       -0.5268554688,        0.5000000000,        0.0092773438,       -0.6103515625,       12.4969482422,      -37.3687744141
1494035526.6643800735,       -0.5268554688,        0.5000000000,        0.0092773438,       -0.6103515625,       13.2141113281,      -40.3137207031
1494035526.6670770645,       -0.5268554688,        0.5000000000,        0.0092773438,       -1.9378662109,       13.2141113281,      -40.3137207031
1494035526.6697719097,       -0.6069335938,        0.4555664062,        0.0107421875,       -1.9378662109,       13.2141113281,      -42.8924560547
1494035526.6724710464,       -0.6069335938,        0.4555664062,        0.0107421875,       -2.0294189453,       13.5345458984,      -42.8924560547
1494035526.6750800610,       -0.6069335938,        0.4555664062,        0.0107421875,       -2.0294189453,       13.5345458984,      -44.9523925781
1494035526.6776359081,       -0.6069335938,        0.4555664062,        0.0107421875,       -2.8228759766,       12.9394531250,      -44.9523925781
1494035526.6801860332,       -0.6396484375,        0.4033203125,        0.0273437500,       -2.8228759766,       12.9394531250,      -48.8586425781
1494035526.6827430725,       -0.6396484375,        0.4033203125,        0.0273437500,       -3.5095214844,       11.8713378906,      -46.9360351562
1494035526.6854829788,       -0.6396484375,        0.4033203125,        0.0273437500,       -3.5095214844,       11.8713378906,      -46.9360351562
1494035526.6882910728,       -0.6396484375,        0.4033203125,        0.0273437500,       -4.0740966797,       10.8795166016,      -48.5687255859
1494035526.6909940243,       -0.6425781250,        0.4218750000,        0.0405273438,       -4.0740966797,       10.8795166016,      -48.5687255859
1494035526.6936988831,       -0.6425781250,        0.4218750000,        0.0405273438,       -4.2724609375,        9.7198486328,      -50.3387451172
1494035526.6963920593,       -0.6425781250,        0.4218750000,        0.0405273438,       -4.2724609375,        9.7198486328,      -54.2449951172
1494035526.6990869045,       -0.6425781250,        0.2968750000,        0.0083007812,       -3.8757324219,        8.6364746094,      -52.0172119141
1494035526.7017788887,       -0.6733398438,        0.3637695312,        0.0083007812,       -3.8757324219,        8.6364746094,      -52.0172119141
1494035526.7044789791,       -0.6733398438,        0.3637695312,        0.0083007812,       -3.6010742188,        7.7362060547,      -52.2308349609
1494035526.7071769238,       -0.6733398438,        0.3637695312,        0.0083007812,       -3.6010742188,        7.7362060547,      -52.2308349609
1494035526.7098720074,       -0.7255859375,        0.2480468750,       -0.0224609375,       -3.9825439453,        6.3323974609,      -52.0477294922
1494035526.7125608921,       -0.7255859375,        0.2480468750,       -0.0224609375,       -3.9825439453,        6.3323974609,      -52.0477294922
1494035526.7152640820,       -0.7255859375,        0.2480468750,       -0.0224609375,       -4.3487548828,        5.2490234375,      -52.3071289062
1494035526.7179539204,       -0.7255859375,        0.2480468750,       -0.0224609375,       -4.3487548828,        5.2490234375,      -52.3071289062
1494035526.7206408978,       -0.7377929688,        0.2895507812,        0.0063476562,       -4.8828125000,        4.6081542969,      -52.1697998047
1494035526.7233190536,       -0.7377929688,        0.2895507812,        0.0063476562,       -4.8828125000,        4.6081542969,      -52.1697998047
1494035526.7258710861,       -0.7377929688,        0.2895507812,        0.0063476562,       -4.5318603516,        3.0212402344,      -51.4221191406
1494035526.7284240723,       -0.7377929688,        0.2895507812,        0.0063476562,       -4.5318603516,        3.0212402344,      -51.4221191406
1494035526.7309749126,       -0.7036132812,        0.3100585938,        0.0317382812,       -3.0822753906,        1.5869140625,      -50.2014160156
1494035526.7335650921,       -0.7036132812,        0.3100585938,        0.0317382812,       -3.0822753906,        1.5869140625,      -50.2014160156
1494035526.7362580299,       -0.7036132812,        0.3100585938,        0.0317382812,       -0.2441406250,        0.1525878906,      -49.5452880859
1494035526.7389469147,       -0.7036132812,        0.3100585938,        0.0317382812,       -0.2441406250,        0.1525878906,      -49.5452880859
1494035526.7416379452,       -0.6660156250,        0.2978515625,        0.0800781250,        4.0588378906,       -1.6784667969,      -49.5910644531
1494035526.7443380356,       -0.6660156250,        0.2978515625,        0.0800781250,        4.0588378906,       -1.6784667969,      -49.5910644531
1494035526.7470319271,       -0.6660156250,        0.2978515625,        0.0800781250,        9.7351074219,       -3.6163330078,      -50.2471923828
1494035526.7497210503,       -0.6660156250,        0.2963867188,        0.0986328125,        9.7351074219,       -3.6163330078,      -50.2471923828
1494035526.7524180412,       -0.6801757812,        0.2963867188,        0.0986328125,       16.0369873047,       -5.6304931641,      -51.4678955078
1494035526.7551259995,       -0.6801757812,        0.2963867188,        0.0986328125,       16.0369873047,       -5.6304931641,      -51.4678955078
1494035526.7578179836,       -0.6801757812,        0.2963867188,        0.0986328125,       21.4691162109,       -7.5531005859,      -51.4221191406
1494035526.7605140209,       -0.7250976562,        0.2817382812,        0.0859375000,       21.4691162109,       -7.5531005859,      -51.4221191406
1494035526.7633259296,       -0.7250976562,        0.2817382812,        0.0859375000,       25.9704589844,       -8.6059570312,      -51.2695312500
1494035526.7660219669,       -0.7250976562,        0.2817382812,        0.0859375000,       25.9704589844,       -8.6059570312,      -51.2695312500
1494035526.7687189579,       -0.7250976562,        0.2817382812,        0.0859375000,       29.3884277344,       -8.3770751953,      -49.5300292969
1494035526.7714149952,       -0.7666015625,        0.2792968750,        0.0585937500,       29.3884277344,       -8.3770751953,      -49.5300292969
1494035526.7740819454,       -0.7666015625,        0.2792968750,        0.0585937500,       31.9824218750,       -8.4533691406,      -46.7224121094
1494035526.7766420841,       -0.7666015625,        0.2792968750,        0.0585937500,       31.9824218750,       -8.4533691406,      -46.7224121094
1494035526.7791969776,       -0.7666015625,        0.2792968750,        0.0585937500,       34.2712402344,       -8.7127685547,      -43.2281494141
1494035526.7817509174,       -0.7744140625,        0.2294921875,        0.0673828125,       34.2712402344,       -8.7127685547,      -43.2281494141
1494035526.7844209671,       -0.7744140625,        0.2294921875,        0.0673828125,       38.1774902344,       -8.8653564453,      -39.7644042969
1494035526.7871170044,       -0.7744140625,        0.2294921875,        0.0673828125,       37.2924804688,       -8.8653564453,      -39.7644042969
1494035526.7898058891,       -0.7744140625,        0.2294921875,        0.0932617188,       41.1987304688,      -10.2386474609,      -36.9567871094
1494035526.7924990654,       -0.7456054688,        0.1889648438,        0.0932617188,       39.1235351562,      -10.2386474609,      -36.9567871094
1494035526.7952001095,       -0.7456054688,        0.1889648438,        0.0932617188,       39.1235351562,      -11.0778808594,      -34.5916748047
1494035526.7978971004,       -0.7456054688,        0.1889648438,        0.0932617188,       39.7796630859,      -11.0778808594,      -34.5916748047
1494035526.8005940914,       -0.8706054688,        0.2817382812,        0.0932617188,       43.6859130859,      -10.0402832031,      -31.6467285156
1494035526.8033089638,       -0.7622070312,        0.2817382812,        0.0932617188,       43.6553955078,      -10.0402832031,      -31.6467285156
1494035526.8060119152,       -0.7622070312,        0.2817382812,        0.0932617188,       43.6553955078,       -8.4838867188,      -28.7475585938
1494035526.8087079525,       -0.7622070312,        0.2817382812,        0.0932617188,       48.4619140625,       -8.4838867188,      -28.7475585938
1494035526.8114039898,       -0.8632812500,        0.2392578125,        0.0634765625,       48.4619140625,       -7.9498291016,      -23.9410400391
1494035526.8141150475,       -0.8632812500,        0.2392578125,        0.0634765625,       53.1005859375,       -7.9498291016,      -23.9410400391
1494035526.8168139458,       -0.8632812500,        0.2392578125,        0.0634765625,       53.1005859375,       -7.2326660156,      -18.2800292969
1494035526.8195109367,       -0.8632812500,        0.2392578125,        0.0634765625,       56.3812255859,       -7.2326660156,      -18.2800292969
1494035526.8222069740,       -0.8701171875,        0.1445312500,        0.0561523438,       56.3812255859,      -11.1389160156,      -13.7481689453
1494035526.8248300552,       -0.8701171875,        0.1445312500,        0.0561523438,       54.7180175781,       -7.9956054688,      -13.7481689453
1494035526.8273839951,       -0.8701171875,        0.1445312500,        0.0561523438,       54.7180175781,       -7.9956054688,      -10.6353759766
1494035526.8299379349,       -0.8701171875,        0.1445312500,        0.0561523438,       55.1605224609,       -8.0566406250,      -10.6353759766
1494035526.8324909210,       -0.7934570312,        0.1948242188,        0.0893554688,       55.1605224609,       -8.0566406250,       -6.7291259766
1494035526.8352949619,       -0.7934570312,        0.1948242188,        0.0893554688,       58.8226318359,      -10.3912353516,       -7.5836181641
1494035526.8379909992,       -0.7934570312,        0.1948242188,        0.0893554688,       58.8226318359,      -10.3912353516,       -3.6773681641
1494035526.8406810760,       -0.7934570312,        0.3388671875,       -0.0068359375,       71.3653564453,      -14.9383544922,       -3.0517578125
1494035526.8434259892,       -0.7480468750,        0.3388671875,       -0.0068359375,       71.3653564453,      -14.9383544922,       -3.0517578125
1494035526.8461160660,       -0.7480468750,        0.3388671875,       -0.0068359375,       58.3648681641,       -3.5552978516,       -0.0915527344
1494035526.8488121033,       -0.7480468750,        0.3388671875,       -0.0068359375,       58.3648681641,       -3.5552978516,        3.8146972656
1494035526.8515019417,       -0.7846679688,        0.2148437500,        0.0043945312,       56.7779541016,       -0.6408691406,        3.4027099609
1494035526.8541979790,       -0.7846679688,        0.2148437500,        0.0043945312,       56.7779541016,       -0.6408691406,        7.3089599609
1494035526.8568899632,       -0.7846679688,        0.2148437500,        0.0043945312,       56.9458007812,        1.4190673828,        4.3792724609
1494035526.8595778942,       -0.7846679688,        0.2148437500,        0.0043945312,       56.9458007812,        1.4190673828,        4.3792724609
1494035526.8622701168,       -0.8491210938,        0.2578125000,        0.0170898438,       60.6231689453,        0.0457763672,        2.8686523438
1494035526.8649740219,       -0.8491210938,        0.2578125000,        0.0170898438,       60.6231689453,        0.0457763672,        2.8686523438
1494035526.8676660061,       -0.8491210938,        0.2578125000,        0.0170898438,       61.7675781250,        0.8697509766,        3.9520263672
1494035526.8703570366,       -0.8491210938,        0.2578125000,       -0.0517578125,       61.7675781250,        0.8697509766,        3.9520263672
1494035526.8730540276,       -0.8779296875,        0.3535156250,       -0.0517578125,       58.5327148438,        5.7983398438,        7.4768066406
1494035526.8756239414,       -0.8779296875,        0.3535156250,       -0.0517578125,       58.5327148438,        5.7983398438,        7.4768066406
1494035526.8781769276,       -0.8779296875,        0.3535156250,       -0.0517578125,       55.8776855469,       10.4064941406,       11.0473632812
1494035526.8807389736,       -0.8779296875,        0.3535156250,       -0.0844726562,       55.8776855469,       10.4064941406,       11.0473632812
1494035526.8833060265,       -0.8935546875,        0.3422851562,       -0.0844726562,       54.0313720703,       13.8397216797,       12.5732421875
1494035526.8860089779,       -0.8935546875,        0.3422851562,       -0.0844726562,       54.0313720703,       13.8397216797,       12.5732421875
1494035526.8887059689,       -0.8935546875,        0.3422851562,       -0.0844726562,       54.9926757812,       16.5557861328,       12.6800537109
1494035526.8914029598,       -0.8935546875,        0.2631835938,       -0.0424804688,       54.9926757812,       16.5557861328,       12.6800537109
1494035526.8941090107,       -0.9921875000,        0.2631835938,       -0.0424804688,       54.1992187500,       16.9372558594,       11.2762451172
1494035526.8968079090,       -0.9921875000,        0.2631835938,       -0.0424804688,       54.1992187500,       16.9372558594,       11.2762451172
1494035526.8995079994,       -0.9921875000,        0.2631835938,       -0.0424804688,       47.7905273438,       13.5192871094,        7.9803466797
1494035526.9022009373,       -0.9721679688,        0.2006835938,       -0.0180664062,       47.7905273438,       13.5192871094,        7.9803466797
1494035526.9049100876,       -0.9721679688,        0.2006835938,       -0.0180664062,       40.4968261719,        9.9334716797,        9.0332031250
1494035526.9076070786,       -0.9721679688,        0.2006835938,       -0.0180664062,       40.4968261719,        9.9334716797,        9.0332031250
1494035526.9104321003,       -0.9721679688,        0.2006835938,        0.1069335938,       35.8886718750,        7.7819824219,       13.3514404297
1494035526.9131000042,       -1.0185546875,        0.2070312500,        0.0302734375,       35.8886718750,        7.7819824219,       13.3514404297
1494035526.9157431126,       -1.0185546875,        0.2070312500,        0.0302734375,       38.6962890625,        2.5024414062,       18.6157226562
1494035526.9183011055,       -1.0185546875,        0.2070312500,        0.0302734375,       38.6962890625,        2.5024414062,       18.6157226562
1494035526.9208850861,       -1.0185546875,        0.2070312500,       -0.0268554688,       41.9616699219,       -1.6632080078,       24.1241455078
1494035526.9234960079,       -1.0712890625,        0.2651367188,       -0.0268554688,       41.9616699219,       -1.6632080078,       24.1241455078
1494035526.9261949062,       -1.0712890625,        0.2651367188,       -0.0268554688,       40.8935546875,       -0.5340576172,       27.2827148438
1494035526.9288930893,       -1.0712890625,        0.2651367188,       -0.0268554688,       40.8935546875,       -0.5340576172,       27.2827148438
1494035526.9315950871,       -1.1962890625,        0.2373046875,       -0.0317382812,       46.7681884766,       -1.3885498047,       32.2113037109
1494035526.9343039989,       -1.1577148438,        0.2373046875,       -0.0317382812,       46.7681884766,       -1.3885498047,       32.2113037109
1494035526.9369940758,       -1.1577148438,        0.2373046875,       -0.0317382812,       50.0793457031,       -1.2054443359,       35.8886718750
1494035526.9396939278,       -1.1577148438,        0.2373046875,       -0.0317382812,       50.0793457031,       -1.2054443359,       35.8886718750
1494035526.9423871040,       -1.0654296875,        0.1328125000,       -0.0361328125,       51.5441894531,       -2.6550292969,       40.8172607422
1494035526.9450900555,       -1.0654296875,        0.1328125000,       -0.0361328125,       51.5441894531,       -2.6550292969,       40.8172607422
1494035526.9477849007,       -1.0654296875,        0.1328125000,       -0.0361328125,       50.5981445312,       -3.9978027344,       44.0673828125
1494035526.9504780769,       -1.0654296875,        0.1328125000,       -0.0361328125,       50.5981445312,       -3.9978027344,       44.0673828125
1494035526.9531810284,       -1.0532226562,        0.1108398438,       -0.0952148438,       48.0804443359,       -5.8898925781,       49.0722656250
1494035526.9558849335,       -1.0532226562,        0.1108398438,       -0.0952148438,       48.0804443359,       -5.8898925781,       49.0722656250
1494035526.9588389397,       -1.0532226562,        0.1108398438,       -0.0952148438,       47.1801757812,       -6.2713623047,       54.4586181641
1494035526.9615459442,       -1.0532226562,        0.1108398438,       -0.1235351562,       47.1801757812,       -6.2713623047,       54.4586181641
1494035526.9642379284,       -1.0976562500,        0.0966796875,       -0.1235351562,       50.4302978516,       -5.7373046875,       60.1654052734
1494035526.9667930603,       -1.0976562500,        0.0966796875,       -0.1235351562,       50.4302978516,       -5.7373046875,       60.1654052734
1494035526.9693529606,       -1.0976562500,        0.0966796875,       -0.1235351562,       50.4302978516,       -4.4555664062,       65.0177001953
1494035526.9719130993,       -1.0976562500,       -0.0078125000,       -0.1435546875,       53.1158447266,       -4.4555664062,       65.0177001953
1494035526.9745559692,       -1.1020507812,       -0.0078125000,       -0.1435546875,       53.1158447266,       -4.4555664062,       70.7550048828
1494035526.9772610664,       -1.1020507812,       -0.0078125000,       -0.1435546875,       52.7191162109,       -4.8217773438,       70.7550048828
1494035526.9799609184,       -1.1020507812,       -0.0078125000,       -0.1435546875,       52.7191162109,       -4.8217773438,       77.9418945312
1494035526.9826579094,       -1.0849609375,       -0.0024414062,       -0.0986328125,       50.3234863281,       -6.3018798828,       77.9418945312
1494035526.9854960442,       -1.0849609375,       -0.0024414062,       -0.0986328125,       50.3234863281,       -8.7738037109,       84.0301513672
1494035526.9881949425,       -1.0849609375,       -0.0024414062,       -0.0986328125,       50.3234863281,       -8.7738037109,       84.0301513672
1494035526.9909000397,       -1.0849609375,       -0.0024414062,       -0.0986328125,       50.3234863281,       -8.7738037109,       88.1805419922
1494035526.9935860634,       -1.1821289062,       -0.0854492188,        0.0122070312,       54.9316406250,      -11.5814208984,       88.1805419922
1494035526.9961490631,       -1.1821289062,       -0.0854492188,        0.0122070312,       54.9316406250,      -11.5814208984,       93.3685302734
1494035526.9987161160,       -1.1821289062,       -0.0854492188,        0.0122070312,       61.3555908203,      -14.2822265625,       93.3685302734
1494035527.0012810230,       -1.1821289062,       -0.0854492188,        0.0122070312,       61.3555908203,      -14.2822265625,      101.1810302734
1494035527.0039780140,       -1.2241210938,       -0.3037109375,        0.0942382812,       60.0280761719,      -17.8527832031,       99.9298095703
1494035527.0065469742,       -1.2241210938,       -0.3037109375,        0.0942382812,       60.0280761719,      -17.8527832031,       99.9298095703
1494035527.0091080666,       -1.2241210938,       -0.3037109375,        0.0942382812,       52.9479980469,      -22.9644775391,      108.9630126953
1494035527.0116701126,       -1.2241210938,       -0.3037109375,        0.2036132812,       52.9479980469,      -22.9644775391,      108.9630126953
1494035527.0143630505,       -1.2065429688,       -0.2714843750,        0.2036132812,       44.3725585938,      -28.3966064453,      120.8496093750
1494035527.0169229507,       -1.2065429688,       -0.2714843750,        0.2036132812,       44.3725585938,      -28.3966064453,      120.8496093750
1494035527.0194869041,       -1.2065429688,       -0.2714843750,        0.2036132812,       40.1153564453,      -33.5693359375,      132.7972412109
1494035527.0220439434,       -1.2065429688,       -0.1464843750,        0.2456054688,       40.1153564453,      -33.5693359375,      132.7972412109
1494035527.0247149467,       -1.5112304688,       -0.1684570312,        0.2456054688,       35.9649658203,      -37.0483398438,      144.0582275391
1494035527.0274040699,       -1.5112304688,       -0.1684570312,        0.2456054688,       35.9649658203,      -37.0483398438,      144.0582275391
1494035527.0300910473,       -1.5112304688,       -0.1684570312,        0.2456054688,       25.8331298828,      -36.6058349609,      157.6690673828
1494035527.0327830315,       -1.9448242188,        0.0527343750,        0.1918945312,       25.8331298828,      -36.6058349609,      157.6690673828
1494035527.0354781151,       -1.9448242188,        0.0527343750,        0.1918945312,       15.9606933594,      -34.7747802734,      174.8504638672
1494035527.0381679535,       -1.9448242188,        0.0527343750,        0.1918945312,       15.9606933594,      -34.7747802734,      174.8504638672
1494035527.0408608913,       -1.9448242188,        0.0527343750,        0.1918945312,        9.9182128906,      -36.1633300781,      196.1669921875
1494035527.0435729027,       -2.1298828125,        0.6782226562,        0.4804687500,        9.9182128906,      -36.1633300781,      196.1669921875
1494035527.0464949608,       -2.1298828125,        0.6782226562,        0.4804687500,        3.4942626953,      -40.8630371094,      215.6829833984
1494035527.0491969585,       -2.1298828125,        0.6782226562,        0.4804687500,        3.4942626953,      -40.8630371094,      215.6829833984
1494035527.0518970490,       -2.1298828125,        0.6782226562,        0.4804687500,       11.2915039062,      -43.9300537109,      237.6098632812
1494035527.0546069145,       -2.3603515625,        1.7543945312,        0.3808593750,       11.2915039062,      -43.9300537109,      237.6098632812
1494035527.0574190617,       -2.3603515625,        1.7543945312,        0.3808593750,       16.0064697266,      -42.2668457031,      268.5089111328
1494035527.0601239204,       -2.3603515625,        1.7543945312,        0.3808593750,       16.0064697266,      -42.2668457031,      268.5089111328
1494035527.0628259182,       -2.4853515625,        2.6972656250,        0.2905273438,        7.5531005859,      -37.7044677734,      299.0722656250
1494035527.0654189587,       -2.4541015625,        2.6972656250,        0.2905273438,        7.5531005859,      -37.7044677734,      299.0722656250
1494035527.0679759979,       -2.4541015625,        2.6972656250,        0.2905273438,       -1.1901855469,      -23.8342285156,      310.0280761719
1494035527.0705320835,       -2.4541015625,        2.6972656250,        0.2905273438,       -1.1901855469,      -23.8342285156,      310.0280761719
1494035527.0730869770,       -2.2783203125,        2.1269531250,        0.1811523438,        9.4451904297,       -8.4381103516,      309.6618652344
1494035527.0758309364,       -2.2783203125,        2.1269531250,        0.1811523438,        9.4451904297,       -8.4381103516,      309.6618652344
1494035527.0785179138,       -2.2783203125,        2.1269531250,        0.1811523438,       15.9149169922,       -8.1329345703,      309.0820312500
1494035527.0812120438,       -2.2783203125,        2.1269531250,        0.1811523438,       15.9149169922,       -8.1329345703,      309.0820312500
1494035527.0839219093,       -2.1933593750,        1.6494140625,        0.2451171875,       10.2996826172,       -3.5552978516,      298.4466552734
1494035527.0866110325,       -2.1933593750,        1.6494140625,        0.2451171875,       10.2996826172,       -3.5552978516,      298.4466552734
1494035527.0893049240,       -2.1933593750,        1.6494140625,        0.2451171875,        8.5144042969,       13.1530761719,      295.9594726562
1494035527.0920040607,       -2.1933593750,        1.6494140625,        0.2451171875,        8.5144042969,       13.1530761719,      295.9594726562
1494035527.0947060585,       -2.1992187500,        1.1347656250,       -0.0913085938,       13.9160156250,       13.3361816406,      299.4995117188
1494035527.0974121094,       -2.1992187500,        1.1347656250,       -0.0913085938,       13.9160156250,       13.3361816406,      299.4995117188
1494035527.1001091003,       -2.1992187500,        1.1347656250,       -0.0913085938,       13.9160156250,       18.5089111328,      298.3398437500
1494035527.1028029919,       -2.1992187500,        0.7597656250,       -0.1308593750,       15.0146484375,       18.5089111328,      298.3398437500
1494035527.1055169106,       -1.9345703125,        0.8442382812,       -0.1308593750,       15.0146484375,       25.0091552734,      290.0543212891
1494035527.1082150936,       -1.9345703125,        0.8442382812,       -0.1308593750,       15.2587890625,       25.0091552734,      290.0543212891
1494035527.1109080315,       -1.9345703125,        0.8442382812,       -0.1308593750,       11.3525390625,       35.6903076172,      282.1044921875
1494035527.1135950089,       -1.6733398438,        0.6025390625,       -0.1352539062,       10.8337402344,       35.6903076172,      282.1044921875
1494035527.1161580086,       -1.6733398438,        0.6025390625,       -0.1352539062,       10.8337402344,       35.6903076172,      271.7742919922
1494035527.1187210083,       -1.6733398438,        0.6025390625,       -0.1352539062,       -1.8005371094,       36.7736816406,      271.7742919922
1494035527.1212739944,       -1.6733398438,        0.6025390625,       -0.1352539062,       -1.8005371094,       36.7736816406,      262.8631591797
1494035527.1239039898,       -1.4267578125,        0.3657226562,       -0.0297851562,      -19.0582275391,       37.9943847656,      262.8631591797
1494035527.1266100407,       -1.4267578125,        0.3657226562,       -0.0297851562,      -19.0582275391,       37.9943847656,      252.0904541016
1494035527.1293079853,       -1.4267578125,        0.3657226562,       -0.0297851562,      -44.6166992188,       46.6918945312,      252.0904541016
1494035527.1321260929,       -1.4267578125,        0.3657226562,       -0.0297851562,      -44.6166992188,       46.6918945312,      238.5253906250
1494035527.1348779202,       -1.2392578125,        0.1596679688,        0.0000000000,      -73.2116699219,       51.8035888672,      238.5253906250
1494035527.1375811100,       -1.2392578125,        0.1596679688,        0.0000000000,      -73.2116699219,       51.8035888672,      221.0998535156
1494035527.1402859688,       -1.2392578125,        0.1596679688,        0.0000000000,      -96.2219238281,       53.7414550781,      221.0998535156
1494035527.1429851055,       -1.2392578125,        0.1596679688,       -0.0571289062,      -96.2219238281,       53.7414550781,      201.3397216797
1494035527.1456959248,       -0.9160156250,        0.0742187500,       -0.0571289062,     -109.9395751953,       55.5267333984,      201.3397216797
1494035527.1483929157,       -0.9160156250,        0.0742187500,       -0.0571289062,     -109.9395751953,       55.5267333984,      181.1065673828
1494035527.1510970592,       -0.9160156250,        0.0742187500,       -0.0571289062,     -116.9891357422,       59.1125488281,      181.1065673828
1494035527.1537990570,       -0.5751953125,       -0.0302734375,       -0.1289062500,     -116.9891357422,       59.1125488281,      163.5742187500
1494035527.1565079689,       -0.5751953125,       -0.0302734375,       -0.1289062500,     -117.9351806641,       62.6373291016,      163.5742187500
1494035527.1592121124,       -0.5751953125,       -0.0302734375,       -0.1289062500,     -117.9351806641,       62.6373291016,      142.6849365234
1494035527.1619119644,       -0.5751953125,       -0.0302734375,       -0.1289062500,     -114.7766113281,       59.0515136719,      142.6849365234
1494035527.1645419598,       -0.3051757812,       -0.1118164062,       -0.1518554688,     -114.7766113281,       59.0515136719,      127.0599365234
1494035527.1671009064,       -0.3051757812,       -0.1118164062,       -0.1518554688,     -102.6306152344,       58.0444335938,      125.4272460938
1494035527.1696650982,       -0.3051757812,       -0.1118164062,       -0.1518554688,     -102.6306152344,       58.0444335938,      125.4272460938
1494035527.1722280979,       -0.3051757812,       -0.1118164062,       -0.1518554688,      -87.9821777344,       65.0482177734,      115.5700683594
1494035527.1749138832,       -0.2314453125,       -0.2250976562,       -0.2299804688,      -87.9821777344,       65.0482177734,      115.5700683594
1494035527.1776199341,       -0.2314453125,       -0.2250976562,       -0.2299804688,      -63.0187988281,       69.4885253906,       96.0235595703
1494035527.1803150177,       -0.2314453125,       -0.2250976562,       -0.2299804688,      -63.0187988281,       69.4885253906,       96.0235595703
1494035527.1830179691,       -0.2314453125,       -0.2250976562,       -0.3549804688,      -32.5927734375,       65.7196044922,       68.6798095703
1494035527.1857221127,        0.0625000000,       -0.7333984375,       -0.2509765625,      -32.5927734375,       65.7196044922,       68.6798095703
1494035527.1884169579,        0.0625000000,       -0.7333984375,       -0.2509765625,       -7.6751708984,       59.2956542969,       33.7982177734
1494035527.1911189556,        0.0625000000,       -0.7333984375,       -0.2509765625,       -7.6751708984,       59.2956542969,       33.7982177734
1494035527.1938550472,        0.0625000000,       -1.1669921875,       -0.2817382812,       12.5274658203,       57.4035644531,        2.1820068359
1494035527.1965470314,        0.2597656250,       -1.1669921875,       -0.2817382812,       12.5274658203,       57.4035644531,        2.1820068359
1494035527.1992490292,        0.2597656250,       -1.1669921875,       -0.2817382812,       19.3786621094,       56.9915771484,      -29.5410156250
1494035527.2019500732,        0.2597656250,       -1.1669921875,       -0.2817382812,       19.3786621094,       56.9915771484,      -29.5410156250
1494035527.2046949863,        0.4541015625,       -1.4560546875,       -0.3383789062,       21.2402343750,       59.0362548828,      -61.6607666016
1494035527.2075018883,        0.4541015625,       -1.4560546875,       -0.3383789062,       21.2402343750,       59.0362548828,      -61.6607666016
1494035527.2102029324,        0.4541015625,       -1.4560546875,       -0.3383789062,       22.9797363281,       61.2487792969,      -94.8791503906
1494035527.2129049301,        0.4541015625,       -1.4560546875,       -0.3383789062,       22.9797363281,       61.2487792969,      -94.8791503906
1494035527.2154800892,        0.5781250000,       -1.5458984375,       -0.3540039062,       21.6217041016,       63.2934570312,     -123.8098144531
1494035527.2180368900,        0.5781250000,       -1.5458984375,       -0.3540039062,       21.6217041016,       63.2934570312,     -123.8098144531
1494035527.2205929756,        0.5781250000,       -1.5458984375,       -0.3540039062,       16.3726806641,       64.4989013672,     -151.5808105469
1494035527.2231900692,        0.5781250000,       -1.5458984375,       -0.3540039062,       16.3726806641,       64.4989013672,     -151.5808105469
1494035527.2258911133,        0.5190429688,       -1.5078125000,       -0.3496093750,       11.0321044922,       65.2160644531,     -180.4962158203
1494035527.2285869122,        0.5190429688,       -1.5078125000,       -0.3496093750,       11.0321044922,       65.2160644531,     -180.4962158203
1494035527.2312860489,        0.5190429688,       -1.5078125000,       -0.3496093750,        1.8310546875,       65.2770996094,     -205.9173583984
1494035527.2339909077,        0.5190429688,       -1.3828125000,       -0.2695312500,        1.8310546875,       65.2770996094,     -205.9173583984
1494035527.2366828918,        0.3618164062,       -1.4599609375,       -0.2695312500,       -8.4838867188,       67.4896240234,     -228.3630371094
1494035527.2393770218,        0.3618164062,       -1.4599609375,       -0.2695312500,       -8.4838867188,       67.4896240234,     -228.3630371094
1494035527.2420780659,        0.3618164062,       -1.4599609375,       -0.2695312500,      -20.6909179688,       68.3441162109,     -249.9542236328
1494035527.2447860241,        0.3256835938,       -1.2578125000,       -0.1635742188,      -20.6909179688,       68.3441162109,     -249.9542236328
1494035527.2474889755,        0.3256835938,       -1.2578125000,       -0.1635742188,      -29.0527343750,       69.1833496094,     -270.0195312500
1494035527.2501890659,        0.3256835938,       -1.2578125000,       -0.1635742188,      -29.0527343750,       69.1833496094,     -270.0195312500
1494035527.2528910637,        0.3256835938,       -1.2578125000,       -0.1635742188,      -32.8826904297,       68.0694580078,     -286.5447998047
1494035527.2554829121,        0.3002929688,       -0.9868164062,       -0.0800781250,      -32.8826904297,       68.0694580078,     -286.5447998047
1494035527.2580471039,        0.3002929688,       -0.9868164062,       -0.0800781250,      -28.9764404297,       68.9239501953,     -299.0875244141
1494035527.2606089115,        0.3002929688,       -0.9868164062,       -0.0800781250,      -30.1208496094,       68.9239501953,     -299.0875244141
1494035527.2632029057,        0.3002929688,       -0.9868164062,       -0.0800781250,      -30.1208496094,       68.5577392578,     -311.2182617188
1494035527.2659070492,        0.1865234375,       -0.6943359375,        0.0253906250,      -23.0255126953,       68.5577392578,     -311.2182617188
1494035527.2686109543,        0.1865234375,       -0.6943359375,        0.0253906250,      -23.0255126953,       64.7277832031,     -319.9768066406
1494035527.2713119984,        0.1865234375,       -0.6943359375,        0.0253906250,      -14.0686035156,       64.7277832031,     -319.9768066406
1494035527.2740530968,        0.1865234375,       -0.6943359375,        0.1030273438,      -14.0686035156,       60.7147216797,     -324.6154785156
1494035527.2767601013,        0.1669921875,       -0.3554687500,        0.1030273438,       -3.5095214844,       60.7147216797,     -324.6154785156
1494035527.2795588970,        0.1669921875,       -0.3554687500,        0.1030273438,       -3.5095214844,       53.9245605469,     -327.3162841797
1494035527.2822580338,        0.1669921875,       -0.3554687500,        0.1030273438,        8.0261230469,       53.9245605469,     -327.3162841797
1494035527.2849729061,        0.0917968750,       -0.0541992188,        0.1445312500,        8.0261230469,       48.3551025391,     -328.4301757812
1494035527.2876739502,        0.0917968750,       -0.0541992188,        0.1445312500,       21.3775634766,       48.3551025391,     -328.4301757812
1494035527.2903780937,        0.0917968750,       -0.0541992188,        0.1445312500,       21.3775634766,       41.1529541016,     -326.2786865234
1494035527.2930760384,        0.0917968750,       -0.0541992188,        0.1445312500,       30.2124023438,       41.1529541016,     -326.2786865234
1494035527.2956600189,        0.0878906250,        0.1059570312,        0.0454101562,       30.2124023438,       37.2467041016,     -322.3724365234
1494035527.2982249260,        0.0878906250,        0.1059570312,        0.0454101562,       34.5153808594,       35.8123779297,     -322.3724365234
1494035527.3007819653,        0.0878906250,        0.1059570312,        0.0454101562,       34.5153808594,       35.8123779297,     -318.4661865234
1494035527.3033978939,        0.0878906250,        0.1059570312,        0.0454101562,       29.9224853516,       34.8815917969,     -317.7490234375
1494035527.3061060905,        0.1337890625,        0.3173828125,        0.0419921875,       29.9224853516,       34.8815917969,     -313.8427734375
1494035527.3088059425,        0.1337890625,        0.3173828125,        0.0419921875,       25.0701904297,       36.9110107422,     -312.5762939453
1494035527.3115139008,        0.1337890625,        0.3173828125,        0.0419921875,       25.0701904297,       36.9110107422,     -304.5654296875
1494035527.3142819405,        0.1337890625,        0.3173828125,       -0.0034179688,       20.5993652344,       36.5142822266,     -304.5654296875
1494035527.3169860840,        0.1733398438,        0.5039062500,       -0.0034179688,       20.5993652344,       36.5142822266,     -296.7529296875
1494035527.3196868896,        0.1733398438,        0.5039062500,       -0.0034179688,       13.0157470703,       34.4696044922,     -293.0603027344
1494035527.3223829269,        0.1733398438,        0.5039062500,       -0.0034179688,       13.0157470703,       34.4696044922,     -277.4353027344
1494035527.3250880241,        0.1733398438,        0.8544921875,        0.0600585938,        6.8054199219,       31.9061279297,     -280.9448242188
1494035527.3277900219,        0.2622070312,        0.8544921875,        0.0600585938,        6.8054199219,       31.9061279297,     -269.2260742188
1494035527.3304870129,        0.2622070312,        0.8544921875,        0.0600585938,        2.6855468750,       29.8461914062,     -268.5394287109
1494035527.3331940174,        0.2622070312,        0.8544921875,        0.0600585938,        2.6855468750,       29.8461914062,     -268.5394287109
1494035527.3357520103,        0.4633789062,        1.1699218750,        0.1699218750,       -0.4425048828,       28.5339355469,     -255.0964355469
1494035527.3383090496,        0.4633789062,        1.1699218750,        0.1699218750,       -0.4425048828,       28.5339355469,     -255.0964355469
1494035527.3408648968,        0.4633789062,        1.1699218750,        0.1699218750,       -2.0751953125,       25.1312255859,     -240.3106689453
1494035527.3434770107,        0.4633789062,        1.1699218750,        0.1699218750,       -2.0751953125,       25.1312255859,     -240.3106689453
1494035527.3461730480,        0.5512695312,        1.1533203125,        0.1591796875,        1.4495849609,       20.1873779297,     -229.0649414062
1494035527.3488750458,        0.5512695312,        1.1533203125,        0.1591796875,        1.4495849609,       20.1873779297,     -229.0649414062
1494035527.3515601158,        0.5512695312,        1.1533203125,        0.1591796875,       11.5966796875,       16.4337158203,     -227.2338867188
1494035527.3543829918,        0.5512695312,        1.1533203125,        0.1591796875,       11.5966796875,       16.4337158203,     -227.2338867188
1494035527.3570799828,        0.5073242188,        1.2343750000,        0.0942382812,       16.2048339844,       13.9923095703,     -226.0894775391
1494035527.3597779274,        0.5073242188,        1.2343750000,        0.0942382812,       16.2048339844,       13.9923095703,     -226.0894775391
1494035527.3624849319,        0.5073242188,        1.2343750000,        0.0942382812,        9.5977783203,       12.4969482422,     -219.5281982422
1494035527.3651869297,        0.5073242188,        1.3808593750,        0.0561523438,        9.5977783203,       12.4969482422,     -219.5281982422
1494035527.3678820133,        0.7412109375,        1.3808593750,        0.0561523438,        2.1514892578,       11.8103027344,     -209.6557617188
1494035527.3705780506,        0.7412109375,        1.3808593750,        0.0561523438,        2.1514892578,       11.8103027344,     -209.6557617188
1494035527.3732759953,        0.7412109375,        1.3808593750,        0.0561523438,       -5.5389404297,       16.2048339844,     -192.0318603516
1494035527.3759789467,        0.8344726562,        2.9067382812,       -0.0385742188,       -5.5389404297,       16.2048339844,     -192.0318603516
1494035527.3786768913,        0.8344726562,        2.9067382812,       -0.0385742188,       28.0914306641,       45.2117919922,     -187.1948242188
1494035527.3813738823,        0.8344726562,        2.9067382812,       -0.0385742188,       28.0914306641,       45.2117919922,     -187.1948242188
1494035527.3840479851,        0.8344726562,        2.9067382812,       -0.0385742188,      115.8752441406,       50.0793457031,       25.2990722656
1494035527.3866069317,        0.3476562500,       13.6308593750,        3.1894531250,      115.8752441406,       50.0793457031,       25.2990722656
1494035527.3891680241,        0.3476562500,       13.6308593750,        3.1894531250,       21.5911865234,       77.4993896484,       82.3669433594
1494035527.3917329311,        0.3476562500,       13.6308593750,        3.1894531250,       21.5911865234,       77.4993896484,       82.3669433594
1494035527.3943769932,        0.3476562500,       13.6308593750,        3.1894531250,     -205.1239013672,       30.0750732422,       45.0134277344
1494035527.3970830441,       -1.4824218750,        3.5917968750,        0.3227539062,     -205.1239013672,       30.0750732422,       45.0134277344
1494035527.3997809887,       -1.4824218750,        3.5917968750,        0.3227539062,     -174.3469238281,      -28.2287597656,      104.8736572266
1494035527.4024789333,       -1.4824218750,        3.5917968750,        0.3227539062,     -174.3469238281,      -28.2287597656,      104.8736572266
1494035527.4051880836,       -1.4824218750,        3.5917968750,       -0.5341796875,       35.4309082031,      -61.0198974609,       88.9434814453
1494035527.4078879356,       -2.7119140625,       -3.8022460938,       -0.5341796875,       35.4309082031,      -61.0198974609,       88.9434814453
1494035527.4105839729,       -2.7119140625,       -3.8022460938,       -0.5341796875,      155.8837890625,      -47.0733642578,       11.8408203125
1494035527.4132969379,       -2.7119140625,       -3.8022460938,       -0.5341796875,      155.8837890625,      -47.0733642578,       11.8408203125
1494035527.4159960747,       -4.8369140625,       -3.4858398438,       -0.0722656250,      130.3710937500,      -26.4434814453,        9.1857910156
1494035527.4186909199,       -4.7871093750,       -3.4858398438,       -0.0722656250,      130.3710937500,      -26.4434814453,        9.1857910156
1494035527.4213860035,       -4.7871093750,       -3.4858398438,       -0.0722656250,       -4.3182373047,        6.0272216797,       47.6226806641
1494035527.4240880013,       -4.7871093750,       -3.4858398438,       -0.0722656250,       -4.3182373047,        6.0272216797,       47.6226806641
1494035527.4267818928,       -2.5913085938,        1.7641601562,       -0.4541015625,     -134.3383789062,       10.2691650391,      104.7363281250
1494035527.4295918941,       -2.5913085938,        1.7641601562,       -0.4541015625,     -134.3383789062,       10.2691650391,      104.7363281250
1494035527.4322929382,       -2.5913085938,        1.7641601562,       -0.4541015625,     -121.6125488281,        6.6070556641,       67.7185058594
1494035527.4349019527,       -2.5913085938,        1.7641601562,       -0.4541015625,     -121.6125488281,        6.6070556641,       67.7185058594
1494035527.4374530315,        1.1870117188,        1.1381835938,       -0.4350585938,     -121.6125488281,       -6.1645507812,       40.6188964844
1494035527.4400138855,        1.1870117188,        1.1381835938,       -0.4350585938,      -69.6411132812,       -6.1645507812,       40.6188964844
1494035527.4425699711,        1.1870117188,        1.1381835938,       -0.4350585938,      -69.6411132812,      -10.0708007812,       51.1627197266
1494035527.4452869892,        1.1870117188,        1.1381835938,       -0.0600585938,      -32.4554443359,       -9.3841552734,       51.1627197266
1494035527.4479858875,        1.1269531250,        0.6396484375,       -0.0649414062,      -32.4554443359,       -9.3841552734,       44.8608398438
1494035527.4506819248,        1.1269531250,        0.6396484375,       -0.0649414062,      -22.6593017578,       -9.2163085938,       44.8608398438
1494035527.4534280300,        1.1269531250,        0.6396484375,       -0.0649414062,      -22.6593017578,       -9.2163085938,       20.8435058594
1494035527.4561340809,        1.1269531250,        0.3369140625,        0.0952148438,      -10.4980468750,       -9.2010498047,       20.8435058594
1494035527.4588301182,       -0.4687500000,        0.3369140625,        0.0952148438,      -10.4980468750,       -9.2010498047,       15.9912109375
1494035527.4615290165,       -0.4687500000,        0.3369140625,        0.0952148438,      -12.3291015625,       -5.6304931641,       15.9912109375
1494035527.4642660618,       -0.4687500000,        0.3369140625,        0.0952148438,      -12.3291015625,       -5.6304931641,       18.2952880859
1494035527.4669599533,       -0.8422851562,        0.3754882812,        0.1762695312,      -18.3715820312,       -5.7067871094,       18.2952880859
1494035527.4696600437,       -0.8422851562,        0.3754882812,        0.1762695312,      -18.3715820312,       -5.7067871094,       16.3879394531
1494035527.4723548889,       -0.8422851562,        0.3754882812,        0.1762695312,      -10.6658935547,       -8.4686279297,       16.3879394531
1494035527.4749929905,       -0.8422851562,        0.3754882812,        0.1762695312,      -10.6658935547,       -8.4686279297,       12.0544433594
1494035527.4775528908,       -0.8173828125,        0.4335937500,        0.2041015625,        1.2054443359,      -10.6353759766,       12.0544433594
1494035527.4801080227,       -0.8173828125,        0.4335937500,        0.2041015625,        1.2054443359,      -10.6353759766,       12.0544433594
1494035527.4826641083,       -0.8173828125,        0.4335937500,        0.2041015625,       10.6811523438,      -15.7165527344,        8.6212158203
1494035527.4853448868,       -0.8173828125,        0.4335937500,        0.2041015625,       10.6811523438,      -15.7165527344,        8.6212158203
1494035527.4880421162,       -0.5991210938,        0.4023437500,       -0.0483398438,       16.6473388672,      -19.8974609375,        7.4920654297
1494035527.4907460213,       -0.5991210938,        0.4023437500,       -0.0483398438,       16.6473388672,      -19.8974609375,        7.4920654297
1494035527.4934821129,       -0.5991210938,        0.4023437500,       -0.0483398438,       17.6239013672,      -21.9116210938,        6.6223144531
1494035527.4961769581,       -0.5991210938,        0.5273437500,       -0.1406250000,       17.6239013672,      -21.9116210938,        6.6223144531
1494035527.4988789558,       -0.5551757812,        0.5268554688,       -0.1406250000,       17.6544189453,      -21.5301513672,        4.0130615234
1494035527.5016748905,       -0.5551757812,        0.5268554688,       -0.1406250000,       17.6544189453,      -21.5301513672,        4.0130615234
1494035527.5043919086,       -0.5551757812,        0.5268554688,       -0.1406250000,       15.5181884766,      -20.6604003906,        1.5869140625
1494035527.5070888996,       -0.6508789062,        0.3515625000,       -0.0820312500,       15.5181884766,      -20.6604003906,        1.5869140625
1494035527.5097849369,       -0.6508789062,        0.3515625000,       -0.0820312500,       14.2364501953,      -20.5230712891,        0.4272460938
1494035527.5124790668,       -0.6508789062,        0.3515625000,       -0.0820312500,       14.2364501953,      -20.5230712891,        0.4272460938
1494035527.5151860714,       -0.6508789062,        0.3515625000,       -0.0820312500,       13.0004882812,      -20.9960937500,        1.6021728516
1494035527.5178790092,       -0.9335937500,        0.0903320312,       -0.0297851562,       13.0004882812,      -20.9960937500,        1.6021728516
1494035527.5205750465,       -0.9335937500,        0.0903320312,       -0.0297851562,        6.2713623047,      -20.3247070312,        3.3111572266
1494035527.5232748985,       -0.9335937500,        0.0903320312,       -0.0297851562,        6.2713623047,      -20.3247070312,        3.3111572266
1494035527.5258269310,       -0.9335937500,        0.0903320312,       -0.0297851562,        1.3732910156,      -18.2952880859,        5.8288574219
1494035527.5283730030,       -1.0678710938,        0.1948242188,       -0.0112304688,        1.3732910156,      -18.2952880859,        5.8288574219
1494035527.5309200287,       -1.0678710938,        0.1948242188,       -0.0112304688,        1.2664794922,      -17.0898437500,       10.1165771484
1494035527.5335268974,       -1.0678710938,        0.1948242188,       -0.0112304688,        1.2664794922,      -17.0898437500,       10.1165771484
1494035527.5362260342,       -1.0678710938,        0.1948242188,        0.0463867188,        3.8452148438,      -15.1519775391,       13.6718750000
1494035527.5389199257,       -0.8271484375,        0.3759765625,        0.0463867188,        3.8452148438,      -15.1519775391,       13.6718750000
1494035527.5416219234,       -0.8271484375,        0.3759765625,        0.0463867188,        5.4016113281,      -12.8021240234,       12.2833251953
1494035527.5443260670,       -0.8271484375,        0.3759765625,        0.0463867188,        5.4016113281,      -12.8021240234,       12.2833251953
1494035527.5470209122,       -0.8271484375,        0.4023437500,        0.0336914062,        4.5928955078,      -11.4288330078,        8.4075927734
1494035527.5497159958,       -0.6933593750,        0.4023437500,        0.0336914062,        4.5928955078,      -11.4288330078,        8.4075927734
1494035527.5524098873,       -0.6933593750,        0.4023437500,        0.0336914062,        4.4097900391,      -10.0402832031,        4.4708251953
1494035527.5551190376,       -0.6933593750,        0.4023437500,        0.0336914062,        4.4097900391,      -10.0402832031,        4.4708251953
1494035527.5578060150,       -0.6176757812,        0.5253906250,        0.0249023438,        7.9040527344,       -7.0648193359,       -0.7171630859
1494035527.5604948997,       -0.6176757812,        0.5253906250,        0.0249023438,        7.9040527344,       -7.0648193359,       -0.7171630859
1494035527.5631890297,       -0.6176757812,        0.5253906250,        0.0249023438,        9.4604492188,       -3.7231445312,       -6.8817138672
1494035527.5658760071,       -0.6176757812,        0.5253906250,        0.0249023438,        9.4604492188,       -3.7231445312,       -6.8817138672
1494035527.5685648918,       -0.6811523438,        0.5512695312,       -0.0073242188,        8.4838867188,        2.3803710938,      -13.8549804688
1494035527.5712559223,       -0.6811523438,        0.5512695312,       -0.0073242188,        8.4838867188,        2.3803710938,      -13.8549804688
1494035527.5739309788,       -0.6811523438,        0.5512695312,       -0.0073242188,       10.4675292969,        9.4757080078,      -21.5911865234
1494035527.5765969753,       -0.6811523438,        0.5512695312,        0.1176757812,       10.4675292969,        9.4757080078,      -21.5911865234
1494035527.5791590214,       -0.8896484375,        0.4809570312,        0.0048828125,       10.4675292969,       14.9383544922,      -26.4739990234
1494035527.5817260742,       -0.8896484375,        0.4809570312,        0.0048828125,       11.6119384766,       14.9383544922,      -26.4739990234
1494035527.5843560696,       -0.8896484375,        0.4809570312,        0.0048828125,       11.6119384766,       19.1345214844,      -30.5938720703
1494035527.5870599747,       -0.8896484375,        0.6059570312,        0.1518554688,       13.5803222656,       19.1345214844,      -30.5938720703
1494035527.5897641182,       -1.0581054688,        0.5136718750,        0.1518554688,       13.5803222656,       23.8494873047,      -35.0036621094
1494035527.5924649239,       -1.0581054688,        0.5136718750,        0.1518554688,       16.0980224609,       23.8494873047,      -35.0036621094
1494035527.5951719284,       -1.0581054688,        0.5136718750,        0.1518554688,       16.0980224609,       29.7393798828,      -38.2690429688
1494035527.5978729725,       -1.2363281250,        0.5585937500,        0.0996093750,       17.0440673828,       29.7393798828,      -38.2690429688
1494035527.6005680561,       -1.2363281250,        0.5585937500,        0.0996093750,       17.0440673828,       33.6456298828,      -39.5050048828
1494035527.6032779217,       -1.2363281250,        0.5585937500,        0.0996093750,       19.9432373047,       34.4085693359,      -39.5050048828
1494035527.6059811115,       -1.2363281250,        0.5585937500,        0.0996093750,       19.9432373047,       38.3148193359,      -43.9605712891
1494035527.6086819172,       -1.4223632812,        0.5468750000,       -0.0532226562,       24.5513916016,       37.1093750000,      -43.9605712891
1494035527.6113810539,       -1.4223632812,        0.5468750000,       -0.0532226562,       24.5513916016,       33.2031250000,      -52.6123046875
1494035527.6140871048,       -1.4223632812,        0.5468750000,       -0.0532226562,       33.5083007812,       34.9273681641,      -52.6123046875
1494035527.6167829037,       -1.4223632812,        0.5468750000,       -0.0532226562,       33.5083007812,       31.0211181641,      -59.7534179688
1494035527.6194870472,       -1.6816406250,        0.4438476562,       -0.0771484375,       45.0134277344,       29.7393798828,      -59.7534179688
1494035527.6221840382,       -1.6816406250,        0.4438476562,       -0.0771484375,       45.0134277344,       29.7393798828,      -66.1468505859
1494035527.6248118877,       -1.6816406250,        0.4438476562,       -0.0771484375,       57.8460693359,       24.3225097656,      -66.1468505859
1494035527.6273701191,       -1.6816406250,        0.4438476562,       -0.0991210938,       57.8460693359,       24.3225097656,      -70.0531005859
1494035527.6299259663,       -1.6933593750,        0.3984375000,       -0.0991210938,       67.1386718750,       16.6473388672,      -68.3593750000
1494035527.6324889660,       -1.6933593750,        0.3984375000,       -0.0991210938,       67.1386718750,        4.9285888672,      -65.3228759766
1494035527.6359629631,       -1.6933593750,        0.3984375000,       -0.0991210938,       75.4089355469,        5.2490234375,      -65.3228759766
1494035527.6392359734,       -1.5595703125,        0.1967773438,       -0.0839843750,       78.5369873047,       -6.7749023438,      -54.7180175781
1494035527.6419389248,       -1.5595703125,        0.1967773438,       -0.0839843750,       78.5369873047,       -6.7749023438,      -54.7180175781
1494035527.6446859837,       -1.5595703125,        0.1967773438,       -0.0839843750,       75.1037597656,      -22.5677490234,      -37.5976562500
1494035527.6473710537,       -1.5595703125,        0.1967773438,       -0.0322265625,       75.1037597656,      -22.5677490234,      -37.5976562500
1494035527.6500620842,       -1.6123046875,        0.0761718750,       -0.0322265625,       85.4797363281,      -33.0047607422,      -25.8026123047
1494035527.6529018879,       -1.6123046875,        0.0761718750,       -0.0322265625,       85.4797363281,      -33.0047607422,      -25.8026123047
1494035527.6555979252,       -1.6123046875,        0.0761718750,       -0.0322265625,       93.9941406250,      -35.9954833984,      -20.3247070312
1494035527.6582889557,       -1.3891601562,       -0.1259765625,       -0.0302734375,       93.9941406250,      -35.9954833984,      -20.3247070312
1494035527.6609740257,       -1.3891601562,       -0.1259765625,       -0.0302734375,       84.8693847656,      -36.9873046875,        0.5493164062
1494035527.6636788845,       -1.3891601562,       -0.1259765625,       -0.0302734375,       84.8693847656,      -36.9873046875,        0.5493164062
1494035527.6663649082,       -1.3891601562,       -0.1259765625,       -0.0302734375,       70.5718994141,      -36.8499755859,       28.9611816406
1494035527.6690509319,       -1.0239257812,       -0.3793945312,        0.0175781250,       70.5718994141,      -36.8499755859,       28.9611816406
1494035527.6717460155,       -1.0239257812,       -0.3793945312,        0.0175781250,       56.9915771484,      -33.5540771484,       54.5043945312
1494035527.6744749546,       -1.0239257812,       -0.3793945312,        0.0175781250,       56.9915771484,      -33.5540771484,       54.5043945312
1494035527.6771678925,       -1.0239257812,       -0.3793945312,        0.0175781250,       37.8112792969,      -34.2102050781,       79.8187255859
1494035527.6798529625,       -0.9238281250,       -0.1567382812,        0.1494140625,       37.8112792969,      -34.2102050781,       79.8187255859
1494035527.6825449467,       -0.9238281250,       -0.1567382812,        0.1494140625,       20.5383300781,      -41.3513183594,      112.3046875000
1494035527.6852979660,       -0.9238281250,       -0.1567382812,        0.1494140625,       20.5383300781,      -41.3513183594,      112.3046875000
1494035527.6879999638,       -0.9238281250,        0.8774414062,        0.4199218750,        4.9133300781,      -49.5452880859,      151.0314941406
1494035527.6906991005,       -1.1362304688,        0.8774414062,        0.4199218750,        7.0495605469,      -49.5452880859,      151.0314941406
1494035527.6934530735,       -1.1362304688,        0.8774414062,        0.4199218750,      -12.4816894531,      -57.1594238281,      193.5424804688
1494035527.6961479187,       -1.1362304688,        0.8774414062,        0.4199218750,      -12.7563476562,      -57.1594238281,      193.5424804688
1494035527.6988470554,       -1.5849609375,        1.8911132812,        0.3964843750,      -28.3813476562,      -55.9387207031,      234.1461181641
1494035527.7015440464,       -1.5849609375,        1.8911132812,        0.3964843750,      -31.0516357422,      -55.9387207031,      234.1461181641
1494035527.7042789459,       -1.5849609375,        1.8911132812,        0.3964843750,      -31.0516357422,      -51.8341064453,      267.5476074219
1494035527.7069759369,       -1.5849609375,        1.8911132812,        0.3964843750,      -27.6184082031,      -51.8341064453,      267.5476074219
1494035527.7096729279,       -2.0834960938,        1.4453125000,        0.1215820312,      -19.8059082031,      -51.7730712891,      292.8619384766
1494035527.7123711109,       -2.0834960938,        1.4453125000,        0.1215820312,      -19.6685791016,      -51.7730712891,      292.8619384766
1494035527.7150859833,       -2.0834960938,        1.4453125000,        0.1215820312,      -19.6685791016,      -53.9398193359,      314.1479492188
1494035527.7177848816,       -2.0834960938,        1.4453125000,        0.1215820312,      -22.9797363281,      -53.9398193359,      314.1479492188
1494035527.7204830647,       -2.5600585938,        1.0380859375,        0.0048828125,      -42.5109863281,      -50.8880615234,      333.0078125000
1494035527.7231900692,       -2.5600585938,        1.0380859375,        0.0048828125,      -42.8466796875,      -50.8880615234,      333.0078125000
1494035527.7258560658,       -2.5600585938,        1.0380859375,        0.0048828125,      -42.8466796875,      -46.9818115234,      346.9543457031
1494035527.7284190655,       -2.5600585938,        0.9682617188,       -0.0102539062,      -49.5758056641,      -48.1567382812,      346.9543457031
1494035527.7309761047,       -2.8925781250,        0.9682617188,       -0.0102539062,      -49.5758056641,      -48.1567382812,      355.5450439453
1494035527.7335579395,       -2.8925781250,        0.9682617188,       -0.0102539062,      -50.8880615234,      -46.7681884766,      355.5450439453
1494035527.7362639904,       -2.8925781250,        0.9682617188,       -0.0102539062,      -50.8880615234,      -46.7681884766,      357.6202392578
1494035527.7389609814,       -2.8325195312,        1.0014648438,        0.0805664062,      -54.9011230469,      -40.0390625000,      357.6202392578
1494035527.7416589260,       -2.8325195312,        1.0014648438,        0.0805664062,      -54.9011230469,      -40.0390625000,      352.1423339844
1494035527.7443680763,       -2.8325195312,        1.0014648438,        0.0805664062,      -54.6875000000,      -33.5083007812,      352.1423339844
1494035527.7470600605,       -2.8325195312,        1.0014648438,        0.0805664062,      -54.6875000000,      -33.5083007812,      346.9085693359
1494035527.7497611046,       -2.5986328125,        0.8237304688,        0.0922851562,      -53.3447265625,      -26.2756347656,      346.9085693359
1494035527.7524559498,       -2.5986328125,        0.8237304688,        0.0922851562,      -53.3447265625,      -26.2756347656,      339.0960693359
1494035527.7551600933,       -2.5986328125,        0.8237304688,        0.0922851562,      -51.8035888672,      -18.0969238281,      339.5538330078
1494035527.7578580379,       -2.5986328125,        0.8237304688,        0.0922851562,      -51.8035888672,      -18.0969238281,      331.7413330078
1494035527.7605540752,       -2.3969726562,        0.5849609375,        0.0292968750,      -45.5169677734,      -11.6119384766,      331.4361572266
1494035527.7632660866,       -2.3969726562,        0.5849609375,        0.0292968750,      -45.5169677734,      -11.6119384766,      327.5299072266
1494035527.7659668922,       -2.3969726562,        0.5849609375,        0.0292968750,      -39.9932861328,       -7.5531005859,      328.0029296875
1494035527.7686629295,       -2.3969726562,        0.4599609375,       -0.1000976562,      -39.9932861328,       -7.5531005859,      320.1904296875
1494035527.7713658810,       -2.0571289062,        0.4589843750,       -0.1000976562,      -37.9333496094,       -6.3781738281,      319.9310302734
1494035527.7740380764,       -2.0571289062,        0.4589843750,       -0.1000976562,      -37.9333496094,       -6.3781738281,      319.9310302734
1494035527.7765901089,       -2.0571289062,        0.4589843750,       -0.1000976562,      -33.2336425781,       -5.9204101562,      306.8695068359
1494035527.7791481018,       -1.6821289062,        0.3413085938,       -0.0717773438,      -33.2336425781,       -5.9204101562,      306.8695068359
1494035527.7817039490,       -1.7290039062,        0.3413085938,       -0.0717773438,      -31.2194824219,       -2.3193359375,      295.0286865234
1494035527.7843430042,       -1.7290039062,        0.3413085938,       -0.0717773438,      -31.2194824219,       -2.3193359375,      295.0286865234
1494035527.7870368958,       -1.7290039062,        0.3413085938,       -0.0717773438,      -36.6668701172,       -5.8593750000,      282.1960449219
1494035527.7897350788,       -1.3974609375,        0.0732421875,       -0.1396484375,      -36.6668701172,       -5.8593750000,      282.1960449219
1494035527.7924349308,       -1.3974609375,        0.0732421875,       -0.1396484375,      -40.4205322266,       -9.8876953125,      264.7247314453
1494035527.7951400280,       -1.3974609375,        0.0732421875,       -0.1396484375,      -40.4205322266,       -9.8876953125,      264.7247314453
1494035527.7978370190,       -1.3974609375,        0.0732421875,       -0.1396484375,      -42.4041748047,       -9.9639892578,      244.8425292969
1494035527.8006451130,       -1.0830078125,       -0.1264648438,       -0.1245117188,      -42.4041748047,       -9.9639892578,      244.8425292969
1494035527.8033409119,       -1.0830078125,       -0.1264648438,       -0.1245117188,      -41.4428710938,       -7.2326660156,      222.7935791016
1494035527.8060410023,       -1.0830078125,       -0.1264648438,       -0.1245117188,      -41.4428710938,       -7.2326660156,      222.7935791016
1494035527.8087320328,       -1.0830078125,       -0.1264648438,       -0.1557617188,      -38.0859375000,       -1.5563964844,      203.9794921875
1494035527.8114280701,       -0.7968750000,       -0.3374023438,       -0.1557617188,      -38.0859375000,       -1.5563964844,      203.9794921875
1494035527.8141400814,       -0.7968750000,       -0.3374023438,       -0.1557617188,      -37.0483398438,        7.2937011719,      191.3146972656
1494035527.8168349266,       -0.7968750000,       -0.3374023438,       -0.1557617188,      -37.0483398438,        7.2937011719,      191.3146972656
1494035527.8195300102,       -0.4218750000,       -0.6538085938,       -0.2548828125,      -31.6925048828,       13.0920410156,      170.8526611328
1494035527.8222310543,       -0.4907226562,       -0.6538085938,       -0.2548828125,      -31.6925048828,       13.0920410156,      170.8526611328
1494035527.8248560429,       -0.4907226562,       -0.6538085938,       -0.2548828125,      -24.0936279297,       12.7410888672,      145.9197998047
1494035527.8274180889,       -0.4907226562,       -0.6538085938,       -0.2548828125,      -24.0936279297,       12.7410888672,      145.9197998047
1494035527.8299698830,       -0.2324218750,       -0.9233398438,       -0.3310546875,      -18.6004638672,       12.6342773438,      118.7286376953
1494035527.8325259686,       -0.2324218750,       -0.9233398438,       -0.3310546875,      -18.6004638672,       12.6342773438,      118.7286376953
1494035527.8352029324,       -0.2324218750,       -0.9233398438,       -0.3310546875,      -19.1192626953,       12.5732421875,       92.0562744141
1494035527.8379030228,       -0.2324218750,       -0.9233398438,       -0.3310546875,      -19.1192626953,       12.5732421875,       92.0562744141
1494035527.8406000137,       -0.1069335938,       -0.9731445312,       -0.3505859375,      -18.5546875000,       14.7857666016,       63.9801025391
1494035527.8433110714,       -0.1069335938,       -0.9731445312,       -0.3505859375,      -18.5546875000,       14.7857666016,       63.9801025391
1494035527.8460099697,       -0.1069335938,       -0.9731445312,       -0.3505859375,      -13.6718750000,       17.5170898438,       35.7666015625
1494035527.8487150669,       -0.1069335938,       -0.9731445312,       -0.3505859375,      -13.6718750000,       17.5170898438,       35.7666015625
1494035527.8514111042,        0.0576171875,       -0.9711914062,       -0.2729492188,       -2.9602050781,       19.5312500000,        7.4462890625
1494035527.8541119099,        0.0576171875,       -0.9711914062,       -0.2729492188,       -2.9602050781,       19.5312500000,        7.4462890625
1494035527.8568069935,        0.0576171875,       -0.9711914062,       -0.2729492188,       10.7269287109,       22.6898193359,      -21.6979980469
1494035527.8595020771,        0.0576171875,       -1.0961914062,       -0.2202148438,       10.7269287109,       22.6898193359,      -21.6979980469
1494035527.8622009754,        0.1494140625,       -1.0634765625,       -0.2202148438,       22.2473144531,       26.9012451172,      -51.3458251953
1494035527.8649160862,        0.1494140625,       -1.0634765625,       -0.2202148438,       22.2473144531,       26.9012451172,      -51.3458251953
1494035527.8676130772,        0.1494140625,       -1.0634765625,       -0.2202148438,       26.1535644531,       29.1290283203,      -81.1309814453
1494035527.8703100681,        0.3715820312,       -1.2255859375,       -0.1938476562,       26.2298583984,       29.1290283203,      -81.1309814453
1494035527.8730061054,        0.3715820312,       -1.2255859375,       -0.1938476562,       30.1361083984,       28.8085937500,     -109.0850830078
1494035527.8756990433,        0.3715820312,       -1.2255859375,       -0.1938476562,       27.4810791016,       28.8085937500,     -109.0850830078
1494035527.8782639503,        0.3715820312,       -1.2255859375,       -0.1938476562,       27.4810791016,       28.8085937500,     -135.9710693359
1494035527.8808178902,        0.4233398438,       -1.1577148438,       -0.2011718750,       26.5960693359,       30.6091308594,     -135.9710693359
1494035527.8834450245,        0.4233398438,       -1.1577148438,       -0.2011718750,       26.5960693359,       34.5153808594,     -161.2854003906
1494035527.8861548901,        0.4233398438,       -1.1577148438,       -0.2011718750,       27.0843505859,       32.0281982422,     -161.2854003906
1494035527.8888580799,        0.4233398438,       -1.1577148438,       -0.2011718750,       27.0843505859,       32.0281982422,     -185.4095458984
1494035527.8915588856,        0.3432617188,       -1.0463867188,       -0.1645507812,       27.9846191406,       30.5023193359,     -185.4095458984
1494035527.8942649364,        0.3432617188,       -1.0463867188,       -0.1645507812,       27.9846191406,       30.5023193359,     -208.8012695312
1494035527.8969600201,        0.3432617188,       -1.0463867188,       -0.1645507812,       31.9061279297,       29.0222167969,     -208.8012695312
1494035527.8996601105,        0.3432617188,       -1.0463867188,       -0.1503906250,       31.9061279297,       29.0222167969,     -227.7679443359
1494035527.9023571014,        0.2949218750,       -0.9096679688,       -0.1503906250,       34.1491699219,       27.6184082031,     -227.7679443359
1494035527.9051029682,        0.2949218750,       -0.9096679688,       -0.1503906250,       34.1491699219,       27.6184082031,     -246.0632324219
1494035527.9078021049,        0.2949218750,       -0.9096679688,       -0.1503906250,       34.1491699219,       29.7698974609,     -246.0632324219
1494035527.9104990959,        0.3447265625,       -0.7958984375,       -0.1054687500,       34.1491699219,       29.7698974609,     -260.9252929688
1494035527.9132080078,        0.3447265625,       -0.7958984375,       -0.1054687500,       32.8979492188,       28.7170410156,     -260.9252929688
1494035527.9157669544,        0.3447265625,       -0.7958984375,       -0.1054687500,       32.8979492188,       28.7170410156,     -272.6440429688
1494035527.9183270931,        0.3447265625,       -0.7958984375,       -0.1054687500,       33.4777832031,       28.3813476562,     -271.3775634766
1494035527.9208879471,        0.3945312500,       -0.6142578125,       -0.1318359375,       33.4777832031,       28.3813476562,     -271.3775634766
1494035527.9234969616,        0.3945312500,       -0.6142578125,       -0.1318359375,       33.2183837891,       27.4963378906,     -282.5317382812
1494035527.9261949062,        0.3945312500,       -0.6142578125,       -0.1318359375,       33.2183837891,       27.4963378906,     -282.5317382812
1494035527.9289000034,        0.3945312500,       -0.6142578125,       -0.1318359375,       25.7110595703,       27.8625488281,     -290.4357910156
1494035527.9315969944,        0.3447265625,       -0.4604492188,       -0.0834960938,       25.7110595703,       27.8625488281,     -290.4357910156
1494035527.9343080521,        0.3447265625,       -0.4604492188,       -0.0834960938,       16.2506103516,       27.8472900391,     -295.8374023438
1494035527.9370059967,        0.3447265625,       -0.4604492188,       -0.0834960938,       16.2506103516,       27.8472900391,     -295.8374023438
1494035527.9397079945,        0.3447265625,       -0.4604492188,       -0.0834960938,       10.6506347656,       26.1688232422,     -300.3387451172
1494035527.9424180984,        0.3984375000,       -0.1762695312,       -0.0258789062,       10.6506347656,       26.1688232422,     -300.3387451172
1494035527.9451251030,        0.3984375000,       -0.1762695312,       -0.0258789062,        8.7432861328,       23.1323242188,     -303.8177490234
1494035527.9479169846,        0.3984375000,       -0.1762695312,       -0.0258789062,        8.7432861328,       23.1323242188,     -303.8177490234
1494035527.9506158829,        0.2734375000,        0.1708984375,        0.0517578125,       12.6342773438,       19.0429687500,     -305.9997558594
1494035527.9533259869,        0.3725585938,        0.1708984375,        0.0517578125,       12.6342773438,       19.0429687500,     -305.9997558594
1494035527.9560298920,        0.3725585938,        0.1708984375,        0.0517578125,       20.1568603516,       13.8244628906,     -304.4891357422
1494035527.9587230682,        0.3725585938,        0.1708984375,        0.0517578125,       20.1568603516,       13.8244628906,     -304.4891357422
1494035527.9614179134,        0.3857421875,        0.4804687500,        0.1269531250,       30.0598144531,        8.8043212891,     -300.1556396484
1494035527.9640929699,        0.3857421875,        0.4804687500,        0.1269531250,       30.0598144531,        8.8043212891,     -300.1556396484
1494035527.9666500092,        0.3857421875,        0.4804687500,        0.1269531250,       37.4755859375,        3.9215087891,     -292.5415039062
1494035527.9692049026,        0.3857421875,        0.4804687500,        0.1269531250,       37.4755859375,        3.9215087891,     -292.5415039062
1494035527.9717628956,        0.3676757812,        0.7475585938,        0.1069335938,       42.6177978516,        1.6937255859,     -283.0657958984
1494035527.9743869305,        0.3676757812,        0.7475585938,        0.1069335938,       42.6177978516,        1.6937255859,     -283.0657958984
1494035527.9770898819,        0.3676757812,        0.7475585938,        0.1069335938,       44.4793701172,        0.9460449219,     -272.9187011719
1494035527.9797849655,        0.3676757812,        0.7475585938,        0.1069335938,       44.4793701172,        0.9460449219,     -272.9187011719
1494035527.9824800491,        0.3764648438,        1.0205078125,        0.0590820312,       45.7916259766,        1.3275146484,     -262.0391845703
1494035527.9851899147,        0.3764648438,        1.0205078125,        0.0590820312,       45.7916259766,        1.3275146484,     -262.0391845703
1494035527.9878849983,        0.3764648438,        1.0205078125,        0.0590820312,       44.7387695312,        0.5340576172,     -248.8098144531
1494035527.9905788898,        0.3764648438,        1.1455078125,       -0.0244140625,       44.7387695312,        0.5340576172,     -248.8098144531
1494035527.9932880402,        0.3305664062,        1.2016601562,       -0.0244140625,       41.2597656250,       -2.0751953125,     -234.8327636719
1494035527.9959850311,        0.3305664062,        1.2016601562,       -0.0244140625,       41.2597656250,       -2.0751953125,     -234.8327636719
1494035527.9986839294,        0.3305664062,        1.2016601562,       -0.0244140625,       36.0412597656,       -4.2877197266,     -220.0164794922
1494035528.0013799667,        0.2675781250,        1.3540039062,       -0.0849609375,       36.0412597656,       -4.2877197266,     -220.0164794922
1494035528.0040829182,        0.2675781250,        1.3540039062,       -0.0849609375,       29.0222167969,       -6.4697265625,     -204.4677734375
1494035528.0067811012,        0.2675781250,        1.3540039062,       -0.0849609375,       29.0222167969,       -6.4697265625,     -204.4677734375
1494035528.0094759464,        0.2675781250,        1.3540039062,       -0.0849609375,       24.2919921875,       -7.4768066406,     -190.2465820312
1494035528.0121700764,        0.2543945312,        1.5063476562,       -0.0483398438,       24.2919921875,       -7.4768066406,     -190.2465820312
1494035528.0147960186,        0.2543945312,        1.5063476562,       -0.0483398438,       25.6347656250,       -7.6904296875,     -176.8798828125
1494035528.0173530579,        0.2543945312,        1.5063476562,       -0.0483398438,       25.6347656250,       -7.6904296875,     -176.8798828125
1494035528.0199110508,        0.2543945312,        1.5063476562,       -0.0483398438,       25.6347656250,       -7.5225830078,     -162.6586914062
1494035528.0225710869,        0.2700195312,        1.5791015625,       -0.0366210938,       29.8461914062,       -7.5225830078,     -162.6586914062
1494035528.0252869129,        0.2700195312,        1.5791015625,       -0.0366210938,       29.8461914062,       -9.7656250000,     -147.9187011719
1494035528.0279970169,        0.2700195312,        1.5791015625,       -0.0366210938,       32.9895019531,       -9.7656250000,     -147.9187011719
1494035528.0306930542,        0.2700195312,        1.5791015625,       -0.0517578125,       32.9895019531,      -11.9018554688,     -135.2233886719
1494035528.0334570408,        0.3139648438,        1.5244140625,       -0.0517578125,       29.0527343750,      -11.9018554688,     -135.2233886719
1494035528.0361559391,        0.3139648438,        1.5244140625,       -0.0517578125,       29.0527343750,      -13.5650634766,     -123.5504150391
1494035528.0388579369,        0.3139648438,        1.5244140625,       -0.0517578125,       21.1639404297,      -13.5650634766,     -123.5504150391
1494035528.0415630341,        0.4389648438,        1.4541015625,       -0.1904296875,       21.1639404297,      -14.2974853516,     -110.1989746094
1494035528.0442719460,        0.4086914062,        1.4541015625,       -0.1904296875,        8.2702636719,      -14.2974853516,     -110.1989746094
1494035528.0469670296,        0.4086914062,        1.4541015625,       -0.1904296875,        8.2702636719,        5.9509277344,      -57.5866699219
1494035528.0496640205,        0.4086914062,        1.4541015625,       -0.1904296875,        6.4086914062,        5.9509277344,      -57.5866699219
1494035528.0523569584,       -0.4555664062,        6.5097656250,       -0.2109375000,        6.4086914062,       26.5502929688,       44.4793701172
1494035528.0550971031,       -0.4555664062,        6.5097656250,       -0.2109375000,      -38.4368896484,       26.5502929688,       44.4793701172
1494035528.0578000546,       -0.4555664062,        6.5097656250,       -0.2109375000,      -38.4368896484,       18.7377929688,       78.7506103516
1494035528.0604999065,       -0.4555664062,        6.5097656250,       -0.2109375000,     -107.0709228516,       19.0124511719,       78.7506103516
1494035528.0632140636,        0.2309570312,        6.1206054688,        0.7890625000,     -107.0709228516,       15.1062011719,       44.6777343750
1494035528.0657739639,        0.2309570312,        6.1206054688,        0.7890625000,        0.8544921875,       14.8010253906,       44.6777343750
1494035528.0683279037,        0.2309570312,        6.1206054688,        0.7890625000,        0.8544921875,       14.8010253906,       58.6395263672
1494035528.0708858967,        0.2309570312,        6.1206054688,       -0.3359375000,       58.0749511719,      -20.4010009766,       58.6395263672
1494035528.0734910965,       -0.5024414062,        0.1108398438,       -0.2514648438,       58.0749511719,      -20.4010009766,       43.0145263672
1494035528.0761940479,       -0.5024414062,        0.1108398438,       -0.2514648438,       69.6716308594,      -26.9927978516,       44.3725585938
1494035528.0788969994,       -0.5024414062,        0.1108398438,       -0.2514648438,       69.6716308594,      -26.9927978516,       36.5600585938
1494035528.0815958977,       -0.5024414062,       -2.5854492188,       -0.8134765625,       47.3632812500,      -10.9100341797,       37.9638671875
1494035528.0843119621,       -1.5883789062,       -2.5854492188,       -0.8134765625,       47.3632812500,      -10.9100341797,       37.9638671875
1494035528.0870049000,       -1.5883789062,       -2.5854492188,       -0.8134765625,       -5.8441162109,       -5.2947998047,       30.9906005859
1494035528.0896959305,       -1.5883789062,       -2.5854492188,       -0.8134765625,       -5.8441162109,       -5.2947998047,       30.9906005859
1494035528.0923869610,       -2.0546875000,       -1.5371093750,        0.5507812500,      -45.0744628906,      -16.4947509766,       24.6887207031
1494035528.0950939655,       -2.0546875000,       -1.5371093750,        0.5507812500,      -45.0744628906,      -16.4947509766,       24.6887207031
1494035528.0979011059,       -2.0546875000,       -1.5371093750,        0.5507812500,      -63.9343261719,      -16.1895751953,       34.3475341797
1494035528.1006081104,       -2.0546875000,       -1.5371093750,        0.5507812500,      -63.9343261719,      -16.1895751953,       34.3475341797
1494035528.1033101082,       -2.2958984375,        1.4653320312,        1.3515625000,      -79.1168212891,       -4.5928955078,       58.7005615234
1494035528.1060059071,       -2.2958984375,        1.4653320312,        1.3515625000,      -79.1168212891,       -4.5928955078,       58.7005615234
1494035528.1086950302,       -2.2958984375,        1.4653320312,        1.3515625000,      -81.1767578125,      -20.2636718750,       65.4754638672
1494035528.1113820076,       -2.2958984375,        1.4653320312,        0.2426757812,      -81.1767578125,      -20.2636718750,       65.4754638672
1494035528.1140549183,       -1.0541992188,        0.6269531250,        0.2426757812,      -37.2467041016,      -22.6898193359,       47.6684570312
1494035528.1166129112,       -1.0541992188,        0.6269531250,        0.2426757812,      -37.2467041016,      -22.6898193359,       47.6684570312
1494035528.1191689968,       -1.0541992188,        0.6269531250,        0.2426757812,        8.7585449219,      -12.9699707031,       44.9066162109
1494035528.1217229366,       -1.0541992188,        0.0019531250,       -0.4995117188,        8.7585449219,      -12.9699707031,       44.9066162109
1494035528.1243369579,       -0.5712890625,        0.0444335938,       -0.4995117188,       27.4658203125,      -10.2539062500,       49.4079589844
1494035528.1270389557,       -0.5712890625,        0.0444335938,       -0.4995117188,       27.4658203125,      -10.2539062500,       49.4079589844
1494035528.1297430992,       -0.5712890625,        0.0444335938,       -0.4995117188,       20.3857421875,       -8.8806152344,       52.4902343750
1494035528.1324419975,       -0.3764648438,        0.3491210938,       -0.2109375000,       20.3857421875,       -8.8806152344,       52.4902343750
1494035528.1351571083,       -0.3764648438,        0.3491210938,       -0.2109375000,        1.7852783203,       -4.1961669922,       54.0771484375
1494035528.1378419399,       -0.3764648438,        0.3491210938,       -0.2109375000,        1.7852783203,       -4.1961669922,       54.0771484375
1494035528.1405339241,       -0.3764648438,        0.3491210938,       -0.2109375000,      -23.5595703125,       -1.7395019531,       57.1441650391
1494035528.1432440281,       -0.2529296875,        0.6391601562,       -0.1904296875,      -23.5595703125,       -1.7395019531,       57.1441650391
1494035528.1459350586,       -0.2529296875,        0.6391601562,       -0.1904296875,      -44.7235107422,        0.7476806641,       60.8825683594
1494035528.1486339569,       -0.2529296875,        0.6391601562,       -0.1904296875,      -44.7235107422,        0.7476806641,       60.8825683594
1494035528.1513309479,       -0.2529296875,        0.6391601562,       -0.1904296875,      -44.8608398438,        5.5084228516,       68.7561035156
1494035528.1540749073,       -0.4155273438,        0.5903320312,       -0.0883789062,      -44.8608398438,        5.5084228516,       68.7561035156
1494035528.1567790508,       -0.4155273438,        0.5903320312,       -0.0883789062,      -40.0695800781,        6.8664550781,       63.0340576172
1494035528.1594750881,       -0.4155273438,        0.5903320312,       -0.0883789062,      -40.0695800781,        6.8664550781,       63.0340576172
1494035528.1621720791,       -0.4155273438,        0.5903320312,        0.1196289062,      -27.3284912109,        7.6751708984,       56.9915771484
1494035528.1647989750,       -0.6748046875,        0.5468750000,        0.1196289062,      -27.3284912109,        7.6751708984,       56.9915771484
1494035528.1673569679,       -0.6748046875,        0.5468750000,        0.1196289062,      -15.3503417969,        4.8675537109,       52.3529052734
1494035528.1700210571,       -0.6748046875,        0.5468750000,        0.1196289062,      -15.3503417969,        4.8675537109,       52.3529052734
1494035528.1725780964,       -0.9248046875,        0.2626953125,        0.1196289062,      -11.1083984375,        1.9836425781,       50.2777099609
1494035528.1752800941,       -0.9218750000,        0.2626953125,        0.1196289062,      -11.1083984375,        1.9836425781,       50.2777099609
1494035528.1779789925,       -0.9218750000,        0.2626953125,        0.1196289062,       -3.0212402344,        1.2664794922,       51.9256591797
1494035528.1806690693,       -0.9218750000,        0.2626953125,        0.1196289062,       -3.0212402344,        1.2664794922,       51.9256591797
1494035528.1834049225,       -1.0312500000,        0.3520507812,        0.1772460938,        4.4708251953,       -0.6713867188,       51.2390136719
1494035528.1860980988,       -1.0312500000,        0.3520507812,        0.1772460938,        4.4708251953,       -0.6713867188,       51.2390136719
1494035528.1887838840,       -1.0312500000,        0.3520507812,        0.1772460938,        8.3770751953,       -2.0446777344,       51.9104003906
