time_stamp before, Acceleration x, Acceleration y, Acceleration z, Gyro x, Gyro y, Gyro z
1494035436.3743519783,       -0.3979492188,       -0.0234375000,       -0.0146484375,      -56.0150146484,        2.0294189453,       20.5535888672
1494035436.3873810768,       -0.3979492188,       -0.0161132812,       -0.0112304688,      -56.0150146484,        2.0294189453,       13.1683349609
1494035436.3911540508,       -0.3378906250,       -0.0161132812,       -0.0112304688,      -51.4678955078,        2.0751953125,       13.1683349609
1494035436.3943669796,       -0.3378906250,       -0.0161132812,       -0.0112304688,      -45.5780029297,        1.5258789062,        5.8746337891
1494035436.3970489502,       -0.3378906250,       -0.0161132812,       -0.0131835938,      -45.5780029297,        1.5258789062,        5.8746337891
1494035436.3997368813,       -0.2666015625,       -0.0209960938,       -0.0131835938,      -39.3066406250,        1.1138916016,       -1.1901855469
1494035436.4024178982,       -0.2666015625,       -0.0209960938,       -0.0131835938,      -39.3066406250,        1.1138916016,       -1.1901855469
1494035436.4051148891,       -0.2666015625,       -0.0209960938,       -0.0131835938,      -34.5916748047,        1.3885498047,       -8.4686279297
1494035436.4077970982,       -0.1416015625,       -0.0864257812,       -0.0361328125,      -34.5916748047,        1.3885498047,       -8.4686279297
1494035436.4104759693,       -0.2426757812,       -0.0864257812,       -0.0361328125,      -30.9295654297,        1.6326904297,      -15.8996582031
1494035436.4131948948,       -0.2426757812,       -0.0864257812,       -0.0361328125,      -30.9295654297,        1.6326904297,      -15.8996582031
1494035436.4157590866,       -0.2426757812,       -0.0864257812,       -0.0361328125,      -29.2205810547,        1.3122558594,      -23.0407714844
1494035436.4183089733,       -0.2036132812,       -0.1342773438,       -0.0605468750,      -29.2205810547,        1.3122558594,      -23.0407714844
1494035436.4208550453,       -0.2036132812,       -0.1342773438,       -0.0605468750,      -29.2205810547,        1.3122558594,      -30.2276611328
1494035436.4234519005,       -0.2036132812,       -0.1342773438,       -0.0605468750,      -27.7252197266,        1.3122558594,      -30.2276611328
1494035436.4260010719,       -0.2036132812,       -0.1342773438,       -0.0605468750,      -27.7252197266,        1.3122558594,      -38.0401611328
1494035436.4285500050,       -0.1748046875,       -0.1743164062,       -0.0966796875,      -28.4729003906,        1.6021728516,      -38.0401611328
1494035436.4311089516,       -0.1748046875,       -0.1743164062,       -0.0966796875,      -28.4729003906,        1.6021728516,      -45.8526611328
1494035436.4337201118,       -0.1748046875,       -0.1743164062,       -0.0966796875,      -29.8614501953,        1.8310546875,      -45.9289550781
1494035436.4362740517,       -0.1748046875,       -0.1743164062,       -0.0966796875,      -29.8614501953,        1.8310546875,      -45.9289550781
1494035436.4388279915,       -0.1708984375,       -0.2016601562,       -0.0991210938,      -32.6690673828,        2.3345947266,      -53.5125732422
1494035436.4413819313,       -0.1708984375,       -0.2016601562,       -0.0991210938,      -32.6690673828,        2.3345947266,      -53.5125732422
1494035436.4440290928,       -0.1708984375,       -0.2016601562,       -0.0991210938,      -35.5072021484,        2.1820068359,      -61.2335205078
1494035436.4465899467,       -0.1708984375,       -0.2016601562,       -0.0991210938,      -35.5072021484,        2.1820068359,      -61.2335205078
1494035436.4491500854,       -0.1694335938,       -0.1699218750,       -0.0844726562,      -35.5834960938,        2.5329589844,      -68.7713623047
1494035436.4517118931,       -0.1694335938,       -0.1699218750,       -0.0844726562,      -35.5834960938,        2.5329589844,      -68.7713623047
1494035436.4544138908,       -0.1694335938,       -0.1699218750,       -0.0844726562,      -34.5916748047,        2.5329589844,      -75.3326416016
1494035436.4571099281,       -0.1694335938,       -0.1699218750,       -0.0844726562,      -34.5916748047,        2.5329589844,      -75.3326416016
1494035436.4599530697,       -0.1967773438,       -0.1127929688,       -0.0571289062,      -32.4859619141,        2.5329589844,      -81.0241699219
1494035436.4626479149,       -0.1967773438,       -0.1127929688,       -0.0571289062,      -32.4859619141,        2.5329589844,      -81.0241699219
1494035436.4653658867,       -0.1967773438,       -0.1127929688,       -0.0571289062,      -29.6173095703,        2.8991699219,      -86.4410400391
1494035436.4680609703,       -0.1967773438,       -0.0341796875,       -0.0600585938,      -29.6173095703,        2.8991699219,      -86.4410400391
1494035436.4707629681,       -0.2285156250,       -0.0341796875,       -0.0600585938,      -25.9857177734,        3.3264160156,      -91.6748046875
1494035436.4734599590,       -0.2285156250,       -0.0341796875,       -0.0600585938,      -25.9857177734,        3.3264160156,      -91.6748046875
1494035436.4760169983,       -0.2285156250,       -0.0341796875,       -0.0600585938,      -22.7050781250,        3.8909912109,      -96.3134765625
1494035436.4785740376,       -0.2358398438,       -0.0019531250,       -0.0820312500,      -22.7050781250,        3.8909912109,      -96.3134765625
1494035436.4811348915,       -0.2358398438,       -0.0019531250,       -0.0820312500,      -21.3928222656,        4.8675537109,     -101.4099121094
1494035436.4837360382,       -0.2358398438,       -0.0019531250,       -0.0820312500,      -21.3928222656,        4.8675537109,     -101.4099121094
1494035436.4864330292,       -0.2358398438,       -0.0019531250,       -0.0820312500,      -20.6146240234,        5.5236816406,     -106.8267822266
1494035436.4891219139,       -0.2509765625,        0.0708007812,       -0.0922851562,      -20.6146240234,        5.5236816406,     -106.8267822266
1494035436.4918160439,       -0.2509765625,        0.0708007812,       -0.0922851562,      -16.7083740234,        5.6610107422,     -112.3352050781
1494035436.4945189953,       -0.2509765625,        0.0708007812,       -0.0922851562,      -16.8457031250,        5.6610107422,     -112.3352050781
1494035436.4972119331,       -0.2509765625,        0.0708007812,       -0.0922851562,       -9.0332031250,        5.9661865234,     -117.2180175781
1494035436.5005519390,       -0.2612304688,        0.1777343750,       -0.0888671875,      -11.2609863281,        5.9661865234,     -117.2180175781
1494035436.5036621094,       -0.2612304688,        0.1777343750,       -0.0888671875,       -5.9509277344,        6.1035156250,     -121.2463378906
1494035436.5063591003,       -0.2612304688,        0.1777343750,       -0.0888671875,       -5.9509277344,        6.1035156250,     -121.2463378906
1494035436.5090529919,       -0.3315429688,        0.2031250000,       -0.1113281250,       -2.9754638672,        6.3934326172,     -123.6114501953
1494035436.5117509365,       -0.3315429688,        0.2031250000,       -0.1113281250,       -2.9754638672,        6.3934326172,     -123.6114501953
1494035436.5144820213,       -0.3315429688,        0.2031250000,       -0.1113281250,       -2.1972656250,        8.2702636719,     -124.8168945312
1494035436.5171740055,       -0.3315429688,        0.2031250000,       -0.1113281250,       -2.1972656250,        8.2702636719,     -124.8168945312
1494035436.5198619366,       -0.3930664062,        0.2788085938,       -0.1577148438,       -3.4027099609,       11.6271972656,     -125.1831054688
1494035436.5225570202,       -0.3930664062,        0.2788085938,       -0.1577148438,       -3.4027099609,       11.6271972656,     -125.1831054688
1494035436.5251889229,       -0.3930664062,        0.2788085938,       -0.1577148438,       -7.1411132812,       13.8854980469,     -125.2441406250
1494035436.5277409554,       -0.3930664062,        0.2788085938,       -0.1577148438,       -7.1411132812,       13.8854980469,     -125.2441406250
1494035436.5302910805,       -0.3935546875,        0.3413085938,       -0.1875000000,      -11.9934082031,       16.1590576172,     -125.2136230469
1494035436.5329759121,       -0.3935546875,        0.3413085938,       -0.1875000000,      -11.9934082031,       16.1590576172,     -125.2136230469
1494035436.5355839729,       -0.3935546875,        0.3413085938,       -0.1875000000,      -17.0745849609,       18.2495117188,     -125.6256103516
1494035436.5381510258,       -0.3935546875,        0.3413085938,       -0.1606445312,      -17.0745849609,       18.2495117188,     -125.6256103516
1494035436.5407059193,       -0.4116210938,        0.4243164062,       -0.1606445312,      -17.0745849609,       19.7448730469,     -126.5716552734
1494035436.5432629585,       -0.4116210938,        0.4243164062,       -0.1606445312,      -21.4233398438,       19.7448730469,     -126.5716552734
1494035436.5458290577,       -0.4116210938,        0.4243164062,       -0.1606445312,      -21.4233398438,       19.7448730469,     -126.4953613281
1494035436.5483849049,       -0.4116210938,        0.4243164062,       -0.1035156250,      -21.6827392578,       21.0113525391,     -126.4953613281
1494035436.5509378910,       -0.4648437500,        0.5488281250,       -0.1035156250,      -21.6827392578,       21.0113525391,     -122.5891113281
1494035436.5536088943,       -0.4648437500,        0.5488281250,       -0.1035156250,      -20.2178955078,       22.3541259766,     -124.5422363281
1494035436.5561680794,       -0.4648437500,        0.5488281250,       -0.1035156250,      -20.2178955078,       22.3541259766,     -124.5422363281
1494035436.5587339401,       -0.4648437500,        0.5488281250,       -0.0551757812,      -17.8527832031,       23.4069824219,     -121.4294433594
1494035436.5612940788,       -0.5327148438,        0.6191406250,       -0.0551757812,      -17.8527832031,       23.4069824219,     -121.4294433594
1494035436.5640139580,       -0.5327148438,        0.6191406250,       -0.0551757812,      -16.7236328125,       24.1699218750,     -117.8131103516
1494035436.5667159557,       -0.5327148438,        0.6191406250,       -0.0551757812,      -16.7236328125,       24.1699218750,     -117.8131103516
1494035436.5694110394,       -0.5527343750,        0.6899414062,       -0.0659179688,      -16.4031982422,       25.6195068359,     -113.0676269531
1494035436.5721108913,       -0.5527343750,        0.6899414062,       -0.0659179688,      -16.4031982422,       25.6195068359,     -113.0676269531
1494035436.5747339725,       -0.5527343750,        0.6899414062,       -0.0659179688,      -15.3656005859,       26.9470214844,     -107.5439453125
1494035436.5772919655,       -0.5527343750,        0.6899414062,       -0.0659179688,      -15.3656005859,       26.9470214844,     -107.5439453125
1494035436.5798580647,       -0.5400390625,        0.6757812500,       -0.0986328125,      -13.9770507812,       28.3203125000,     -102.3864746094
1494035436.5824160576,       -0.5400390625,        0.6757812500,       -0.0986328125,      -13.9770507812,       28.3203125000,     -102.3864746094
1494035436.5851390362,       -0.5400390625,        0.6757812500,       -0.0986328125,      -15.5639648438,       28.7017822266,      -97.3815917969
1494035436.5878460407,       -0.5400390625,        0.6757812500,       -0.0986328125,      -15.5639648438,       28.7017822266,      -97.3815917969
1494035436.5905489922,       -0.5356445312,        0.6240234375,       -0.1059570312,      -19.9737548828,       29.0985107422,      -92.8802490234
1494035436.5932550430,       -0.5356445312,        0.6240234375,       -0.1059570312,      -19.9737548828,       29.0985107422,      -92.8802490234
1494035436.5959589481,       -0.5356445312,        0.6240234375,       -0.1059570312,      -23.6968994141,       28.9459228516,      -89.3096923828
1494035436.5986568928,       -0.5356445312,        0.6240234375,       -0.0717773438,      -23.6968994141,       28.9459228516,      -89.3096923828
1494035436.6013610363,       -0.5239257812,        0.6752929688,       -0.0717773438,      -26.0162353516,       28.6865234375,      -85.9832763672
1494035436.6041550636,       -0.5239257812,        0.6752929688,       -0.0717773438,      -26.0162353516,       28.6865234375,      -85.9832763672
1494035436.6069650650,       -0.5239257812,        0.6752929688,       -0.0717773438,      -24.6124267578,       28.3660888672,      -81.3903808594
1494035436.6096749306,       -0.5229492188,        0.7583007812,       -0.0327148438,      -24.6124267578,       28.3660888672,      -81.3903808594
1494035436.6123740673,       -0.5229492188,        0.7583007812,       -0.0327148438,      -23.0255126953,       27.9998779297,      -76.7669677734
1494035436.6150870323,       -0.5229492188,        0.7583007812,       -0.0327148438,      -23.0255126953,       27.9998779297,      -76.7669677734
1494035436.6177909374,       -0.5229492188,        0.7583007812,       -0.0327148438,      -23.1018066406,       28.8543701172,      -70.7244873047
1494035436.6206409931,       -0.5639648438,        0.7783203125,        0.0043945312,      -23.1018066406,       28.8543701172,      -70.7244873047
1494035436.6233420372,       -0.5639648438,        0.7783203125,        0.0043945312,      -27.4505615234,       30.9906005859,      -64.7583007812
1494035436.6259050369,       -0.5639648438,        0.7783203125,        0.0043945312,      -27.4505615234,       30.9906005859,      -64.7583007812
1494035436.6284699440,       -0.5639648438,        0.7783203125,        0.0043945312,      -33.0200195312,       32.1197509766,      -58.9752197266
1494035436.6310300827,       -0.5756835938,        0.9086914062,       -0.0141601562,      -33.0200195312,       32.1197509766,      -58.9752197266
1494035436.6336100101,       -0.5756835938,        0.9086914062,       -0.0141601562,      -25.9094238281,       31.8908691406,      -45.9136962891
1494035436.6363110542,       -0.5756835938,        0.9086914062,       -0.0141601562,      -25.9094238281,       31.8908691406,      -45.9136962891
1494035436.6390130520,       -0.5756835938,        0.9086914062,        0.0288085938,      -17.4407958984,       25.8941650391,      -21.0723876953
1494035436.6417200565,       -1.1220703125,        2.6054687500,        0.0288085938,      -17.4407958984,       25.8941650391,      -21.0723876953
1494035436.6444718838,       -1.1220703125,        2.6054687500,        0.0288085938,      -45.5017089844,        6.4392089844,       16.8609619141
1494035436.6471679211,       -1.1220703125,        2.6054687500,        0.0288085938,      -45.5017089844,        6.4392089844,       16.8609619141
1494035436.6498639584,       -0.9970703125,        3.3408203125,        1.0839843750,      -46.5240478516,       -0.9002685547,       45.5322265625
1494035436.6525609493,       -0.9252929688,        3.3408203125,        1.0839843750,      -46.5240478516,       -0.9002685547,       45.5322265625
1494035436.6551589966,       -0.9252929688,        3.3408203125,        1.0839843750,      -15.2740478516,        9.4299316406,       31.7382812500
1494035436.6577160358,       -0.9252929688,        3.3408203125,        1.0839843750,      -12.7410888672,        9.4299316406,       31.7382812500
1494035436.6602699757,       -0.9609375000,        1.1914062500,        0.1879882812,      -12.7410888672,       13.3361816406,       33.7982177734
1494035436.6628320217,       -0.9609375000,        1.1914062500,        0.1879882812,       24.5208740234,       12.4664306641,       33.7982177734
1494035436.6654980183,       -0.9609375000,        1.1914062500,        0.1879882812,       24.5208740234,       12.4664306641,       39.7644042969
1494035436.6680619717,       -0.9609375000,        1.1914062500,        0.1879882812,       26.9470214844,        2.9144287109,       39.7644042969
1494035436.6706171036,       -0.5942382812,       -0.4340820312,       -0.2714843750,       26.9470214844,        2.9144287109,       39.7644042969
1494035436.6733000278,       -0.5942382812,       -0.4340820312,       -0.2714843750,        8.9874267578,        1.3122558594,       39.7033691406
1494035436.6758530140,       -0.5942382812,       -0.4340820312,       -0.2714843750,        8.9874267578,        1.3122558594,       39.7033691406
1494035436.6784060001,       -0.5942382812,       -0.4340820312,       -0.2714843750,       -6.1798095703,        6.2103271484,       42.0074462891
1494035436.6810679436,       -0.5952148438,       -0.0126953125,       -0.2348632812,       -6.1798095703,        6.2103271484,       42.0074462891
1494035436.6836819649,       -0.5952148438,       -0.0126953125,       -0.2348632812,      -21.0876464844,        5.7067871094,       52.8106689453
1494035436.6863720417,       -0.5952148438,       -0.0126953125,       -0.2348632812,      -21.0876464844,        5.7067871094,       52.8106689453
1494035436.6890559196,       -0.5952148438,       -0.0126953125,       -0.2348632812,      -14.1448974609,        2.4871826172,       54.7180175781
1494035436.6917350292,       -0.5000000000,        0.4873046875,       -0.0659179688,      -14.1448974609,        2.4871826172,       54.7180175781
1494035436.6944611073,       -0.5000000000,        0.4873046875,       -0.0659179688,        6.1340332031,        3.7689208984,       44.2352294922
1494035436.6971459389,       -0.5000000000,        0.4873046875,       -0.0659179688,        6.1340332031,        3.7689208984,       44.2352294922
1494035436.6998240948,       -0.5000000000,       -0.0126953125,       -0.0346679688,       19.0124511719,        3.8146972656,       32.0892333984
1494035436.7025101185,       -0.7109375000,       -0.0659179688,       -0.0346679688,       19.0124511719,        3.8146972656,       32.0892333984
1494035436.7052009106,       -0.7109375000,       -0.0659179688,       -0.0346679688,       18.0053710938,        4.2114257812,       27.9846191406
1494035436.7078859806,       -0.7109375000,       -0.0659179688,       -0.0346679688,       18.0053710938,        4.2114257812,       27.9846191406
1494035436.7105729580,       -0.6557617188,       -0.0917968750,       -0.1333007812,        7.2631835938,        5.5084228516,       28.6102294922
1494035436.7134130001,       -0.6557617188,       -0.0917968750,       -0.1333007812,        7.2631835938,        5.5084228516,       28.6102294922
1494035436.7160871029,       -0.6557617188,       -0.0917968750,       -0.1333007812,       -0.3967285156,        6.1950683594,       25.7720947266
1494035436.7188229561,       -0.6557617188,       -0.0917968750,       -0.1333007812,       -0.3967285156,        6.1950683594,       25.7720947266
1494035436.7215979099,       -0.6479492188,       -0.0219726562,       -0.1025390625,       -0.8087158203,        5.3710937500,       18.8598632812
1494035436.7246849537,       -0.6479492188,       -0.0219726562,       -0.1025390625,       -0.8087158203,        5.3710937500,       18.8598632812
1494035436.7272439003,       -0.6479492188,       -0.0219726562,       -0.1025390625,       -2.7313232422,        4.6691894531,       14.3432617188
1494035436.7298018932,       -0.6479492188,       -0.0219726562,       -0.1025390625,       -2.7313232422,        4.6691894531,       14.3432617188
1494035436.7323501110,       -0.6918945312,        0.0419921875,       -0.1118164062,      -11.1389160156,        4.6386718750,       16.1590576172
1494035436.7349860668,       -0.6918945312,        0.0419921875,       -0.1118164062,      -11.1389160156,        4.6386718750,       16.1590576172
1494035436.7376449108,       -0.6918945312,        0.0419921875,       -0.1118164062,      -17.7917480469,        4.7607421875,       20.1416015625
1494035436.7402920723,       -0.6918945312,        0.4169921875,       -0.0883789062,      -17.7917480469,        4.7607421875,       20.1416015625
1494035436.7429499626,       -0.5917968750,        0.4555664062,       -0.0883789062,      -18.0816650391,        4.9133300781,       22.0184326172
1494035436.7457189560,       -0.5917968750,        0.4555664062,       -0.0883789062,      -18.0816650391,        4.9133300781,       22.0184326172
1494035436.7484169006,       -0.5917968750,        0.4555664062,       -0.0883789062,      -13.5040283203,        4.0893554688,       22.0794677734
1494035436.7511179447,       -0.4995117188,        0.5966796875,       -0.0615234375,      -13.5040283203,        4.0893554688,       22.0794677734
1494035436.7538950443,       -0.4995117188,        0.5966796875,       -0.0615234375,       -8.4533691406,        3.3264160156,       21.1181640625
1494035436.7564508915,       -0.4995117188,        0.5966796875,       -0.0615234375,       -8.4533691406,        3.3264160156,       21.1181640625
1494035436.7590079308,       -0.4995117188,        0.5966796875,       -0.0615234375,       -5.4321289062,        3.1127929688,       20.1873779297
1494035436.7615621090,       -0.4409179688,        0.5581054688,       -0.0595703125,       -5.4321289062,        3.1127929688,       20.1873779297
1494035436.7641239166,       -0.4409179688,        0.5581054688,       -0.0595703125,       -3.8909912109,        2.9296875000,       19.5465087891
1494035436.7666769028,       -0.4409179688,        0.5581054688,       -0.0595703125,       -3.8909912109,        2.9296875000,       19.5465087891
1494035436.7692339420,       -0.4409179688,        0.5581054688,       -0.0595703125,       -3.8909912109,        2.6702880859,       19.5007324219
1494035436.7717928886,       -0.4375000000,        0.4199218750,       -0.0473632812,       -5.1116943359,        2.6702880859,       19.5007324219
1494035436.7743859291,       -0.4375000000,        0.4199218750,       -0.0473632812,       -5.1116943359,        2.6702880859,       19.9432373047
1494035436.7769310474,       -0.4375000000,        0.4199218750,       -0.0473632812,       -7.3089599609,        1.3122558594,       19.9432373047
1494035436.7794880867,       -0.4375000000,        0.4199218750,       -0.0473632812,       -7.3089599609,        1.3122558594,       19.9432373047
1494035436.7820360661,       -0.4570312500,        0.3237304688,       -0.0307617188,       -7.8887939453,        0.0762939453,       19.5312500000
1494035436.7848010063,       -0.4570312500,        0.3237304688,       -0.0307617188,       -7.8887939453,        0.0762939453,       15.6250000000
1494035436.7874879837,       -0.4570312500,        0.3237304688,       -0.0307617188,       -8.8195800781,       -1.0833740234,       19.2108154297
1494035436.7901639938,       -0.4570312500,        0.3237304688,        0.0942382812,       -8.8195800781,       -1.0833740234,       19.2108154297
1494035436.7928490639,       -0.4829101562,        0.3110351562,        0.0405273438,      -11.9781494141,       -3.4942626953,       18.6462402344
1494035436.7955389023,       -0.4829101562,        0.3110351562,        0.0405273438,      -11.9781494141,       -3.4942626953,       18.6462402344
1494035436.7982180119,       -0.4829101562,        0.3110351562,        0.0405273438,      -16.4794921875,       -7.2479248047,       17.7154541016
1494035436.8009049892,       -0.4829101562,        0.3876953125,        0.1430664062,      -16.4794921875,       -7.2479248047,       17.7154541016
1494035436.8035891056,       -0.5678710938,        0.3876953125,        0.1430664062,      -17.6544189453,       -9.3078613281,       16.4642333984
1494035436.8062710762,       -0.5678710938,        0.3876953125,        0.1430664062,      -17.6544189453,       -9.3078613281,       16.4642333984
1494035436.8089580536,       -0.5678710938,        0.3876953125,        0.1430664062,      -16.3116455078,       -9.0026855469,       14.3737792969
1494035436.8116390705,       -0.7607421875,        0.4096679688,        0.0976562500,      -16.3116455078,       -9.0026855469,       14.3737792969
1494035436.8142890930,       -0.7607421875,        0.4096679688,        0.0976562500,      -14.2822265625,       -8.4228515625,       13.2293701172
1494035436.8168530464,       -0.7607421875,        0.4096679688,        0.0976562500,      -14.2822265625,       -8.4228515625,       13.2293701172
1494035436.8194088936,       -0.7607421875,        0.4096679688,        0.0976562500,      -14.0533447266,       -9.3383789062,       14.3432617188
1494035436.8220798969,       -0.8637695312,        0.3837890625,       -0.0322265625,      -14.0533447266,       -9.3383789062,       14.3432617188
1494035436.8248460293,       -0.8637695312,        0.3837890625,       -0.0322265625,      -14.1601562500,       -9.4909667969,       14.9688720703
1494035436.8275189400,       -0.8637695312,        0.3837890625,       -0.0322265625,      -14.1601562500,       -9.4909667969,       14.9688720703
1494035436.8300740719,       -0.8637695312,        0.3837890625,       -0.0322265625,      -11.9171142578,       -8.8958740234,       16.0522460938
1494035436.8326299191,       -0.9379882812,        0.3041992188,       -0.1508789062,      -11.9171142578,       -8.8958740234,       16.0522460938
1494035436.8354270458,       -0.9379882812,        0.3041992188,       -0.1508789062,       -9.0179443359,       -7.5836181641,       17.1813964844
1494035436.8380761147,       -0.9379882812,        0.3041992188,       -0.1508789062,       -9.0179443359,       -7.5836181641,       17.1813964844
1494035436.8409929276,       -0.9379882812,        0.3041992188,       -0.1806640625,       -9.8876953125,       -7.1563720703,       19.1650390625
1494035436.8437008858,       -0.8994140625,        0.2597656250,       -0.1806640625,       -9.8876953125,       -7.1563720703,       19.1650390625
1494035436.8463950157,       -0.8994140625,        0.2597656250,       -0.1806640625,      -14.2059326172,       -7.0343017578,       21.7895507812
1494035436.8490960598,       -0.8994140625,        0.2597656250,       -0.1806640625,      -14.2059326172,       -7.0343017578,       21.7895507812
1494035436.8517899513,       -0.8056640625,        0.2705078125,       -0.0810546875,      -17.3339843750,       -6.7749023438,       23.6663818359
1494035436.8545041084,       -0.8056640625,        0.2705078125,       -0.0810546875,      -17.3339843750,       -6.7749023438,       23.6663818359
1494035436.8572070599,       -0.8056640625,        0.2705078125,       -0.0810546875,      -16.8457031250,       -6.6528320312,       24.9023437500
1494035436.8599069118,       -0.8056640625,        0.2705078125,       -0.0810546875,      -16.8457031250,       -6.6528320312,       24.9023437500
1494035436.8626029491,       -0.7089843750,        0.3164062500,       -0.0268554688,      -16.0522460938,       -6.8817138672,       25.1617431641
1494035436.8653080463,       -0.7089843750,        0.3164062500,       -0.0268554688,      -16.0522460938,       -6.8817138672,       25.1617431641
1494035436.8685019016,       -0.7089843750,        0.3164062500,       -0.0268554688,      -16.6778564453,       -6.9274902344,       24.2767333984
1494035436.8712038994,       -0.7089843750,        0.3164062500,       -0.0224609375,      -16.6778564453,       -6.9274902344,       24.2767333984
1494035436.8738820553,       -0.6010742188,        0.4003906250,       -0.0224609375,      -17.4102783203,       -7.0343017578,       24.0631103516
1494035436.8764350414,       -0.6010742188,        0.4003906250,       -0.0224609375,      -17.4102783203,       -7.0343017578,       24.0631103516
1494035436.8789958954,       -0.6010742188,        0.4003906250,       -0.0224609375,      -16.8609619141,       -7.1868896484,       23.2086181641
1494035436.8815519810,       -0.6010742188,        0.4003906250,       -0.0341796875,      -16.8609619141,       -7.1868896484,       23.2086181641
1494035436.8841679096,       -0.5073242188,        0.4809570312,       -0.0341796875,      -16.0522460938,       -8.3160400391,       21.9726562500
1494035436.8868699074,       -0.5073242188,        0.4809570312,       -0.0341796875,      -16.0522460938,       -8.3160400391,       21.9726562500
1494035436.8895580769,       -0.5073242188,        0.4809570312,       -0.0341796875,      -18.9361572266,       -8.3007812500,       19.2565917969
1494035436.8922550678,       -0.4892578125,        0.4824218750,       -0.0263671875,      -18.9361572266,       -8.3007812500,       19.2565917969
1494035436.8949649334,       -0.4892578125,        0.4824218750,       -0.0263671875,      -22.5219726562,       -8.4228515625,       16.3421630859
1494035436.8976659775,       -0.4892578125,        0.4824218750,       -0.0263671875,      -22.5219726562,       -8.4228515625,       16.3421630859
1494035436.9003610611,       -0.4892578125,        0.4824218750,       -0.0263671875,      -22.7203369141,       -8.7432861328,       14.4042968750
1494035436.9031960964,       -0.5463867188,        0.4794921875,       -0.0170898438,      -22.7203369141,       -8.7432861328,       14.4042968750
1494035436.9057559967,       -0.5463867188,        0.4794921875,       -0.0170898438,      -21.5759277344,       -8.6059570312,       12.5274658203
1494035436.9083158970,       -0.5463867188,        0.4794921875,       -0.0170898438,      -21.5759277344,       -8.6059570312,       12.5274658203
1494035436.9108729362,       -0.5463867188,        0.4794921875,       -0.0170898438,      -21.5759277344,       -8.6822509766,       10.6201171875
1494035436.9135870934,       -0.6230468750,        0.4365234375,       -0.0156250000,      -19.6990966797,       -8.6822509766,       10.6201171875
1494035436.9161410332,       -0.6230468750,        0.4365234375,       -0.0156250000,      -19.6990966797,       -8.6822509766,        9.2773437500
1494035436.9186971188,       -0.6230468750,        0.4365234375,       -0.0156250000,      -17.9443359375,       -9.0179443359,        9.2773437500
1494035436.9213359356,       -0.6230468750,        0.4365234375,       -0.0156250000,      -17.9443359375,       -9.0179443359,        8.3312988281
1494035436.9240090847,       -0.6777343750,        0.4248046875,       -0.0078125000,      -16.3116455078,       -9.1552734375,        8.3312988281
1494035436.9265658855,       -0.6777343750,        0.4248046875,       -0.0078125000,      -16.3116455078,       -9.1552734375,        7.4768066406
1494035436.9291200638,       -0.6777343750,        0.4248046875,       -0.0078125000,      -14.4042968750,       -9.6435546875,        7.4768066406
1494035436.9316740036,       -0.6777343750,        0.4248046875,        0.0039062500,      -14.4042968750,       -9.6435546875,        7.4768066406
1494035436.9343199730,       -0.6933593750,        0.4160156250,        0.0039062500,      -12.8021240234,       -9.7808837891,        6.9732666016
1494035436.9370191097,       -0.6933593750,        0.4160156250,        0.0039062500,      -12.8021240234,       -9.7808837891,        6.9732666016
1494035436.9397161007,       -0.6933593750,        0.4160156250,        0.0039062500,      -11.5356445312,       -9.7503662109,        6.7901611328
1494035436.9424080849,       -0.6933593750,        0.4018554688,        0.0019531250,      -11.5356445312,       -9.7503662109,        6.7901611328
1494035436.9451088905,       -0.6679687500,        0.4018554688,        0.0019531250,      -10.8032226562,       -9.5062255859,        6.1035156250
1494035436.9477999210,       -0.6679687500,        0.4018554688,        0.0019531250,      -10.8032226562,       -9.5062255859,        6.1035156250
1494035436.9504909515,       -0.6679687500,        0.4018554688,        0.0019531250,       -9.6740722656,       -9.2468261719,        6.2866210938
1494035436.9531939030,       -0.6264648438,        0.3857421875,       -0.0209960938,       -9.6740722656,       -9.2468261719,        6.2866210938
1494035436.9558949471,       -0.6264648438,        0.3857421875,       -0.0209960938,       -9.1552734375,       -8.7585449219,        6.7138671875
1494035436.9586009979,       -0.6264648438,        0.3857421875,       -0.0209960938,       -9.1552734375,       -8.7585449219,        6.7138671875
1494035436.9612898827,       -0.6264648438,        0.3857421875,       -0.0209960938,       -9.2926025391,       -8.7890625000,        7.1258544922
1494035436.9639859200,       -0.6162109375,        0.4057617188,       -0.0117187500,       -9.2926025391,       -8.7890625000,        7.1258544922
1494035436.9666700363,       -0.6162109375,        0.4057617188,       -0.0117187500,       -9.0179443359,       -8.9569091797,        7.0648193359
1494035436.9693610668,       -0.6162109375,        0.4057617188,       -0.0117187500,       -9.0179443359,       -8.9569091797,        7.0648193359
1494035436.9720439911,       -0.6162109375,        0.4057617188,        0.0122070312,       -9.9792480469,       -8.6059570312,        6.3323974609
1494035436.9747810364,       -0.6586914062,        0.3964843750,        0.0122070312,       -9.9792480469,       -8.6059570312,        6.3323974609
1494035436.9773321152,       -0.6586914062,        0.3964843750,        0.0122070312,      -12.2528076172,       -7.8277587891,        5.8898925781
1494035436.9800438881,       -0.6586914062,        0.3964843750,        0.0122070312,      -12.2528076172,       -7.8277587891,        5.8898925781
1494035436.9826030731,       -0.6586914062,        0.3837890625,       -0.0122070312,      -13.9770507812,       -7.6904296875,        6.3781738281
1494035436.9853138924,       -0.6591796875,        0.3837890625,       -0.0122070312,      -13.9770507812,       -7.6904296875,        6.3781738281
1494035436.9880020618,       -0.6591796875,        0.3837890625,       -0.0122070312,      -15.5944824219,       -6.8817138672,        7.0037841797
1494035436.9906899929,       -0.6591796875,        0.3837890625,       -0.0122070312,      -15.5944824219,       -6.8817138672,        7.0037841797
1494035436.9934670925,       -0.6611328125,        0.3754882812,        0.0092773438,      -17.1203613281,       -5.2337646484,        7.7667236328
1494035436.9961318970,       -0.6611328125,        0.3754882812,        0.0092773438,      -17.1203613281,       -5.2337646484,        7.7667236328
1494035436.9992289543,       -0.6611328125,        0.3754882812,        0.0092773438,      -17.2882080078,       -5.2185058594,        7.9650878906
1494035437.0023980141,       -0.6611328125,        0.3754882812,        0.0419921875,      -17.2882080078,       -5.2185058594,        7.9650878906
1494035437.0051009655,       -0.6464843750,        0.3798828125,        0.0419921875,      -18.8293457031,       -5.4779052734,        7.3699951172
1494035437.0077788830,       -0.6464843750,        0.3798828125,        0.0419921875,      -18.8293457031,       -5.4779052734,        7.3699951172
1494035437.0104570389,       -0.6464843750,        0.3798828125,        0.0419921875,      -21.9268798828,       -5.1727294922,        6.6986083984
1494035437.0131859779,       -0.6303710938,        0.3901367188,        0.0107421875,      -21.9268798828,       -5.1727294922,        6.6986083984
1494035437.0157430172,       -0.6303710938,        0.3901367188,        0.0107421875,      -23.9715576172,       -5.0048828125,        6.6986083984
1494035437.0182969570,       -0.6303710938,        0.3901367188,        0.0107421875,      -23.9715576172,       -5.0048828125,        6.6986083984
1494035437.0209829807,       -0.6303710938,        0.3901367188,        0.0107421875,      -23.0712890625,       -6.1035156250,        7.5225830078
1494035437.0235390663,       -0.5971679688,        0.4194335938,       -0.0166015625,      -23.0712890625,       -6.1035156250,        7.5225830078
1494035437.0260939598,       -0.5971679688,        0.4194335938,       -0.0166015625,      -21.3012695312,       -6.5002441406,        7.9498291016
1494035437.0286469460,       -0.5971679688,        0.4194335938,       -0.0166015625,      -21.3012695312,       -6.5002441406,        7.9498291016
1494035437.0312008858,       -0.5971679688,        0.4194335938,       -0.0166015625,      -20.6298828125,       -7.0190429688,        8.3007812500
1494035437.0337629318,       -0.5957031250,        0.4145507812,       -0.0048828125,      -20.6298828125,       -7.0190429688,        8.3007812500
1494035437.0363190174,       -0.5957031250,        0.4145507812,       -0.0048828125,      -19.6685791016,       -7.2479248047,        8.0718994141
1494035437.0388751030,       -0.5957031250,        0.4145507812,       -0.0048828125,      -19.6685791016,       -7.2479248047,        8.0718994141
1494035437.0414340496,       -0.5957031250,        0.4145507812,       -0.0048828125,      -19.6685791016,       -7.4157714844,        8.3007812500
1494035437.0441639423,       -0.6225585938,        0.4052734375,        0.0273437500,      -18.1427001953,       -7.4157714844,        8.3007812500
1494035437.0467219353,       -0.6225585938,        0.4052734375,        0.0273437500,      -18.1427001953,       -7.4157714844,        9.3383789062
1494035437.0493929386,       -0.6225585938,        0.4052734375,        0.0273437500,      -17.4102783203,       -7.2784423828,        9.3383789062
1494035437.0519440174,       -0.6225585938,        0.4052734375,        0.0273437500,      -17.4102783203,       -7.2784423828,       10.2691650391
1494035437.0547270775,       -0.6230468750,        0.3901367188,        0.0356445312,      -16.3879394531,       -7.7514648438,       10.2691650391
1494035437.0574290752,       -0.6230468750,        0.3901367188,        0.0356445312,      -16.3879394531,      -11.6577148438,       11.2915039062
1494035437.0601310730,       -0.6230468750,        0.3901367188,        0.0356445312,      -13.8092041016,       -8.6212158203,       11.2915039062
1494035437.0628271103,       -0.6230468750,        0.3901367188,        0.0229492188,      -13.8092041016,       -8.6212158203,       11.6729736328
1494035437.0655350685,       -0.6015625000,        0.3701171875,        0.0229492188,      -13.7023925781,       -8.3923339844,       11.6729736328
1494035437.0682370663,       -0.6015625000,        0.3701171875,        0.0229492188,      -13.7023925781,       -8.3923339844,       11.2304687500
1494035437.0709359646,       -0.6015625000,        0.3701171875,        0.0229492188,      -15.9149169922,       -7.9803466797,       11.2304687500
1494035437.0736629963,       -0.6015625000,        0.4125976562,        0.0234375000,      -15.9149169922,       -7.9803466797,       11.0626220703
1494035437.0762219429,       -0.6044921875,        0.4125976562,        0.0234375000,      -17.8375244141,       -7.4768066406,       11.0626220703
1494035437.0787739754,       -0.6044921875,        0.4125976562,        0.0234375000,      -17.8375244141,       -7.4768066406,       11.0626220703
1494035437.0813291073,       -0.6044921875,        0.4125976562,        0.0234375000,      -17.5781250000,       -7.1716308594,       10.9710693359
1494035437.0839350224,       -0.6113281250,        0.4448242188,        0.0019531250,      -17.5781250000,       -7.1716308594,       10.9710693359
1494035437.0866239071,       -0.6113281250,        0.4448242188,        0.0019531250,      -16.6320800781,       -7.1105957031,       10.2844238281
1494035437.0893080235,       -0.6113281250,        0.4448242188,        0.0019531250,      -16.6320800781,       -7.1105957031,       10.2844238281
1494035437.0919890404,       -0.6113281250,        0.4448242188,        0.0019531250,      -14.7857666016,       -7.6141357422,        9.9182128906
1494035437.0946869850,       -0.6313476562,        0.4345703125,        0.0063476562,      -14.7857666016,       -7.6141357422,        9.9182128906
1494035437.0973720551,       -0.6313476562,        0.4345703125,        0.0063476562,      -13.6566162109,       -8.0261230469,       10.4064941406
1494035437.1000540257,       -0.6313476562,        0.4345703125,        0.0063476562,      -13.6566162109,       -8.0261230469,       10.4064941406
1494035437.1027369499,       -0.6313476562,        0.4345703125,        0.0063476562,      -11.7950439453,       -8.1176757812,       10.2386474609
1494035437.1054649353,       -0.6308593750,        0.4057617188,        0.0273437500,      -11.7950439453,       -8.1176757812,       10.2386474609
1494035437.1081519127,       -0.6308593750,        0.4057617188,        0.0273437500,      -10.4827880859,       -8.8043212891,       10.4064941406
1494035437.1109459400,       -0.6308593750,        0.4057617188,        0.0273437500,      -10.4827880859,       -8.8043212891,       10.4064941406
1494035437.1136689186,       -0.6308593750,        0.4023437500,        0.0385742188,      -10.0555419922,       -9.2773437500,       10.9710693359
1494035437.1163339615,       -0.6313476562,        0.4023437500,        0.0385742188,      -10.0555419922,       -9.2773437500,       10.9710693359
1494035437.1189939976,       -0.6313476562,        0.4023437500,        0.0385742188,       -9.0179443359,       -9.6130371094,       11.0321044922
1494035437.1217100620,       -0.6313476562,        0.4023437500,        0.0385742188,       -9.0179443359,       -9.6130371094,       11.0321044922
1494035437.1244599819,       -0.6230468750,        0.4067382812,        0.0063476562,       -7.6751708984,      -10.2844238281,       11.1846923828
1494035437.1270239353,       -0.6230468750,        0.4067382812,        0.0063476562,       -7.6751708984,      -10.2844238281,       11.1846923828
1494035437.1295790672,       -0.6230468750,        0.4067382812,        0.0063476562,       -6.3323974609,      -10.4980468750,       10.9252929688
1494035437.1321430206,       -0.6230468750,        0.4067382812,        0.0063476562,       -6.3323974609,      -10.4980468750,       10.9252929688
1494035437.1347920895,       -0.6323242188,        0.3867187500,        0.0200195312,       -5.0659179688,      -10.6048583984,       10.5133056641
1494035437.1374990940,       -0.6323242188,        0.3867187500,        0.0200195312,       -5.0659179688,      -10.6048583984,       10.5133056641
1494035437.1401929855,       -0.6323242188,        0.3867187500,        0.0200195312,       -4.7454833984,      -10.4675292969,        9.6893310547
1494035437.1428849697,       -0.6323242188,        0.3867187500,        0.0200195312,       -4.7454833984,      -10.4675292969,        9.6893310547
1494035437.1454710960,       -0.6147460938,        0.4018554688,        0.0341796875,       -5.5999755859,      -11.0321044922,        8.5754394531
1494035437.1480219364,       -0.6147460938,        0.4018554688,        0.0341796875,       -5.5999755859,      -11.0321044922,        8.5754394531
1494035437.1505730152,       -0.6147460938,        0.4018554688,        0.0341796875,       -5.7373046875,      -11.2152099609,        7.6751708984
1494035437.1531300545,       -0.6147460938,        0.4018554688,        0.0341796875,       -5.7373046875,      -11.2152099609,        7.6751708984
1494035437.1558299065,       -0.5986328125,        0.4316406250,        0.0170898438,       -5.7373046875,      -11.8103027344,        7.1411132812
1494035437.1583859921,       -0.5986328125,        0.4316406250,        0.0170898438,       -5.5236816406,      -11.8103027344,        7.1411132812
1494035437.1609389782,       -0.5986328125,        0.4316406250,        0.0170898438,       -5.5236816406,      -11.8103027344,        6.4086914062
1494035437.1636209488,       -0.5986328125,        0.4316406250,       -0.0034179688,       -5.2032470703,      -12.0697021484,        6.4086914062
1494035437.1663229465,       -0.6201171875,        0.4160156250,       -0.0034179688,       -5.2032470703,      -12.0697021484,        5.7373046875
1494035437.1690149307,       -0.6201171875,        0.4160156250,       -0.0034179688,       -4.1351318359,      -12.6953125000,        5.7373046875
1494035437.1717050076,       -0.6201171875,        0.4160156250,       -0.0034179688,       -4.1351318359,      -12.6953125000,        4.6234130859
1494035437.1743469238,       -0.6201171875,        0.4414062500,        0.0205078125,       -4.5471191406,      -12.9547119141,        4.6234130859
1494035437.1768960953,       -0.6474609375,        0.4414062500,        0.0205078125,       -4.5471191406,      -12.9547119141,        4.6234130859
1494035437.1794519424,       -0.6474609375,        0.4414062500,        0.0205078125,       -5.4016113281,      -13.0920410156,        4.1503906250
1494035437.1820070744,       -0.6474609375,        0.4414062500,        0.0205078125,       -5.4016113281,      -13.0920410156,        4.1503906250
1494035437.1846840382,       -0.6245117188,        0.4570312500,        0.0307617188,       -6.0729980469,      -12.9852294922,        2.9907226562
1494035437.1873800755,       -0.6245117188,        0.4570312500,        0.0307617188,       -6.0729980469,      -12.9852294922,        2.9907226562
1494035437.1900689602,       -0.6245117188,        0.4570312500,        0.0307617188,       -5.6304931641,      -12.9394531250,        2.4414062500
1494035437.1927580833,       -0.6245117188,        0.4570312500,        0.0307617188,       -5.6304931641,      -12.9394531250,        2.4414062500
1494035437.1956040859,       -0.6010742188,        0.4506835938,        0.0327148438,       -4.8217773438,      -12.8021240234,        1.6479492188
1494035437.1982960701,       -0.6010742188,        0.4506835938,        0.0327148438,       -4.8217773438,      -12.8021240234,        1.6479492188
1494035437.2009899616,       -0.6010742188,        0.4506835938,        0.0327148438,       -4.3487548828,      -11.6271972656,        0.7934570312
1494035437.2036850452,       -0.6010742188,        0.4506835938,        0.0327148438,       -4.3487548828,      -11.6271972656,        0.7934570312
1494035437.2063789368,       -0.5781250000,        0.4199218750,        0.0571289062,       -3.6010742188,      -11.2304687500,        0.2593994141
1494035437.2091360092,       -0.5781250000,        0.4199218750,        0.0571289062,       -3.6010742188,      -11.2304687500,        0.2593994141
1494035437.2116999626,       -0.5781250000,        0.4199218750,        0.0571289062,       -3.7841796875,      -11.8865966797,       -0.0610351562
1494035437.2144029140,       -0.5781250000,        0.4199218750,        0.0673828125,       -3.7841796875,      -11.8865966797,       -0.0610351562
1494035437.2170600891,       -0.5893554688,        0.4184570312,        0.0673828125,       -4.3792724609,      -10.9558105469,       -0.9307861328
1494035437.2198250294,       -0.5893554688,        0.4184570312,        0.0673828125,       -4.3792724609,      -10.9558105469,       -0.9307861328
1494035437.2228679657,       -0.5893554688,        0.4184570312,        0.0673828125,       -5.4473876953,       -9.2163085938,       -1.3427734375
1494035437.2254550457,       -0.6337890625,        0.4189453125,        0.0644531250,       -5.4473876953,       -9.2163085938,       -1.3427734375
1494035437.2280058861,       -0.6337890625,        0.4189453125,        0.0644531250,       -7.2631835938,       -7.2937011719,       -1.9531250000
1494035437.2305619717,       -0.6337890625,        0.4189453125,        0.0644531250,       -7.2631835938,       -7.2937011719,       -1.9531250000
1494035437.2331070900,       -0.6337890625,        0.4189453125,        0.0644531250,       -8.1176757812,       -7.1716308594,       -1.4495849609
1494035437.2358019352,       -0.6464843750,        0.3984375000,        0.0634765625,       -8.1176757812,       -7.1716308594,       -1.4495849609
1494035437.2384860516,       -0.6464843750,        0.3984375000,        0.0634765625,       -6.5307617188,       -7.4005126953,       -1.3732910156
1494035437.2411699295,       -0.6464843750,        0.3984375000,        0.0634765625,       -6.5307617188,       -7.4005126953,       -1.3732910156
1494035437.2438390255,       -0.6464843750,        0.3984375000,        0.0634765625,       -3.8452148438,       -7.5836181641,       -1.7089843750
1494035437.2463850975,       -0.6489257812,        0.4194335938,        0.0522460938,       -3.8452148438,       -7.5836181641,       -1.7089843750
1494035437.2489349842,       -0.6489257812,        0.4194335938,        0.0522460938,       -1.8768310547,       -8.4228515625,       -2.0751953125
1494035437.2514810562,       -0.6489257812,        0.4194335938,        0.0522460938,       -1.8768310547,       -8.4228515625,       -2.0751953125
1494035437.2540650368,       -0.6489257812,        0.4194335938,        0.0522460938,        1.1138916016,      -10.0250244141,       -1.6784667969
1494035437.2566189766,       -0.6298828125,        0.4296875000,        0.0214843750,        1.1138916016,      -10.0250244141,       -1.6784667969
1494035437.2591700554,       -0.6298828125,        0.4296875000,        0.0214843750,        1.1138916016,      -11.0015869141,       -1.8615722656
1494035437.2617230415,       -0.6298828125,        0.4296875000,        0.0214843750,        3.0822753906,      -11.0015869141,       -1.8615722656
1494035437.2643640041,       -0.6298828125,        0.4296875000,        0.0214843750,        3.0822753906,      -11.0015869141,       -2.1820068359
1494035437.2669138908,       -0.5854492188,        0.4272460938,        0.0166015625,        3.5247802734,      -11.3220214844,       -2.1820068359
1494035437.2695751190,       -0.5854492188,        0.4272460938,        0.0166015625,        3.5247802734,      -11.3220214844,       -2.2888183594
1494035437.2721269131,       -0.5854492188,        0.4272460938,        0.0166015625,        4.4403076172,      -11.7797851562,       -2.2888183594
1494035437.2747769356,       -0.5854492188,        0.4272460938,        0.0556640625,        4.4403076172,      -11.7797851562,       -2.2888183594
1494035437.2773289680,       -0.5913085938,        0.4418945312,        0.0556640625,        5.2642822266,      -12.8326416016,       -3.5400390625
1494035437.2798769474,       -0.5913085938,        0.4418945312,        0.0556640625,        5.2642822266,      -12.8326416016,       -3.5400390625
1494035437.2824289799,       -0.5913085938,        0.4418945312,        0.0556640625,        4.9133300781,      -12.7868652344,       -4.5776367188
1494035437.2851231098,       -0.5913085938,        0.4277343750,        0.0439453125,        4.9133300781,      -12.7868652344,       -4.5776367188
1494035437.2878119946,       -0.6166992188,        0.4277343750,        0.0439453125,        4.6844482422,      -11.8713378906,       -5.5847167969
1494035437.2905058861,       -0.6166992188,        0.4277343750,        0.0439453125,        4.6844482422,      -11.8713378906,       -5.5847167969
1494035437.2932040691,       -0.6166992188,        0.4277343750,        0.0439453125,        3.8146972656,      -10.1470947266,       -6.8054199219
1494035437.2958950996,       -0.6147460938,        0.4262695312,        0.0498046875,        3.8146972656,      -10.1470947266,       -6.8054199219
1494035437.2985870838,       -0.6147460938,        0.4262695312,        0.0498046875,        2.9602050781,       -9.6435546875,       -7.9498291016
1494035437.3012719154,       -0.6147460938,        0.4262695312,        0.0498046875,        2.9602050781,       -9.6435546875,       -7.9498291016
1494035437.3039729595,       -0.6147460938,        0.4262695312,        0.0498046875,        2.5634765625,      -10.0250244141,       -8.7280273438
1494035437.3066670895,       -0.6020507812,        0.4458007812,        0.0678710938,        2.5634765625,      -10.0250244141,       -8.7280273438
1494035437.3093619347,       -0.6020507812,        0.4458007812,        0.0678710938,        1.9378662109,      -10.3302001953,       -9.7808837891
1494035437.3120489120,       -0.6020507812,        0.4458007812,        0.0678710938,        1.9378662109,      -10.3302001953,       -9.7808837891
1494035437.3147521019,       -0.6020507812,        0.4458007812,        0.0678710938,        1.2054443359,       -9.3841552734,      -11.3525390625
1494035437.3174459934,       -0.6074218750,        0.4335937500,        0.0571289062,        1.2054443359,       -9.3841552734,      -11.3525390625
1494035437.3201389313,       -0.6074218750,        0.4335937500,        0.0571289062,       -0.1831054688,       -8.9111328125,      -11.2762451172
1494035437.3228299618,       -0.6074218750,        0.4335937500,        0.0571289062,       -0.1831054688,       -8.9111328125,      -11.2762451172
1494035437.3254129887,       -0.6074218750,        0.4335937500,        0.0473632812,       -0.9155273438,       -9.3688964844,      -11.7340087891
1494035437.3279650211,       -0.6108398438,        0.4282226562,        0.0473632812,       -0.9155273438,       -9.3688964844,      -11.7340087891
1494035437.3306400776,       -0.6108398438,        0.4282226562,        0.0473632812,       -2.8228759766,       -8.6212158203,      -13.6108398438
1494035437.3336100578,       -0.6108398438,        0.4282226562,        0.0473632812,       -2.8228759766,       -8.6212158203,      -13.6108398438
1494035437.3363070488,       -0.6386718750,        0.4272460938,        0.0756835938,       -5.9356689453,       -6.2255859375,      -15.3961181641
1494035437.3389968872,       -0.6386718750,        0.4272460938,        0.0756835938,       -5.9356689453,       -6.2255859375,      -15.3961181641
1494035437.3416841030,       -0.6386718750,        0.4272460938,        0.0756835938,       -7.5836181641,       -4.1351318359,      -15.8233642578
1494035437.3444941044,       -0.6386718750,        0.4272460938,        0.0756835938,       -7.5836181641,       -4.1351318359,      -15.8233642578
1494035437.3471920490,       -0.6269531250,        0.4028320312,        0.0976562500,       -9.1705322266,       -2.7313232422,      -15.6860351562
1494035437.3498840332,       -0.6269531250,        0.4028320312,        0.0976562500,       -9.1705322266,       -2.7313232422,      -15.6860351562
1494035437.3525769711,       -0.6269531250,        0.4028320312,        0.0976562500,       -9.8724365234,       -0.9613037109,      -15.9912109375
1494035437.3552858829,       -0.6269531250,        0.4028320312,        0.1313476562,       -9.8724365234,       -0.9613037109,      -15.9912109375
1494035437.3579769135,       -0.6054687500,        0.3999023438,        0.1313476562,      -10.0860595703,        1.0070800781,      -15.7165527344
1494035437.3606669903,       -0.6054687500,        0.3999023438,        0.1313476562,      -10.0860595703,        1.0070800781,      -15.7165527344
1494035437.3634259701,       -0.6054687500,        0.3999023438,        0.1313476562,      -10.0402832031,        2.0599365234,      -17.0745849609
1494035437.3659839630,       -0.6054687500,        0.4418945312,        0.1328125000,      -10.0402832031,        2.0599365234,      -17.0745849609
1494035437.3685390949,       -0.5888671875,        0.4418945312,        0.1328125000,       -9.6588134766,        2.7618408203,      -19.5770263672
1494035437.3710880280,       -0.5888671875,        0.4418945312,        0.1328125000,       -9.6588134766,        2.7618408203,      -19.5770263672
1494035437.3736939430,       -0.5888671875,        0.4418945312,        0.1328125000,       -9.6588134766,        3.0822753906,      -19.7753906250
1494035437.3762519360,       -0.5888671875,        0.4306640625,        0.0512695312,       -8.6669921875,        3.0822753906,      -19.7753906250
1494035437.3788080215,       -0.5947265625,        0.4306640625,        0.0512695312,       -8.6669921875,        3.0822753906,      -19.8669433594
1494035437.3813650608,       -0.5947265625,        0.4306640625,        0.0512695312,       -7.2784423828,        3.7078857422,      -19.8669433594
1494035437.3840179443,       -0.5947265625,        0.4306640625,        0.0512695312,       -7.2784423828,        3.7078857422,      -19.5312500000
1494035437.3865690231,       -0.6274414062,        0.4165039062,        0.0073242188,       -6.1950683594,        4.8980712891,      -19.5312500000
1494035437.3891229630,       -0.6274414062,        0.4165039062,        0.0073242188,       -6.1950683594,        4.8980712891,      -19.5312500000
1494035437.3916790485,       -0.6274414062,        0.4165039062,        0.0073242188,       -5.9967041016,        6.6833496094,      -19.5312500000
1494035437.3944098949,       -0.6274414062,        0.4165039062,        0.0073242188,       -5.9967041016,        6.6833496094,      -19.5312500000
1494035437.3971059322,       -0.6611328125,        0.4277343750,        0.0185546875,       -5.6762695312,        7.7972412109,      -19.4091796875
1494035437.3997960091,       -0.6611328125,        0.4277343750,        0.0185546875,       -5.6762695312,        7.7972412109,      -19.4091796875
1494035437.4024910927,       -0.6611328125,        0.4277343750,        0.0185546875,       -5.1879882812,        7.7209472656,      -18.4936523438
1494035437.4051909447,       -0.6611328125,        0.4277343750,        0.0185546875,       -5.1879882812,        7.7209472656,      -18.4936523438
1494035437.4078829288,       -0.6708984375,        0.3745117188,        0.0415039062,       -4.9285888672,        7.8735351562,      -17.2424316406
1494035437.4105849266,       -0.6708984375,        0.3745117188,        0.0415039062,       -4.9285888672,        7.8735351562,      -17.2424316406
1494035437.4132919312,       -0.6708984375,        0.3745117188,        0.0415039062,       -3.4637451172,        8.2092285156,      -16.4489746094
1494035437.4159541130,       -0.6708984375,        0.3745117188,        0.0380859375,       -3.4637451172,        8.2092285156,      -16.4489746094
1494035437.4185109138,       -0.6967773438,        0.3706054688,        0.0380859375,       -2.1514892578,        7.3089599609,      -15.4724121094
1494035437.4210720062,       -0.6967773438,        0.3706054688,        0.0380859375,       -2.1514892578,        7.3089599609,      -15.4724121094
1494035437.4236741066,       -0.6967773438,        0.3706054688,        0.0380859375,       -2.7008056641,        6.8511962891,      -14.3737792969
1494035437.4262259007,       -0.6967773438,        0.4956054688,        0.0405273438,       -2.7008056641,        6.8511962891,      -14.3737792969
1494035437.4287750721,       -0.6601562500,        0.4086914062,        0.0405273438,       -3.5095214844,        6.8664550781,      -14.0686035156
1494035437.4313230515,       -0.6601562500,        0.4086914062,        0.0405273438,       -3.5095214844,        6.8664550781,      -14.0686035156
1494035437.4339830875,       -0.6601562500,        0.4086914062,        0.0405273438,       -2.8686523438,        6.1492919922,      -14.5111083984
1494035437.4365329742,       -0.6601562500,        0.4160156250,        0.0322265625,       -2.8686523438,        6.1492919922,      -14.5111083984
1494035437.4390890598,       -0.6162109375,        0.4160156250,        0.0322265625,       -2.1057128906,        5.7983398438,      -14.7094726562
1494035437.4416410923,       -0.6162109375,        0.4160156250,        0.0322265625,       -2.1057128906,        5.7983398438,      -14.7094726562
1494035437.4443049431,       -0.6162109375,        0.4160156250,        0.0322265625,       -2.1057128906,        5.2642822266,      -14.7705078125
1494035437.4469969273,       -0.6000976562,        0.4116210938,        0.0244140625,       -1.3427734375,        5.2642822266,      -14.7705078125
1494035437.4497790337,       -0.6000976562,        0.4116210938,        0.0244140625,       -1.3427734375,        4.4097900391,      -15.4113769531
1494035437.4524810314,       -0.6000976562,        0.4116210938,        0.0244140625,       -0.0915527344,        4.4097900391,      -15.4113769531
1494035437.4555630684,       -0.6000976562,        0.4116210938,        0.0244140625,        0.7629394531,        3.8299560547,      -16.5710449219
1494035437.4582540989,       -0.5996093750,        0.4189453125,        0.0239257812,        0.7629394531,        3.8299560547,      -16.5710449219
1494035437.4609510899,       -0.5996093750,        0.4189453125,        0.0239257812,        0.6713867188,        2.9144287109,      -18.1427001953
1494035437.4636440277,       -0.5996093750,        0.4189453125,        0.0239257812,        0.6713867188,        2.9144287109,      -18.1427001953
1494035437.4661989212,       -0.5996093750,        0.4189453125,        0.0410156250,        0.6713867188,        2.4871826172,      -19.0277099609
1494035437.4687600136,       -0.6132812500,        0.4077148438,        0.0410156250,        0.3662109375,        2.4871826172,      -19.0277099609
1494035437.4713120461,       -0.6132812500,        0.4077148438,        0.0410156250,        0.3662109375,        2.4871826172,      -20.2941894531
1494035437.4739139080,       -0.6132812500,        0.4077148438,        0.0410156250,       -0.4119873047,        2.0294189453,      -20.2941894531
1494035437.4766130447,       -0.6132812500,        0.4077148438,        0.0468750000,       -0.4119873047,        2.0294189453,      -21.4385986328
1494035437.4793059826,       -0.6264648438,        0.3789062500,        0.0468750000,       -0.7934570312,        1.5869140625,      -21.4385986328
1494035437.4819989204,       -0.6264648438,        0.3789062500,        0.0468750000,       -0.7934570312,        1.5869140625,      -22.5524902344
1494035437.4846310616,       -0.6264648438,        0.3789062500,        0.0468750000,       -0.8087158203,        0.7934570312,      -22.5524902344
1494035437.4871869087,       -0.6264648438,        0.4042968750,        0.0463867188,       -0.8087158203,        0.7934570312,      -22.5524902344
1494035437.4898650646,       -0.6430664062,        0.4042968750,        0.0463867188,       -0.9765625000,        0.3662109375,      -23.2086181641
1494035437.4924221039,       -0.6430664062,        0.4042968750,        0.0463867188,       -0.9765625000,        0.3662109375,      -27.1148681641
1494035437.4950280190,       -0.6430664062,        0.4042968750,        0.0463867188,       -0.1983642578,       -0.0762939453,      -23.7579345703
1494035437.4975810051,       -0.6777343750,        0.3623046875,        0.0253906250,       -0.1983642578,       -0.0762939453,      -23.7579345703
1494035437.5001370907,       -0.6777343750,        0.3623046875,        0.0253906250,        0.4119873047,       -0.1220703125,      -23.5595703125
1494035437.5026860237,       -0.6777343750,        0.3623046875,        0.0253906250,        0.4119873047,       -0.1220703125,      -23.5595703125
1494035437.5053870678,       -0.6777343750,        0.3623046875,        0.0253906250,       -0.3509521484,        0.1525878906,      -23.3917236328
1494035437.5079400539,       -0.6523437500,        0.3681640625,        0.0458984375,       -0.3509521484,        0.1525878906,      -23.3917236328
1494035437.5104939938,       -0.6523437500,        0.3681640625,        0.0458984375,       -1.5563964844,       -0.4577636719,      -23.5748291016
1494035437.5130510330,       -0.6523437500,        0.3681640625,        0.0458984375,       -1.5563964844,       -0.4577636719,      -23.5748291016
1494035437.5156979561,       -0.6523437500,        0.3681640625,        0.0458984375,       -1.4953613281,       -0.4882812500,      -24.1851806641
1494035437.5182509422,       -0.6259765625,        0.4189453125,        0.0595703125,       -1.4953613281,       -0.4882812500,      -24.1851806641
1494035437.5208039284,       -0.6259765625,        0.4189453125,        0.0595703125,       -0.6256103516,       -0.3356933594,      -24.7650146484
1494035437.5234251022,       -0.6259765625,        0.4189453125,        0.0595703125,       -0.6256103516,       -0.3356933594,      -24.7650146484
1494035437.5261139870,       -0.6259765625,        0.4189453125,        0.0595703125,        0.9918212891,       -0.3967285156,      -25.5279541016
1494035437.5288031101,       -0.6440429688,        0.3891601562,        0.0278320312,        0.9918212891,       -0.3967285156,      -25.5279541016
1494035437.5314939022,       -0.6440429688,        0.3891601562,        0.0278320312,        0.9918212891,       -0.9155273438,      -25.0244140625
1494035437.5341889858,       -0.6440429688,        0.3891601562,        0.0278320312,        1.9073486328,       -0.9155273438,      -25.0244140625
1494035437.5368790627,       -0.6440429688,        0.3891601562,        0.0410156250,        1.9073486328,       -0.9765625000,      -24.4293212891
1494035437.5395700932,       -0.6333007812,        0.3691406250,        0.0410156250,        1.7242431641,       -0.9765625000,      -24.4293212891
1494035437.5422599316,       -0.6333007812,        0.3691406250,        0.0410156250,        1.7242431641,       -1.2512207031,      -24.3377685547
1494035437.5448811054,       -0.6333007812,        0.3691406250,        0.0410156250,        1.0375976562,       -1.2512207031,      -24.3377685547
1494035437.5474309921,       -0.6333007812,        0.4008789062,        0.0458984375,        1.0375976562,       -1.2512207031,      -24.9481201172
1494035437.5499789715,       -0.6181640625,        0.4008789062,        0.0458984375,        1.1596679688,       -1.3580322266,      -24.9481201172
1494035437.5525300503,       -0.6181640625,        0.4008789062,        0.0458984375,        1.1596679688,       -1.3580322266,      -25.2380371094
1494035437.5552148819,       -0.6181640625,        0.4008789062,        0.0458984375,        1.7547607422,       -0.9613037109,      -25.2380371094
1494035437.5577719212,       -0.7431640625,        0.3676757812,        0.0517578125,        1.7547607422,       -0.9613037109,      -25.2380371094
1494035437.5603311062,       -0.6513671875,        0.3676757812,        0.0517578125,        2.3651123047,       -0.6713867188,      -25.0701904297
1494035437.5630059242,       -0.6513671875,        0.3676757812,        0.0517578125,        2.3651123047,       -0.6713867188,      -25.0701904297
1494035437.5657570362,       -0.6513671875,        0.3676757812,        0.0517578125,        4.1503906250,       -0.4272460938,      -24.2767333984
1494035437.5684530735,       -0.6606445312,        0.3491210938,        0.0620117188,        4.1503906250,       -0.4272460938,      -24.2767333984
1494035437.5712900162,       -0.6606445312,        0.3491210938,        0.0620117188,        4.5318603516,       -0.3814697266,      -23.9410400391
1494035437.5742959976,       -0.6606445312,        0.3491210938,        0.0620117188,        4.5318603516,       -0.3814697266,      -23.5900878906
1494035437.5769960880,       -0.6606445312,        0.3491210938,        0.0620117188,        4.8370361328,       -0.3967285156,      -23.5900878906
1494035437.5796909332,       -0.6508789062,        0.3666992188,        0.0576171875,        4.8370361328,       -0.3967285156,      -24.5666503906
1494035437.5823891163,       -0.6508789062,        0.3666992188,        0.0576171875,        5.6915283203,       -0.3204345703,      -24.5666503906
1494035437.5850958824,       -0.6508789062,        0.3666992188,        0.0576171875,        5.6915283203,       -0.3204345703,      -25.7568359375
1494035437.5877881050,       -0.6508789062,        0.3715820312,        0.0644531250,        6.7901611328,       -0.7019042969,      -25.7568359375
1494035437.5904860497,       -0.6245117188,        0.3715820312,        0.0644531250,        6.7901611328,       -0.7019042969,      -25.7568359375
1494035437.5931909084,       -0.6245117188,        0.3715820312,        0.0644531250,        6.8969726562,       -1.6479492188,      -26.3824462891
1494035437.5958890915,       -0.6245117188,        0.3715820312,        0.0644531250,        6.8969726562,       -1.6479492188,      -26.3824462891
1494035437.5985848904,       -0.6376953125,        0.3515625000,        0.0419921875,        7.9650878906,       -2.5482177734,      -26.9775390625
1494035437.6012749672,       -0.6376953125,        0.3515625000,        0.0419921875,        7.9650878906,       -2.5482177734,      -26.9775390625
1494035437.6039509773,       -0.6376953125,        0.3515625000,        0.0419921875,        8.8195800781,       -2.8991699219,      -26.7333984375
1494035437.6065049171,       -0.6376953125,        0.3515625000,        0.0419921875,        8.8195800781,       -2.8991699219,      -26.7333984375
1494035437.6090528965,       -0.6621093750,        0.3315429688,        0.0131835938,        8.0566406250,       -3.2806396484,      -26.3671875000
1494035437.6116070747,       -0.6621093750,        0.3315429688,        0.0131835938,        8.0566406250,       -3.2806396484,      -26.3671875000
1494035437.6142230034,       -0.6621093750,        0.3315429688,        0.0131835938,        7.1105957031,       -3.7994384766,      -25.0091552734
1494035437.6167728901,       -0.6621093750,        0.3315429688,        0.0131835938,        7.1105957031,       -3.7994384766,      -25.0091552734
1494035437.6193289757,       -0.6484375000,        0.3793945312,        0.0302734375,        7.5988769531,       -4.2724609375,      -23.9715576172
1494035437.6218829155,       -0.6484375000,        0.3793945312,        0.0302734375,        7.5988769531,       -4.2724609375,      -23.9715576172
1494035437.6245610714,       -0.6484375000,        0.3793945312,        0.0302734375,        8.8195800781,       -4.8217773438,      -23.7731933594
1494035437.6271119118,       -0.6484375000,        0.3793945312,        0.0302734375,        8.8195800781,       -4.8217773438,      -23.7731933594
1494035437.6296629906,       -0.6738281250,        0.3525390625,        0.0297851562,       11.7034912109,       -5.8288574219,      -23.3612060547
1494035437.6322169304,       -0.6738281250,        0.3525390625,        0.0297851562,       11.7034912109,       -5.8288574219,      -23.3612060547
1494035437.6351161003,       -0.6738281250,        0.3525390625,        0.0297851562,       14.3890380859,       -6.9580078125,      -22.4304199219
1494035437.6377708912,       -0.6738281250,        0.3525390625,        0.0532226562,       14.3890380859,       -6.9580078125,      -22.4304199219
1494035437.6404750347,       -0.6855468750,        0.3320312500,        0.0532226562,       16.0217285156,       -6.8054199219,      -21.1639404297
1494035437.6430420876,       -0.6855468750,        0.3320312500,        0.0532226562,       16.0217285156,       -6.8054199219,      -21.1639404297
1494035437.6457920074,       -0.6855468750,        0.3320312500,        0.0532226562,       16.0217285156,       -7.1716308594,      -20.2484130859
1494035437.6491899490,       -0.6821289062,        0.3276367188,        0.0688476562,       16.1285400391,       -7.1716308594,      -20.2484130859
1494035437.6518909931,       -0.6821289062,        0.3276367188,        0.0688476562,       15.7470703125,       -7.4615478516,      -20.0653076172
1494035437.6545159817,       -0.6821289062,        0.3276367188,        0.0688476562,       15.7470703125,       -7.4615478516,      -20.0653076172
1494035437.6570739746,       -0.6821289062,        0.3276367188,        0.0688476562,       16.3116455078,       -7.7514648438,      -18.9208984375
1494035437.6596300602,       -0.7011718750,        0.3017578125,        0.0390625000,       16.3116455078,       -7.7514648438,      -18.9208984375
1494035437.6621870995,       -0.7011718750,        0.3017578125,        0.0390625000,       16.5405273438,       -7.7972412109,      -18.1884765625
1494035437.6648819447,       -0.7011718750,        0.3017578125,        0.0390625000,       16.5405273438,       -7.7972412109,      -18.1884765625
1494035437.6675720215,       -0.7011718750,        0.3017578125,        0.0390625000,       16.5405273438,       -7.4462890625,      -17.5628662109
1494035437.6702659130,       -0.7006835938,        0.2968750000,        0.0512695312,       15.7928466797,       -7.4462890625,      -17.5628662109
1494035437.6729619503,       -0.7006835938,        0.2968750000,        0.0512695312,       11.8865966797,       -6.8969726562,      -16.5863037109
1494035437.6757009029,       -0.7006835938,        0.2968750000,        0.0512695312,       14.3432617188,       -6.8969726562,      -16.5863037109
1494035437.6783969402,       -0.7006835938,        0.2968750000,        0.0649414062,       14.3432617188,       -7.0800781250,      -15.9149169922
1494035437.6810889244,       -0.6508789062,        0.3442382812,        0.0649414062,       13.6260986328,       -7.0800781250,      -15.9149169922
1494035437.6837599277,       -0.6508789062,        0.3442382812,        0.0649414062,       13.6260986328,       -7.2174072266,      -15.6250000000
1494035437.6863110065,       -0.6508789062,        0.3442382812,        0.0649414062,       14.0380859375,       -7.2174072266,      -15.6250000000
1494035437.6888580322,       -0.6508789062,        0.3564453125,        0.0361328125,       14.0380859375,       -7.2174072266,      -15.3045654297
1494035437.6914069653,       -0.6357421875,        0.3564453125,        0.0361328125,       15.4876708984,       -6.8664550781,      -15.3045654297
1494035437.6940059662,       -0.6357421875,        0.3564453125,        0.0361328125,       15.4876708984,       -6.8664550781,      -15.3045654297
1494035437.6965661049,       -0.6357421875,        0.3564453125,        0.0361328125,       17.4407958984,       -6.6223144531,      -15.1367187500
1494035437.6991209984,       -0.6357421875,        0.3266601562,        0.0268554688,       17.4407958984,       -6.6223144531,      -15.1367187500
1494035437.7016799450,       -0.6396484375,        0.3266601562,        0.0268554688,       17.3950195312,       -6.6223144531,      -15.2893066406
1494035437.7044150829,       -0.6396484375,        0.3266601562,        0.0268554688,       17.3950195312,       -6.6223144531,      -15.2893066406
1494035437.7071108818,       -0.6396484375,        0.3266601562,        0.0268554688,       15.1367187500,       -6.1950683594,      -14.5416259766
1494035437.7099180222,       -0.6508789062,        0.3286132812,        0.0434570312,       15.1367187500,       -6.1950683594,      -14.5416259766
1494035437.7126159668,       -0.6508789062,        0.3286132812,        0.0434570312,       14.2211914062,       -4.1809082031,      -13.8092041016
1494035437.7153239250,       -0.6508789062,        0.3286132812,        0.0434570312,       14.2211914062,       -4.1809082031,      -13.8092041016
1494035437.7180171013,       -0.6508789062,        0.3286132812,        0.0434570312,       11.8103027344,       -3.6621093750,      -14.0686035156
1494035437.7207140923,       -0.6376953125,        0.3125000000,        0.0561523438,       11.8103027344,       -3.6621093750,      -14.0686035156
1494035437.7234549522,       -0.6376953125,        0.3125000000,        0.0561523438,       10.6048583984,       -3.9520263672,      -13.9312744141
1494035437.7261528969,       -0.6376953125,        0.3125000000,        0.0561523438,       10.6048583984,       -3.9520263672,      -13.9312744141
1494035437.7288460732,       -0.6376953125,        0.3125000000,        0.0410156250,       10.1013183594,       -4.0740966797,      -14.2059326172
1494035437.7315380573,       -0.6728515625,        0.3256835938,        0.0410156250,       10.1013183594,       -4.0740966797,      -14.2059326172
1494035437.7342739105,       -0.6728515625,        0.3256835938,        0.0410156250,       10.6658935547,       -3.5247802734,      -13.8397216797
1494035437.7369720936,       -0.6728515625,        0.3256835938,        0.0410156250,       10.6658935547,       -3.5247802734,      -13.8397216797
1494035437.7396628857,       -0.7207031250,        0.3120117188,        0.0209960938,       11.5966796875,       -3.4942626953,      -13.2598876953
1494035437.7423601151,       -0.7207031250,        0.3120117188,        0.0209960938,       11.5966796875,       -3.4942626953,      -13.2598876953
1494035437.7449750900,       -0.7207031250,        0.3120117188,        0.0209960938,       11.5356445312,       -3.9978027344,      -11.9171142578
1494035437.7475340366,       -0.7207031250,        0.3120117188,        0.0209960938,       11.5356445312,       -3.9978027344,      -11.9171142578
1494035437.7500829697,       -0.7094726562,        0.2875976562,        0.0302734375,       10.7574462891,       -4.0740966797,      -11.0168457031
1494035437.7526381016,       -0.7094726562,        0.2875976562,        0.0302734375,       10.7574462891,       -4.0740966797,      -11.0168457031
1494035437.7552080154,       -0.7094726562,        0.2875976562,        0.0302734375,        9.4451904297,       -4.1503906250,      -10.2386474609
1494035437.7577519417,       -0.7094726562,        0.2875976562,        0.0302734375,        9.4451904297,       -4.1503906250,      -10.2386474609
1494035437.7604808807,       -0.6894531250,        0.3076171875,        0.0493164062,        8.6517333984,       -4.0435791016,       -9.4909667969
1494035437.7630360126,       -0.6894531250,        0.3076171875,        0.0493164062,        8.6517333984,       -4.0435791016,       -9.4909667969
1494035437.7657411098,       -0.6894531250,        0.3076171875,        0.0493164062,        7.9956054688,       -4.0435791016,       -8.4991455078
1494035437.7684330940,       -0.6894531250,        0.3076171875,        0.0493164062,        7.9956054688,       -4.0435791016,       -8.4991455078
1494035437.7711191177,       -0.6811523438,        0.3178710938,        0.0502929688,        8.3160400391,       -4.5318603516,       -8.0413818359
1494035437.7738559246,       -0.6811523438,        0.3178710938,        0.0502929688,        8.3160400391,       -4.5318603516,       -8.0413818359
1494035437.7765519619,       -0.6811523438,        0.3178710938,        0.0502929688,        9.2315673828,       -5.4016113281,       -7.5073242188
1494035437.7792439461,       -0.6811523438,        0.3178710938,        0.0380859375,        9.2315673828,       -5.4016113281,       -7.5073242188
1494035437.7819399834,       -0.6455078125,        0.3437500000,        0.0380859375,       10.3759765625,       -6.5307617188,       -7.2631835938
1494035437.7847940922,       -0.6455078125,        0.3437500000,        0.0380859375,       10.3759765625,       -6.5307617188,       -7.2631835938
1494035437.7874839306,       -0.6455078125,        0.3437500000,        0.0380859375,       12.1765136719,       -7.3852539062,       -7.3547363281
1494035437.7901849747,       -0.6748046875,        0.3510742188,        0.0341796875,       12.1765136719,       -7.3852539062,       -7.3547363281
1494035437.7928760052,       -0.6748046875,        0.3510742188,        0.0341796875,       13.9465332031,       -7.0648193359,       -7.0800781250
1494035437.7954618931,       -0.6748046875,        0.3510742188,        0.0341796875,       13.9465332031,       -7.0648193359,       -7.0800781250
1494035437.7980189323,       -0.6748046875,        0.3510742188,        0.0341796875,       13.9465332031,       -6.7138671875,       -5.9967041016
1494035437.8005740643,       -0.7167968750,        0.3032226562,        0.0180664062,       14.5263671875,       -6.7138671875,       -5.9967041016
1494035437.8031260967,       -0.7167968750,        0.3032226562,        0.0180664062,       14.5263671875,       -6.7138671875,       -5.5084228516
1494035437.8057110310,       -0.7167968750,        0.3032226562,        0.0180664062,       14.5874023438,       -6.8664550781,       -5.5084228516
1494035437.8082671165,       -0.7167968750,        0.3032226562,        0.0180664062,       14.5874023438,       -6.8664550781,       -5.5084228516
1494035437.8108251095,       -0.7182617188,        0.3085937500,        0.0292968750,       13.7176513672,       -6.8969726562,       -4.4708251953
1494035437.8135609627,       -0.7182617188,        0.3085937500,        0.0292968750,       13.7176513672,       -6.8969726562,       -0.5645751953
1494035437.8162560463,       -0.7182617188,        0.3085937500,        0.0292968750,       13.3666992188,       -6.9580078125,       -3.7536621094
1494035437.8189570904,       -0.7182617188,        0.3085937500,        0.0292968750,       13.3666992188,       -6.9580078125,       -3.7536621094
1494035437.8216519356,       -0.6958007812,        0.3466796875,        0.0454101562,       12.6800537109,       -7.6446533203,       -3.4942626953
1494035437.8243579865,       -0.6958007812,        0.3466796875,        0.0454101562,       12.6800537109,       -7.6446533203,       -3.4942626953
1494035437.8270599842,       -0.6958007812,        0.3466796875,        0.0454101562,       13.1378173828,       -8.3923339844,       -3.1127929688
1494035437.8297541142,       -0.6958007812,        0.3466796875,        0.0170898438,       13.1378173828,       -8.3923339844,       -3.1127929688
1494035437.8324489594,       -0.6752929688,        0.3330078125,        0.0170898438,       14.9536132812,       -9.0789794922,       -2.4719238281
1494035437.8351469040,       -0.6752929688,        0.3330078125,        0.0170898438,       14.9536132812,       -9.0789794922,       -2.4719238281
1494035437.8378438950,       -0.6752929688,        0.3330078125,        0.0170898438,       16.0827636719,       -8.9569091797,       -1.8615722656
1494035437.8405430317,       -0.6787109375,        0.3159179688,        0.0332031250,       16.0827636719,       -8.9569091797,       -1.8615722656
1494035437.8432440758,       -0.6787109375,        0.3159179688,        0.0332031250,       14.8925781250,       -9.3383789062,       -1.9683837891
1494035437.8457999229,       -0.6787109375,        0.3159179688,        0.0332031250,       14.8925781250,       -9.3383789062,       -1.9683837891
1494035437.8483541012,       -0.6787109375,        0.3159179688,        0.0332031250,       14.3432617188,       -9.5977783203,       -1.8920898438
1494035437.8509099483,       -0.6879882812,        0.3334960938,        0.0205078125,       14.3432617188,       -9.5977783203,       -1.8920898438
1494035437.8535110950,       -0.6879882812,        0.3334960938,        0.0205078125,       15.3656005859,       -9.3231201172,       -1.6937255859
1494035437.8563079834,       -0.6879882812,        0.3334960938,        0.0205078125,       15.3656005859,       -9.3231201172,       -1.6937255859
1494035437.8590440750,       -0.6879882812,        0.3334960938,        0.0205078125,       16.0522460938,       -8.5601806641,       -1.4038085938
1494035437.8615939617,       -0.6699218750,        0.3481445312,        0.0253906250,       16.0522460938,       -8.5601806641,       -1.4038085938
1494035437.8642430305,       -0.6699218750,        0.3481445312,        0.0253906250,       15.9301757812,       -8.2855224609,       -1.2664794922
1494035437.8668899536,       -0.6699218750,        0.3481445312,        0.0253906250,       15.9301757812,       -8.2855224609,       -1.2664794922
1494035437.8696420193,       -0.6699218750,        0.3481445312,        0.0253906250,       16.8304443359,       -7.9650878906,       -1.2664794922
1494035437.8726780415,       -0.6655273438,        0.3208007812,        0.0302734375,       16.8304443359,       -7.9650878906,       -1.2664794922
1494035437.8753879070,       -0.6655273438,        0.3208007812,        0.0302734375,       16.9525146484,       -8.0261230469,       -0.4425048828
1494035437.8780820370,       -0.6655273438,        0.3208007812,        0.0302734375,       16.9525146484,       -8.0261230469,       -0.4425048828
1494035437.8807759285,       -0.6562500000,        0.3022460938,        0.0322265625,       17.5933837891,       -8.0718994141,        0.0610351562
1494035437.8834779263,       -0.6562500000,        0.3022460938,        0.0322265625,       17.5933837891,       -8.0718994141,        0.0610351562
1494035437.8861730099,       -0.6562500000,        0.3022460938,        0.0322265625,       17.4713134766,       -7.4157714844,       -0.1220703125
1494035437.8888609409,       -0.6562500000,        0.3022460938,        0.0322265625,       17.4713134766,       -7.4157714844,       -0.1220703125
1494035437.8915491104,       -0.6313476562,        0.3286132812,        0.0551757812,       14.9536132812,       -5.7830810547,        0.2288818359
1494035437.8942310810,       -0.6313476562,        0.3286132812,        0.0551757812,       14.9536132812,       -5.7830810547,        0.2288818359
1494035437.8967831135,       -0.6313476562,        0.3286132812,        0.0551757812,       12.9547119141,       -4.0588378906,        0.5950927734
1494035437.8993279934,       -0.6313476562,        0.3286132812,        0.0551757812,       12.9547119141,       -4.0588378906,        0.5950927734
1494035437.9018759727,       -0.6254882812,        0.3417968750,        0.0781250000,       11.6119384766,       -2.6702880859,       -0.3814697266
1494035437.9044489861,       -0.6254882812,        0.3417968750,        0.0781250000,       11.6119384766,       -2.6702880859,       -0.3814697266
1494035437.9069991112,       -0.6254882812,        0.3417968750,        0.0781250000,       11.6119384766,       -2.4719238281,       -2.1667480469
1494035437.9095480442,       -0.6254882812,        0.3417968750,        0.0781250000,        9.7808837891,       -2.4719238281,       -2.1667480469
1494035437.9120929241,       -0.6147460938,        0.3115234375,        0.0874023438,        9.7808837891,       -2.4719238281,       -3.9520263672
1494035437.9147460461,       -0.6147460938,        0.3115234375,        0.0874023438,        7.4920654297,       -1.9378662109,       -3.9520263672
1494035437.9172980785,       -0.6147460938,        0.3115234375,        0.0874023438,        7.4920654297,       -1.9378662109,       -4.3792724609
1494035437.9198439121,       -0.6147460938,        0.3115234375,        0.0874023438,        6.2255859375,       -1.8463134766,       -4.3792724609
1494035437.9223899841,       -0.5957031250,        0.3613281250,        0.0639648438,        6.2255859375,       -1.8463134766,       -4.3792724609
1494035437.9251899719,       -0.5957031250,        0.3613281250,        0.0639648438,        6.9885253906,       -2.2583007812,       -4.7912597656
1494035437.9278709888,       -0.5957031250,        0.3613281250,        0.0639648438,        6.9885253906,       -2.2583007812,       -4.7912597656
1494035437.9306631088,       -0.5957031250,        0.3730468750,        0.0283203125,        9.7351074219,       -2.1667480469,       -5.8135986328
1494035437.9333980083,       -0.6318359375,        0.3730468750,        0.0283203125,        9.7351074219,       -2.1667480469,       -5.8135986328
1494035437.9360849857,       -0.6318359375,        0.3730468750,        0.0283203125,       12.2070312500,       -1.1901855469,       -6.3934326172
1494035437.9387800694,       -0.6318359375,        0.3730468750,        0.0283203125,       12.2070312500,       -1.1901855469,       -6.3934326172
1494035437.9414739609,       -0.6289062500,        0.3022460938,        0.0258789062,       13.1683349609,       -0.7934570312,       -6.4392089844
1494035437.9441399574,       -0.6289062500,        0.3022460938,        0.0258789062,       13.1683349609,       -0.7934570312,       -6.4392089844
1494035437.9466929436,       -0.6289062500,        0.3022460938,        0.0258789062,       10.5438232422,       -1.0070800781,       -6.1645507812
1494035437.9492459297,       -0.6289062500,        0.3022460938,        0.0258789062,       10.5438232422,       -1.0070800781,       -6.1645507812
1494035437.9518001080,       -0.6274414062,        0.3183593750,        0.0610351562,        9.3078613281,       -1.2512207031,       -4.8828125000
1494035437.9543979168,       -0.6274414062,        0.3183593750,        0.0610351562,        9.3078613281,       -1.2512207031,       -4.8828125000
1494035437.9569480419,       -0.6274414062,        0.3183593750,        0.0610351562,        9.3994140625,       -1.7395019531,       -4.5166015625
1494035437.9594950676,       -0.6274414062,        0.3183593750,        0.0610351562,        9.3994140625,       -1.7395019531,       -4.5166015625
1494035437.9620409012,       -0.6694335938,        0.3193359375,        0.0522460938,       11.0626220703,       -1.9073486328,       -4.3029785156
1494035437.9647390842,       -0.6694335938,        0.3193359375,        0.0522460938,       11.0626220703,       -1.9073486328,       -4.3029785156
1494035437.9674360752,       -0.6694335938,        0.3193359375,        0.0522460938,       13.0157470703,       -2.1820068359,       -3.5095214844
1494035437.9701309204,       -0.6694335938,        0.3193359375,        0.0522460938,       13.0157470703,       -2.1820068359,       -3.5095214844
1494035437.9728229046,       -0.6933593750,        0.2866210938,        0.0625000000,       12.5427246094,       -2.3498535156,       -2.5939941406
1494035437.9755339622,       -0.6933593750,        0.2866210938,        0.0625000000,       12.5427246094,       -2.3498535156,       -2.5939941406
1494035437.9782290459,       -0.6933593750,        0.2866210938,        0.0625000000,       10.4064941406,       -2.8381347656,       -2.0294189453
1494035437.9810340405,       -0.6933593750,        0.2866210938,        0.0454101562,       10.4064941406,       -2.8381347656,       -2.0294189453
1494035437.9841079712,       -0.6933593750,        0.2998046875,        0.0454101562,        8.7585449219,       -2.9296875000,       -1.3122558594
1494035437.9868099689,       -0.6933593750,        0.2998046875,        0.0454101562,        8.7585449219,       -2.9296875000,       -1.3122558594
1494035437.9894959927,       -0.6933593750,        0.2998046875,        0.0454101562,        8.4381103516,       -3.1738281250,       -0.5645751953
1494035437.9921810627,       -0.6938476562,        0.3266601562,        0.0004882812,        8.4381103516,       -3.1738281250,       -0.5645751953
1494035437.9947950840,       -0.6938476562,        0.3266601562,        0.0004882812,        9.3078613281,       -4.1351318359,        0.3662109375
1494035437.9973480701,       -0.6938476562,        0.3266601562,        0.0004882812,        9.3078613281,       -4.1351318359,        0.3662109375
1494035437.9998979568,       -0.6938476562,        0.3266601562,        0.0004882812,       11.0931396484,       -4.1961669922,        0.8087158203
1494035438.0024459362,       -0.7109375000,        0.3344726562,       -0.0156250000,       11.0931396484,       -4.1961669922,        0.8087158203
1494035438.0052380562,       -0.7109375000,        0.3344726562,       -0.0156250000,       13.0310058594,       -4.1046142578,        1.7547607422
1494035438.0079319477,       -0.7109375000,        0.3344726562,       -0.0156250000,       13.0310058594,       -4.1046142578,        1.7547607422
1494035438.0106239319,       -0.7109375000,        0.3344726562,       -0.0156250000,       13.4887695312,       -3.7078857422,        2.6092529297
1494035438.0133249760,       -0.7070312500,        0.3198242188,       -0.0117187500,       13.4887695312,       -3.7078857422,        2.6092529297
1494035438.0158801079,       -0.7070312500,        0.3198242188,       -0.0117187500,       13.4887695312,       -2.3803710938,        3.3721923828
1494035438.0184309483,       -0.7070312500,        0.3198242188,       -0.0117187500,       12.4511718750,       -2.3803710938,        3.3721923828
1494035438.0209789276,       -0.7070312500,        0.3198242188,        0.1132812500,       12.4511718750,       -2.3803710938,        4.2572021484
1494035438.0235359669,       -0.6821289062,        0.3208007812,        0.0307617188,       10.9710693359,       -2.0446777344,        4.2572021484
1494035438.0260889530,       -0.6821289062,        0.3208007812,        0.0307617188,       10.9710693359,       -2.0446777344,        4.2572021484
1494035438.0286378860,       -0.6821289062,        0.3208007812,        0.0307617188,        9.2010498047,       -2.2125244141,        4.0893554688
1494035438.0311799049,       -0.6821289062,        0.3208007812,        0.0727539062,        9.2010498047,       -2.2125244141,        4.0893554688
1494035438.0338571072,       -0.6347656250,        0.3295898438,        0.0727539062,        8.6364746094,       -2.4414062500,        3.7841796875
1494035438.0364079475,       -0.6347656250,        0.3295898438,        0.0727539062,        8.6364746094,       -2.4414062500,        3.7841796875
1494035438.0389549732,       -0.6347656250,        0.3295898438,        0.0727539062,        9.7656250000,       -3.0670166016,        3.2043457031
1494035438.0415010452,       -0.6347656250,        0.3295898438,        0.0913085938,        9.7656250000,       -3.0670166016,        3.2043457031
1494035438.0441660881,       -0.6137695312,        0.3520507812,        0.0913085938,       11.1999511719,       -3.2958984375,        2.5939941406
1494035438.0467219353,       -0.6137695312,        0.3520507812,        0.0913085938,       11.1999511719,       -3.2958984375,        2.5939941406
1494035438.0492739677,       -0.6137695312,        0.3520507812,        0.0913085938,       13.0004882812,       -3.8146972656,        2.3498535156
1494035438.0518240929,       -0.6137695312,        0.3442382812,        0.0722656250,       13.0004882812,       -3.8146972656,        2.3498535156
1494035438.0544829369,       -0.6411132812,        0.3442382812,        0.0722656250,       15.2587890625,       -4.6691894531,        2.3040771484
1494035438.0571789742,       -0.6411132812,        0.3442382812,        0.0722656250,       15.2587890625,       -4.6691894531,        2.3040771484
1494035438.0598740578,       -0.6411132812,        0.3442382812,        0.0722656250,       15.7470703125,       -5.4168701172,        2.9144287109
1494035438.0625600815,       -0.6391601562,        0.3037109375,        0.0727539062,       15.7470703125,       -5.4168701172,        2.9144287109
1494035438.0652909279,       -0.6391601562,        0.3037109375,        0.0727539062,       15.6402587891,       -5.8288574219,        3.6163330078
1494035438.0679819584,       -0.6391601562,        0.3037109375,        0.0727539062,       15.6402587891,       -5.8288574219,        3.6163330078
1494035438.0706739426,       -0.6391601562,        0.3037109375,        0.0727539062,       15.5487060547,       -6.4239501953,        4.7912597656
1494035438.0734128952,       -0.6357421875,        0.3212890625,        0.0605468750,       15.5487060547,       -6.4239501953,        4.7912597656
1494035438.0760750771,       -0.6357421875,        0.3212890625,        0.0605468750,       16.1437988281,       -6.3323974609,        5.4321289062
1494035438.0786299706,       -0.6357421875,        0.3212890625,        0.0605468750,       16.1437988281,       -6.3323974609,        5.4321289062
1494035438.0811829567,       -0.6357421875,        0.3212890625,        0.0605468750,       16.1437988281,       -5.9356689453,        6.2866210938
1494035438.0838439465,       -0.6826171875,        0.2963867188,        0.0390625000,       16.3116455078,       -5.9356689453,        6.2866210938
1494035438.0864000320,       -0.6826171875,        0.2963867188,        0.0390625000,       16.3116455078,       -5.9356689453,        7.2174072266
1494035438.0889499187,       -0.6826171875,        0.2963867188,        0.0390625000,       14.6484375000,       -5.5084228516,        7.2174072266
1494035438.0915060043,       -0.6826171875,        0.2963867188,        0.0390625000,       14.6484375000,       -5.5084228516,        8.0261230469
1494035438.0940821171,       -0.6855468750,        0.3076171875,        0.0395507812,       13.1225585938,       -4.1503906250,        8.0261230469
1494035438.0966351032,       -0.6855468750,        0.3076171875,        0.0395507812,       13.1225585938,       -4.1503906250,        8.0261230469
1494035438.0992019176,       -0.6855468750,        0.3076171875,        0.0395507812,       11.5203857422,       -2.9602050781,        8.5754394531
1494035438.1018650532,       -0.6855468750,        0.3076171875,        0.0502929688,       11.5203857422,       -2.9602050781,        8.5754394531
1494035438.1047520638,       -0.7309570312,        0.2880859375,        0.0502929688,       10.2691650391,       -2.5482177734,        9.2773437500
1494035438.1074519157,       -0.7309570312,        0.2880859375,        0.0502929688,       10.2691650391,       -2.5482177734,        9.2773437500
1494035438.1101438999,       -0.7309570312,        0.2880859375,        0.0502929688,        9.2620849609,       -1.9836425781,       10.0097656250
1494035438.1128358841,       -0.7592773438,        0.3061523438,        0.0449218750,        9.2620849609,       -1.9836425781,       10.0097656250
1494035438.1155390739,       -0.7592773438,        0.3061523438,        0.0449218750,        8.3618164062,       -0.8087158203,       10.9863281250
1494035438.1182351112,       -0.7592773438,        0.3061523438,        0.0449218750,        8.3618164062,       -0.8087158203,       10.9863281250
1494035438.1209299564,       -0.7592773438,        0.3061523438,        0.0449218750,        7.5531005859,       -0.2899169922,       12.4816894531
1494035438.1236650944,       -0.7514648438,        0.3139648438,        0.0190429688,        7.5531005859,       -0.2899169922,       12.4816894531
1494035438.1263549328,       -0.7514648438,        0.3139648438,        0.0190429688,        7.3547363281,       -0.2746582031,       13.7786865234
1494035438.1290440559,       -0.7514648438,        0.3139648438,        0.0190429688,        7.3547363281,       -0.2746582031,       13.7786865234
1494035438.1317350864,       -0.7514648438,        0.3139648438,        0.0190429688,        6.9122314453,       -0.1983642578,       14.9993896484
1494035438.1344020367,       -0.7451171875,        0.3110351562,        0.0141601562,        6.9122314453,       -0.1983642578,       14.9993896484
1494035438.1369500160,       -0.7451171875,        0.3110351562,        0.0141601562,        5.9509277344,        0.1220703125,       16.0522460938
1494035438.1395010948,       -0.7451171875,        0.3110351562,        0.0141601562,        5.9509277344,        0.1220703125,       16.0522460938
1494035438.1420528889,       -0.7451171875,        0.3110351562,       -0.0078125000,        5.3710937500,        0.7781982422,       17.2119140625
1494035438.1446459293,       -0.7324218750,        0.3281250000,       -0.0078125000,        5.3710937500,        0.7781982422,       17.2119140625
1494035438.1471970081,       -0.7324218750,        0.3281250000,       -0.0078125000,        4.2419433594,        1.0833740234,       17.9901123047
1494035438.1498589516,       -0.7324218750,        0.3281250000,       -0.0078125000,        4.2419433594,        1.0833740234,       17.9901123047
1494035438.1524150372,       -0.7324218750,        0.3281250000,        0.0019531250,        3.1890869141,        1.1901855469,       18.9819335938
1494035438.1551270485,       -0.7114257812,        0.3334960938,        0.0019531250,        3.1890869141,        1.1901855469,       18.9819335938
1494035438.1576728821,       -0.7114257812,        0.3334960938,        0.0019531250,        2.7160644531,        1.4038085938,       19.2413330078
1494035438.1602180004,       -0.7114257812,        0.3334960938,        0.0019531250,        2.7160644531,        1.4038085938,       19.2413330078
1494035438.1627678871,       -0.7114257812,        0.3720703125,        0.0112304688,        2.7160644531,        1.4801025391,       19.3023681641
1494035438.1656029224,       -0.6791992188,        0.3720703125,        0.0112304688,        2.3803710938,        1.4801025391,       19.3023681641
1494035438.1682989597,       -0.6791992188,        0.3720703125,        0.0112304688,        2.3803710938,        1.0528564453,       19.5007324219
1494035438.1709868908,       -0.6791992188,        0.3720703125,        0.0112304688,        3.1433105469,        1.0528564453,       19.5007324219
1494035438.1736910343,       -0.6674804688,        0.3911132812,        0.0366210938,        7.0495605469,        0.9460449219,       18.4173583984
1494035438.1763820648,       -0.6674804688,        0.3911132812,        0.0366210938,        4.2724609375,        0.9460449219,       18.4173583984
1494035438.1790730953,       -0.6674804688,        0.3911132812,        0.0366210938,        4.2724609375,        0.8087158203,       17.8070068359
1494035438.1817629337,       -0.6674804688,        0.3911132812,        0.0366210938,        4.4097900391,        0.8087158203,       17.8070068359
1494035438.1844680309,       -0.6459960938,        0.3583984375,        0.0600585938,        4.4097900391,        0.5187988281,       17.1051025391
1494035438.1871600151,       -0.6459960938,        0.3583984375,        0.0600585938,        4.4403076172,        0.5187988281,       17.1051025391
1494035438.1898529530,       -0.6459960938,        0.3583984375,        0.0600585938,        4.4403076172,        0.5798339844,       16.5863037109
1494035438.1925489902,       -0.6459960938,        0.3583984375,        0.0639648438,        4.3792724609,        0.5798339844,       16.5863037109
1494035438.1951789856,       -0.6440429688,        0.3730468750,        0.0639648438,        4.3792724609,        0.5798339844,       14.8315429688
1494035438.1977310181,       -0.6440429688,        0.3730468750,        0.0639648438,        5.4931640625,        0.9307861328,       14.8315429688
1494035438.2002840042,       -0.6440429688,        0.3730468750,        0.0639648438,        5.4931640625,        0.9307861328,       13.7634277344
1494035438.2028369904,       -0.6440429688,        0.3730468750,        0.0795898438,        7.4920654297,        1.9989013672,       13.7634277344
1494035438.2055239677,       -0.7050781250,        0.3681640625,        0.0795898438,        7.4920654297,        1.9989013672,       13.7634277344
1494035438.2082109451,       -0.7050781250,        0.3681640625,        0.0795898438,        7.7362060547,        2.4414062500,       13.3209228516
1494035438.2109000683,       -0.7050781250,        0.3681640625,        0.0795898438,        7.7362060547,        2.4414062500,       13.3209228516
1494035438.2135939598,       -0.7167968750,        0.3398437500,        0.0654296875,        7.5225830078,        2.5329589844,       13.2446289062
1494035438.2162859440,       -0.7167968750,        0.3398437500,        0.0654296875,        7.5225830078,        2.5329589844,       13.2446289062
1494035438.2189679146,       -0.7167968750,        0.3398437500,        0.0654296875,        8.3007812500,        2.8076171875,       13.2751464844
1494035438.2218680382,       -0.7167968750,        0.3398437500,        0.0654296875,        8.3007812500,        2.8076171875,       13.2751464844
1494035438.2247929573,       -0.7241210938,        0.3847656250,        0.0444335938,        9.4299316406,        4.1046142578,       12.8326416016
1494035438.2274880409,       -0.7241210938,        0.3847656250,        0.0444335938,        9.4299316406,        4.1046142578,       11.9628906250
1494035438.2301828861,       -0.7241210938,        0.3847656250,        0.0444335938,       11.3372802734,        3.9825439453,       11.9628906250
1494035438.2328779697,       -0.7241210938,        0.3847656250,        0.0009765625,       11.3372802734,        3.9825439453,       11.4593505859
1494035438.2355780602,       -0.7114257812,        0.4033203125,        0.0009765625,       13.9923095703,        3.8146972656,       11.4593505859
1494035438.2382719517,       -0.7114257812,        0.4033203125,        0.0009765625,       13.9923095703,        3.8146972656,       11.4593505859
1494035438.2409670353,       -0.7114257812,        0.4033203125,        0.0009765625,       16.4489746094,        5.2032470703,       10.7574462891
1494035438.2436559200,       -0.7114257812,        0.3784179688,       -0.0234375000,       16.4489746094,        5.2032470703,       10.7574462891
1494035438.2462089062,       -0.7153320312,        0.3784179688,       -0.0234375000,       17.1203613281,        5.5847167969,       10.6048583984
1494035438.2487690449,       -0.7153320312,        0.3784179688,       -0.0234375000,       17.1203613281,        5.5847167969,       10.6048583984
1494035438.2513260841,       -0.7153320312,        0.3784179688,       -0.0234375000,       16.6168212891,        7.0800781250,       10.7116699219
1494035438.2538840771,       -0.7153320312,        0.3608398438,       -0.0273437500,       16.6168212891,        7.0800781250,       10.7116699219
1494035438.2564430237,       -0.6982421875,        0.3608398438,       -0.0273437500,       15.2893066406,        8.3923339844,       10.4064941406
1494035438.2589991093,       -0.6982421875,        0.3608398438,       -0.0273437500,       15.2893066406,        8.3923339844,       10.4064941406
1494035438.2615480423,       -0.6982421875,        0.3608398438,       -0.0273437500,       13.5040283203,        8.6822509766,        9.7198486328
1494035438.2641019821,       -0.6933593750,        0.3691406250,       -0.0126953125,       13.5040283203,        8.6822509766,        9.7198486328
1494035438.2666540146,       -0.6933593750,        0.3691406250,       -0.0126953125,       12.8784179688,        9.4451904297,        9.0637207031
1494035438.2692019939,       -0.6933593750,        0.3691406250,       -0.0126953125,       12.8784179688,        9.4451904297,        9.0637207031
1494035438.2717521191,       -0.6933593750,        0.3691406250,       -0.0126953125,       12.8784179688,        9.8724365234,        9.4299316406
1494035438.2744650841,       -0.6923828125,        0.3706054688,       -0.0166015625,       12.5274658203,        9.8724365234,        9.4299316406
1494035438.2770180702,       -0.6923828125,        0.3706054688,       -0.0166015625,       12.5274658203,       11.0473632812,        9.7351074219
1494035438.2795760632,       -0.6923828125,        0.3706054688,       -0.0166015625,       12.9852294922,       11.0473632812,        9.7351074219
1494035438.2821369171,       -0.6923828125,        0.3706054688,       -0.0166015625,       12.9852294922,       11.0473632812,        9.5825195312
1494035438.2848820686,       -0.7089843750,        0.3652343750,        0.0009765625,       12.7868652344,       11.5509033203,        9.5825195312
1494035438.2875800133,       -0.7089843750,        0.3652343750,        0.0009765625,       12.7868652344,       11.5509033203,        8.6975097656
1494035438.2902760506,       -0.7089843750,        0.3652343750,        0.0009765625,       12.6647949219,       10.8947753906,        8.6975097656
1494035438.2929770947,       -0.7089843750,        0.3652343750,        0.0009765625,       12.6647949219,       10.8947753906,        8.1787109375
1494035438.2956640720,       -0.7104492188,        0.3647460938,        0.0175781250,       11.5203857422,       10.4217529297,        8.1787109375
1494035438.2982299328,       -0.7104492188,        0.3647460938,        0.0175781250,       11.5203857422,       10.4217529297,        8.1787109375
1494035438.3007891178,       -0.7104492188,        0.3647460938,        0.0175781250,       10.9405517578,       10.2539062500,        7.8735351562
1494035438.3034029007,       -0.7104492188,        0.3647460938,        0.0317382812,       10.9405517578,       10.2539062500,        7.8735351562
1494035438.3060998917,       -0.7202148438,        0.3706054688,        0.0317382812,       11.6424560547,       10.7116699219,        8.1939697266
1494035438.3087959290,       -0.7202148438,        0.3706054688,        0.0317382812,       11.6424560547,       10.7116699219,        8.1939697266
1494035438.3114919662,       -0.7202148438,        0.3706054688,        0.0317382812,       12.0697021484,       10.8184814453,        7.4310302734
1494035438.3141400814,       -0.7202148438,        0.3842773438,        0.0307617188,       12.0697021484,       10.8184814453,        7.4310302734
1494035438.3166909218,       -0.7480468750,        0.3842773438,        0.0307617188,       11.8713378906,       10.1165771484,        6.6070556641
1494035438.3192420006,       -0.7480468750,        0.3842773438,        0.0307617188,       11.8713378906,       10.1165771484,        6.6070556641
1494035438.3217940331,       -0.7480468750,        0.3842773438,        0.0307617188,       11.6424560547,        9.6435546875,        6.1187744141
1494035438.3244779110,       -0.8730468750,        0.3715820312,        0.0380859375,       11.6424560547,        9.6435546875,        6.1187744141
1494035438.3271689415,       -0.7666015625,        0.3715820312,        0.0380859375,       11.9171142578,        9.7198486328,        4.4097900391
1494035438.3298540115,       -0.7666015625,        0.3715820312,        0.0380859375,       11.9171142578,        9.7198486328,        4.4097900391
1494035438.3325428963,       -0.7666015625,        0.3715820312,        0.0380859375,       12.6953125000,       10.5590820312,        4.7149658203
1494035438.3351759911,       -0.7612304688,        0.3754882812,        0.0307617188,       12.6953125000,       10.5590820312,        4.7149658203
1494035438.3377330303,       -0.7612304688,        0.3754882812,        0.0307617188,       13.8854980469,       10.7879638672,        4.7302246094
1494035438.3405458927,       -0.7612304688,        0.3754882812,        0.0307617188,       13.8854980469,       10.7879638672,        4.7302246094
1494035438.3431088924,       -0.7612304688,        0.3754882812,        0.0307617188,       15.5639648438,        9.5214843750,        4.1351318359
1494035438.3461039066,       -0.7949218750,        0.3842773438,        0.0297851562,       15.5639648438,        9.5214843750,        4.1351318359
1494035438.3487989902,       -0.7949218750,        0.3842773438,        0.0297851562,       17.3492431641,        8.3618164062,        3.5705566406
1494035438.3514950275,       -0.7949218750,        0.3842773438,        0.0297851562,       17.3492431641,        8.3618164062,        3.5705566406
1494035438.3541929722,       -0.7949218750,        0.3842773438,        0.0039062500,       19.6228027344,        7.9193115234,        2.2430419922
1494035438.3568840027,       -0.8017578125,        0.3823242188,        0.0039062500,       19.6228027344,        7.9193115234,        2.2430419922
1494035438.3595769405,       -0.8017578125,        0.3823242188,        0.0039062500,       21.8353271484,        6.1798095703,        0.8544921875
1494035438.3622689247,       -0.8017578125,        0.3823242188,        0.0039062500,       21.8353271484,        6.1798095703,        0.8544921875
1494035438.3649749756,       -0.8178710938,        0.3637695312,       -0.0434570312,       22.5982666016,        5.7983398438,        0.1220703125
1494035438.3676750660,       -0.8178710938,        0.3637695312,       -0.0434570312,       22.5982666016,        5.7983398438,        0.1220703125
1494035438.3704850674,       -0.8178710938,        0.3637695312,       -0.0434570312,       24.2004394531,        6.2713623047,       -0.9002685547
1494035438.3731958866,       -0.8178710938,        0.3637695312,       -0.0434570312,       24.2004394531,        6.2713623047,       -0.9002685547
1494035438.3757510185,       -0.8427734375,        0.3471679688,       -0.0551757812,       25.4516601562,        5.9356689453,       -1.3885498047
1494035438.3783040047,       -0.8427734375,        0.3471679688,       -0.0551757812,       25.4516601562,        5.9356689453,       -1.3885498047
1494035438.3808529377,       -0.8427734375,        0.3471679688,       -0.0551757812,       25.7568359375,        4.8065185547,       -1.3732910156
1494035438.3834660053,       -0.8427734375,        0.3471679688,       -0.0551757812,       25.7568359375,        4.8065185547,       -1.3732910156
1494035438.3860208988,       -0.8549804688,        0.3388671875,       -0.0551757812,       25.7568359375,        4.7454833984,       -1.2512207031
1494035438.3885700703,       -0.8549804688,        0.3388671875,       -0.0551757812,       25.5737304688,        4.7454833984,       -1.2512207031
1494035438.3911240101,       -0.8549804688,        0.3388671875,       -0.0551757812,       25.5737304688,        0.8392333984,       -1.3580322266
1494035438.3938050270,       -0.8549804688,        0.3388671875,       -0.0551757812,       25.7873535156,        3.5095214844,       -1.3580322266
1494035438.3963589668,       -0.8476562500,        0.3085937500,       -0.0546875000,       25.7873535156,        3.5095214844,       -1.7547607422
1494035438.3989109993,       -0.8476562500,        0.3085937500,       -0.0546875000,       26.2603759766,        2.5939941406,       -1.7547607422
1494035438.4014620781,       -0.8476562500,        0.3085937500,       -0.0546875000,       26.2603759766,        2.5939941406,       -1.7547607422
1494035438.4041929245,       -0.8476562500,        0.3085937500,       -0.0546875000,       27.2216796875,        1.4648437500,       -1.7089843750
1494035438.4068839550,       -0.8300781250,        0.3115234375,       -0.0639648438,       27.2216796875,        1.4648437500,       -1.7089843750
1494035438.4095759392,       -0.8300781250,        0.3115234375,       -0.0639648438,       27.4963378906,        0.3356933594,       -0.7781982422
1494035438.4122700691,       -0.8300781250,        0.3115234375,       -0.0639648438,       27.4963378906,        0.3356933594,       -0.7781982422
1494035438.4149730206,       -0.8300781250,        0.3115234375,       -0.0756835938,       27.8930664062,       -0.7781982422,       -0.4425048828
1494035438.4176640511,       -0.8232421875,        0.3115234375,       -0.0756835938,       27.8930664062,       -0.7781982422,       -0.4425048828
1494035438.4203588963,       -0.8232421875,        0.3115234375,       -0.0756835938,       28.0151367188,       -1.6784667969,       -0.1525878906
1494035438.4230499268,       -0.8232421875,        0.3115234375,       -0.0756835938,       28.0151367188,       -1.6784667969,       -0.1525878906
1494035438.4257509708,       -0.8100585938,        0.3134765625,       -0.0664062500,       28.3355712891,       -2.1362304688,        0.8239746094
1494035438.4284439087,       -0.8100585938,        0.3134765625,       -0.0664062500,       28.3355712891,       -2.1362304688,        0.8239746094
1494035438.4311349392,       -0.8100585938,        0.3134765625,       -0.0664062500,       26.8859863281,       -2.2735595703,        1.5411376953
1494035438.4338459969,       -0.8100585938,        0.3134765625,       -0.0664062500,       26.8859863281,       -2.2735595703,        1.5411376953
1494035438.4363949299,       -0.8046875000,        0.2744140625,       -0.0180664062,       22.2167968750,       -2.7008056641,        1.1444091797
1494035438.4389460087,       -0.8046875000,        0.2744140625,       -0.0180664062,       22.2167968750,       -2.7008056641,        1.1444091797
1494035438.4414958954,       -0.8046875000,        0.2744140625,       -0.0180664062,       16.0369873047,       -2.6245117188,       -1.5563964844
1494035438.4442260265,       -0.8046875000,        0.2744140625,       -0.0180664062,       16.0369873047,       -2.6245117188,       -1.5563964844
1494035438.4469230175,       -0.7973632812,        0.2368164062,       -0.0205078125,        9.0637207031,       -0.7934570312,       -2.0141601562
1494035438.4496119022,       -0.7973632812,        0.2368164062,       -0.0205078125,        9.0637207031,       -0.7934570312,       -2.0141601562
1494035438.4523000717,       -0.7973632812,        0.2368164062,       -0.0205078125,        1.8005371094,        1.4801025391,        1.2664794922
1494035438.4549889565,       -0.7973632812,        0.3618164062,       -0.0283203125,        1.8005371094,        1.4801025391,        1.2664794922
1494035438.4576768875,       -0.7480468750,        0.2529296875,       -0.0283203125,       -5.5236816406,        4.3640136719,        5.1879882812
1494035438.4604699612,       -0.7480468750,        0.2529296875,       -0.0283203125,       -5.5236816406,        4.3640136719,        5.1879882812
1494035438.4635570049,       -0.7480468750,        0.2529296875,       -0.0283203125,      -11.3983154297,        7.0648193359,        8.3160400391
1494035438.4662580490,       -0.7456054688,        0.3105468750,       -0.0058593750,      -11.3983154297,        7.0648193359,        8.3160400391
1494035438.4689540863,       -0.7456054688,        0.3105468750,       -0.0058593750,      -16.1895751953,        9.1857910156,       10.9558105469
1494035438.4716451168,       -0.7456054688,        0.3105468750,       -0.0058593750,      -16.1895751953,        9.1857910156,       10.9558105469
1494035438.4743490219,       -0.7456054688,        0.3105468750,       -0.0058593750,      -19.9432373047,       10.6964111328,       14.3280029297
1494035438.4770469666,       -0.7514648438,        0.3603515625,        0.0483398438,      -19.9432373047,       10.6964111328,       14.3280029297
1494035438.4797410965,       -0.7514648438,        0.3603515625,        0.0483398438,      -23.4069824219,       12.0544433594,       16.9219970703
1494035438.4824399948,       -0.7514648438,        0.3603515625,        0.0483398438,      -23.4069824219,       12.0544433594,       16.9219970703
1494035438.4850590229,       -0.7514648438,        0.3603515625,        0.0737304688,      -26.2908935547,       11.8713378906,       19.8059082031
1494035438.4876151085,       -0.7543945312,        0.3828125000,        0.0737304688,      -26.2908935547,       11.8713378906,       19.8059082031
1494035438.4901759624,       -0.7543945312,        0.3828125000,        0.0737304688,      -30.9753417969,       11.2304687500,       22.6135253906
1494035438.4927361012,       -0.7543945312,        0.3828125000,        0.0737304688,      -30.9753417969,       11.2304687500,       22.6135253906
1494035438.4953069687,       -0.7543945312,        0.3828125000,        0.1166992188,      -37.3229980469,       10.0250244141,       26.4129638672
1494035438.4978699684,       -0.7436523438,        0.4663085938,        0.1166992188,      -37.3229980469,       10.0250244141,       26.4129638672
1494035438.5004289150,       -0.7436523438,        0.4663085938,        0.1166992188,      -41.2292480469,        8.6822509766,       30.7006835938
1494035438.5029830933,       -0.7436523438,        0.4663085938,        0.1166992188,      -42.9534912109,        8.6822509766,       30.7006835938
1494035438.5055840015,       -0.7436523438,        0.7163085938,        0.1430664062,      -42.9534912109,        4.7760009766,       33.2794189453
1494035438.5081350803,       -0.7202148438,        0.6381835938,        0.1430664062,      -44.2504882812,        7.7667236328,       33.2794189453
1494035438.5106909275,       -0.7202148438,        0.6381835938,        0.1430664062,      -44.2504882812,        7.7667236328,       35.0494384766
1494035438.5133199692,       -0.7202148438,        0.6381835938,        0.1430664062,      -39.4134521484,        6.2408447266,       35.0494384766
1494035438.5159881115,       -0.7202148438,        0.7861328125,        0.1547851562,      -39.4134521484,        6.2408447266,       36.8041992188
1494035438.5185470581,       -0.6748046875,        0.7861328125,        0.1547851562,      -31.5704345703,        2.7465820312,       36.8041992188
1494035438.5211029053,       -0.6748046875,        0.7861328125,        0.1547851562,      -31.5704345703,        2.7465820312,       36.8041992188
1494035438.5238089561,       -0.6748046875,        0.7861328125,        0.1547851562,      -23.8037109375,       -3.0822753906,       38.8031005859
1494035438.5265069008,       -0.6547851562,        0.8476562500,        0.2099609375,      -23.8037109375,       -3.0822753906,       38.8031005859
1494035438.5292010307,       -0.6547851562,        0.8476562500,        0.2099609375,      -14.9688720703,       -7.1563720703,       41.7633056641
1494035438.5318911076,       -0.6547851562,        0.8476562500,        0.2099609375,      -14.9688720703,       -7.1563720703,       41.7633056641
1494035438.5345149040,       -0.6547851562,        0.8476562500,        0.2099609375,        2.0751953125,       -8.5449218750,       44.9676513672
