time_stamp before, Acceleration x, Acceleration y, Acceleration z, Gyro x, Gyro y, Gyro z
1494293693.7786040306,       -0.7363281250,        0.1894531250,        0.1103515625,       33.1115722656,      -25.4516601562,       37.7655029297
1494293693.7845449448,       -0.7192382812,        0.1894531250,        0.1103515625,       34.6984863281,      -26.1688232422,       37.7655029297
1494293693.7872409821,       -0.7192382812,        0.1894531250,        0.1103515625,       34.6984863281,      -26.1688232422,       35.0646972656
1494293693.7899370193,       -0.7192382812,        0.1894531250,        0.1103515625,       35.5072021484,      -25.9552001953,       35.0646972656
1494293693.7926359177,       -0.7475585938,        0.1616210938,        0.1123046875,       35.5072021484,      -25.9552001953,       33.4014892578
1494293693.7953250408,       -0.7475585938,        0.1616210938,        0.1123046875,       34.1644287109,      -24.2919921875,       33.4014892578
1494293693.7980179787,       -0.7475585938,        0.1616210938,        0.1123046875,       34.1644287109,      -24.2919921875,       31.8908691406
1494293693.8007149696,       -0.7475585938,        0.1616210938,        0.1010742188,       32.1044921875,      -22.5982666016,       31.8908691406
1494293693.8034060001,       -0.7285156250,        0.1337890625,        0.1010742188,       32.1044921875,      -22.5982666016,       30.4107666016
1494293693.8060939312,       -0.7285156250,        0.1337890625,        0.1010742188,       29.4342041016,      -21.0113525391,       30.4107666016
1494293693.8087930679,       -0.7285156250,        0.1337890625,        0.1010742188,       29.4342041016,      -21.0113525391,       29.8156738281
1494293693.8115170002,       -0.7084960938,        0.1196289062,        0.0991210938,       25.8636474609,      -20.1873779297,       29.8156738281
1494293693.8140640259,       -0.7084960938,        0.1196289062,        0.0991210938,       25.8636474609,      -20.1873779297,       29.8156738281
1494293693.8166129589,       -0.7084960938,        0.1196289062,        0.0991210938,       22.0642089844,      -19.0429687500,       29.6936035156
1494293693.8191630840,       -0.7084960938,        0.1196289062,        0.0991210938,       22.0642089844,      -19.0429687500,       29.6936035156
1494293693.8218660355,       -0.7148437500,        0.1240234375,        0.0937500000,       20.2636718750,      -18.0969238281,       29.3273925781
1494293693.8244209290,       -0.7148437500,        0.1240234375,        0.0937500000,       20.2636718750,      -18.0969238281,       29.3273925781
1494293693.8269679546,       -0.7148437500,        0.1240234375,        0.0937500000,       19.4091796875,      -17.4102783203,       28.7628173828
1494293693.8295149803,       -0.7148437500,        0.1240234375,        0.0937500000,       19.4091796875,      -17.4102783203,       28.7628173828
1494293693.8323030472,       -0.7241210938,        0.1235351562,        0.0703125000,       18.9361572266,      -16.8151855469,       28.1677246094
1494293693.8350059986,       -0.7241210938,        0.1235351562,        0.0703125000,       18.9361572266,      -16.8151855469,       28.1677246094
1494293693.8377060890,       -0.7241210938,        0.1235351562,        0.0703125000,       17.3492431641,      -16.7083740234,       27.6641845703
1494293693.8404090405,       -0.7241210938,        0.1235351562,        0.0703125000,       17.3492431641,      -16.7083740234,       27.6641845703
1494293693.8431429863,       -0.7197265625,        0.1401367188,        0.0576171875,       14.9078369141,      -16.6473388672,       27.0385742188
1494293693.8458380699,       -0.7197265625,        0.1401367188,        0.0576171875,       14.9078369141,      -16.6473388672,       27.0385742188
1494293693.8485400677,       -0.7197265625,        0.1401367188,        0.0576171875,       12.7716064453,      -16.5863037109,       26.1840820312
1494293693.8512420654,       -0.7197265625,        0.1401367188,        0.0605468750,       12.7716064453,      -16.5863037109,       26.1840820312
1494293693.8539431095,       -0.7128906250,        0.1582031250,        0.0605468750,       11.2304687500,      -16.9372558594,       24.8870849609
1494293693.8568019867,       -0.7128906250,        0.1582031250,        0.0605468750,       11.2304687500,      -16.9372558594,       24.8870849609
1494293693.8594980240,       -0.7128906250,        0.1582031250,        0.0605468750,       10.3607177734,      -16.5405273438,       23.4985351562
1494293693.8622069359,       -0.7094726562,        0.1679687500,        0.0732421875,       10.3607177734,      -16.5405273438,       23.4985351562
1494293693.8649010658,       -0.7094726562,        0.1679687500,        0.0732421875,        9.5977783203,      -16.1743164062,       22.3999023438
1494293693.8676021099,       -0.7094726562,        0.1679687500,        0.0732421875,        9.5977783203,      -16.1743164062,       22.3999023438
1494293693.8702940941,       -0.7094726562,        0.1679687500,        0.0732421875,        9.0484619141,      -15.8843994141,       21.5911865234
1494293693.8728849888,       -0.7080078125,        0.1596679688,        0.0908203125,        9.0484619141,      -15.8843994141,       21.5911865234
1494293693.8754439354,       -0.7080078125,        0.1596679688,        0.0908203125,        7.8277587891,      -15.6250000000,       20.7366943359
1494293693.8779940605,       -0.7080078125,        0.1596679688,        0.0908203125,        7.8277587891,      -15.6250000000,       20.7366943359
1494293693.8805489540,       -0.7080078125,        0.1596679688,        0.0908203125,        7.8582763672,      -15.5181884766,       20.1721191406
1494293693.8831050396,       -0.6953125000,        0.1669921875,        0.0913085938,        7.8582763672,      -15.5181884766,       20.1721191406
1494293693.8856561184,       -0.6953125000,        0.1669921875,        0.0913085938,        7.8582763672,      -15.5639648438,       18.8751220703
1494293693.8882789612,       -0.6953125000,        0.1669921875,        0.0913085938,        9.6282958984,      -15.5639648438,       18.8751220703
1494293693.8908948898,       -0.6953125000,        0.1669921875,        0.0913085938,        9.6282958984,      -15.4266357422,       18.2647705078
1494293693.8935949802,       -0.6987304688,        0.1674804688,        0.0883789062,       12.1154785156,      -15.4266357422,       18.2647705078
1494293693.8963000774,       -0.6987304688,        0.1674804688,        0.0883789062,       12.1154785156,      -15.5029296875,       17.1966552734
1494293693.8989961147,       -0.6987304688,        0.1674804688,        0.0883789062,       14.8468017578,      -15.5029296875,       17.1966552734
1494293693.9017009735,       -0.6987304688,        0.1674804688,        0.0859375000,       14.8468017578,      -15.8691406250,       16.3421630859
1494293693.9043960571,       -0.6987304688,        0.1738281250,        0.0859375000,       16.5252685547,      -15.8691406250,       16.3421630859
1494293693.9070959091,       -0.6987304688,        0.1738281250,        0.0859375000,       16.5252685547,      -16.1437988281,       16.0675048828
1494293693.9098010063,       -0.6987304688,        0.1738281250,        0.0859375000,       18.4173583984,      -16.1437988281,       16.0675048828
1494293693.9125010967,       -0.7114257812,        0.1621093750,        0.0991210938,       18.4173583984,      -16.1437988281,       15.8996582031
1494293693.9151980877,       -0.7114257812,        0.1621093750,        0.0991210938,       19.8516845703,      -15.9912109375,       15.8996582031
1494293693.9178960323,       -0.7114257812,        0.1621093750,        0.0991210938,       19.8516845703,      -15.9912109375,       15.9454345703
1494293693.9206008911,       -0.7114257812,        0.1621093750,        0.0991210938,       20.7214355469,      -16.4794921875,       15.9454345703
1494293693.9231700897,       -0.6953125000,        0.1601562500,        0.0966796875,       20.7214355469,      -16.4794921875,       16.4031982422
1494293693.9257290363,       -0.6953125000,        0.1601562500,        0.0966796875,       21.8353271484,      -17.0593261719,       16.4031982422
1494293693.9283990860,       -0.6953125000,        0.1601562500,        0.0966796875,       21.8353271484,      -17.0593261719,       16.4031982422
1494293693.9310851097,       -0.6953125000,        0.1601562500,        0.0966796875,       23.8037109375,      -17.0135498047,       17.1508789062
1494293693.9336531162,       -0.7075195312,        0.1596679688,        0.0937500000,       23.8037109375,      -17.0135498047,       17.1508789062
1494293693.9362139702,       -0.7075195312,        0.1596679688,        0.0937500000,       27.4963378906,      -16.8609619141,       17.9595947266
1494293693.9387800694,       -0.7075195312,        0.1596679688,        0.0937500000,       27.4963378906,      -16.8609619141,       17.9595947266
1494293693.9415690899,       -0.7075195312,        0.1596679688,        0.0937500000,       30.2276611328,      -17.1051025391,       17.9748535156
1494293693.9441308975,       -0.7202148438,        0.1235351562,        0.0825195312,       30.2276611328,      -17.1051025391,       17.9748535156
1494293693.9467089176,       -0.7202148438,        0.1235351562,        0.0825195312,       31.8450927734,      -17.2576904297,       19.9737548828
1494293693.9492700100,       -0.7202148438,        0.1235351562,        0.0825195312,       31.8450927734,      -17.2576904297,       19.9737548828
1494293693.9519360065,       -0.7202148438,        0.1235351562,        0.0913085938,       32.5927734375,      -17.2729492188,       20.9350585938
1494293693.9545929432,       -0.7319335938,        0.1279296875,        0.0913085938,       32.5927734375,      -17.2729492188,       20.9350585938
1494293693.9574110508,       -0.7319335938,        0.1279296875,        0.0913085938,       33.4777832031,      -17.5323486328,       21.9573974609
1494293693.9609360695,       -0.7319335938,        0.1279296875,        0.0913085938,       33.4777832031,      -17.5323486328,       25.8636474609
1494293693.9636390209,       -0.7265625000,        0.1225585938,        0.1000976562,       35.9039306641,      -16.7999267578,       23.7884521484
1494293693.9663350582,       -0.7265625000,        0.1225585938,        0.1000976562,       35.9039306641,      -16.7999267578,       23.7884521484
1494293693.9690320492,       -0.7265625000,        0.1225585938,        0.1000976562,       37.0788574219,      -16.6015625000,       24.6124267578
1494293693.9717259407,       -0.7265625000,        0.1225585938,        0.1000976562,       37.0788574219,      -16.6015625000,       24.6124267578
1494293693.9742898941,       -0.7319335938,        0.0976562500,        0.1054687500,       34.1796875000,      -15.4876708984,       25.6500244141
1494293693.9768450260,       -0.7319335938,        0.0976562500,        0.1054687500,       34.1796875000,      -15.4876708984,       25.6500244141
1494293693.9794070721,       -0.7319335938,        0.0976562500,        0.1054687500,       28.8391113281,      -14.0380859375,       27.6489257812
1494293693.9820520878,       -0.7319335938,        0.0976562500,        0.1254882812,       28.8391113281,      -14.0380859375,       27.6489257812
1494293693.9847509861,       -0.7163085938,        0.1240234375,        0.1254882812,       25.6195068359,      -13.2598876953,       29.2968750000
1494293693.9874489307,       -0.7163085938,        0.1240234375,        0.1254882812,       25.6195068359,      -13.2598876953,       29.2968750000
1494293693.9901449680,       -0.7163085938,        0.1240234375,        0.1254882812,       23.6053466797,      -12.8326416016,       31.3568115234
1494293693.9927470684,       -0.7163085938,        0.1538085938,        0.1186523438,       23.6053466797,      -12.8326416016,       31.3568115234
1494293693.9953119755,       -0.7094726562,        0.1538085938,        0.1186523438,       23.2086181641,      -12.2070312500,       32.6538085938
1494293693.9978680611,       -0.7094726562,        0.1538085938,        0.1186523438,       23.2086181641,      -12.2070312500,       32.6538085938
1494293694.0004279613,       -0.7094726562,        0.1538085938,        0.1186523438,       23.7731933594,      -11.7492675781,       33.6914062500
1494293694.0031590462,       -0.7163085938,        0.1625976562,        0.1010742188,       23.7731933594,      -11.7492675781,       33.6914062500
1494293694.0057199001,       -0.7163085938,        0.1625976562,        0.1010742188,       24.3072509766,      -11.2152099609,       34.5916748047
1494293694.0082778931,       -0.7163085938,        0.1625976562,        0.1010742188,       24.3072509766,      -11.2152099609,       34.5916748047
1494293694.0110158920,       -0.7163085938,        0.1625976562,        0.1010742188,       25.7873535156,      -11.1694335938,       35.4156494141
1494293694.0135719776,       -0.7221679688,        0.1708984375,        0.1083984375,       25.7873535156,      -11.1694335938,       35.4156494141
1494293694.0161309242,       -0.7221679688,        0.1708984375,        0.1083984375,       25.7873535156,      -11.2762451172,       36.1022949219
1494293694.0186920166,       -0.7221679688,        0.1708984375,        0.1083984375,       28.1677246094,      -11.2762451172,       36.1022949219
1494293694.0213470459,       -0.7221679688,        0.1708984375,        0.1083984375,       28.1677246094,      -11.2762451172,       36.9110107422
1494293694.0239100456,       -0.7309570312,        0.1718750000,        0.1005859375,       31.7382812500,      -10.9710693359,       36.9110107422
1494293694.0264689922,       -0.7309570312,        0.1718750000,        0.1005859375,       31.7382812500,      -10.9710693359,       37.6892089844
1494293694.0290288925,       -0.7309570312,        0.1718750000,        0.1005859375,       34.7747802734,      -10.8184814453,       37.6892089844
1494293694.0316450596,       -0.7309570312,        0.1718750000,        0.1005859375,       34.7747802734,      -10.8184814453,       37.6892089844
1494293694.0343329906,       -0.7460937500,        0.1396484375,        0.1020507812,       35.5682373047,      -10.3302001953,       38.7573242188
1494293694.0370268822,       -0.7460937500,        0.1396484375,        0.1020507812,       35.5682373047,      -10.3302001953,       42.6635742188
1494293694.0397078991,       -0.7460937500,        0.1396484375,        0.1020507812,       34.8205566406,       -9.7045898438,       39.8712158203
1494293694.0424070358,       -0.7460937500,        0.1396484375,        0.0888671875,       34.8205566406,       -9.7045898438,       39.8712158203
1494293694.0450880527,       -0.7368164062,        0.1293945312,        0.0888671875,       32.8826904297,       -9.7656250000,       41.7785644531
1494293694.0477719307,       -0.7368164062,        0.1293945312,        0.0888671875,       32.8826904297,       -9.7656250000,       41.7785644531
1494293694.0504589081,       -0.7368164062,        0.1293945312,        0.0888671875,       30.8532714844,       -9.3078613281,       43.9910888672
1494293694.0531558990,       -0.7368164062,        0.1352539062,        0.0917968750,       30.8532714844,       -9.3078613281,       43.9910888672
1494293694.0558390617,       -0.7280273438,        0.1352539062,        0.0917968750,       27.6641845703,       -9.1552734375,       47.1191406250
1494293694.0585279465,       -0.7280273438,        0.1352539062,        0.0917968750,       27.6641845703,       -9.1552734375,       47.1191406250
1494293694.0612189770,       -0.7280273438,        0.1352539062,        0.0917968750,       24.5971679688,       -8.5601806641,       49.6215820312
1494293694.0639040470,       -0.7270507812,        0.1562500000,        0.0966796875,       24.5971679688,       -8.5601806641,       49.6215820312
1494293694.0665829182,       -0.7270507812,        0.1562500000,        0.0966796875,       22.9492187500,       -8.3923339844,       51.0711669922
1494293694.0692610741,       -0.7270507812,        0.1562500000,        0.0966796875,       22.9492187500,       -8.3923339844,       51.0711669922
1494293694.0719020367,       -0.7270507812,        0.1562500000,        0.0966796875,       22.1405029297,       -7.5683593750,       53.1616210938
1494293694.0744550228,       -0.7207031250,        0.1743164062,        0.1113281250,       22.1405029297,       -7.5683593750,       53.1616210938
1494293694.0771551132,       -0.7207031250,        0.1743164062,        0.1113281250,       22.0947265625,       -6.8664550781,       54.5349121094
1494293694.0797328949,       -0.7207031250,        0.1743164062,        0.1113281250,       22.0947265625,       -6.8664550781,       54.5349121094
1494293694.0824000835,       -0.7207031250,        0.1743164062,        0.1113281250,       22.7355957031,       -6.9122314453,       55.3894042969
1494293694.0850830078,       -0.7138671875,        0.1967773438,        0.1162109375,       22.7355957031,       -6.9122314453,       55.3894042969
1494293694.0877590179,       -0.7138671875,        0.1967773438,        0.1162109375,       23.1933593750,       -6.0577392578,       56.4727783203
1494293694.0904290676,       -0.7138671875,        0.1967773438,        0.1162109375,       23.1933593750,       -6.0577392578,       56.4727783203
1494293694.0931439400,       -0.7138671875,        0.1967773438,        0.1318359375,       23.4527587891,       -5.8593750000,       57.1289062500
1494293694.0958240032,       -0.7207031250,        0.2011718750,        0.1318359375,       23.4527587891,       -5.8593750000,       57.1289062500
1494293694.0985050201,       -0.7207031250,        0.2011718750,        0.1318359375,       24.7039794922,       -5.3253173828,       57.4798583984
1494293694.1011960506,       -0.7207031250,        0.2011718750,        0.1318359375,       24.7039794922,       -5.3253173828,       57.4798583984
1494293694.1038439274,       -0.7070312500,        0.2412109375,        0.1308593750,       25.6042480469,       -5.1116943359,       57.9681396484
1494293694.1064970493,       -0.7070312500,        0.2412109375,        0.1308593750,       25.6042480469,       -5.1116943359,       57.9681396484
1494293694.1091508865,       -0.7070312500,        0.2412109375,        0.1308593750,       25.6195068359,       -5.6915283203,       58.7310791016
1494293694.1117808819,       -0.7070312500,        0.2412109375,        0.1308593750,       25.6195068359,       -5.6915283203,       58.7310791016
1494293694.1143360138,       -0.6933593750,        0.2475585938,        0.1098632812,       25.4821777344,       -5.8898925781,       58.5784912109
1494293694.1168880463,       -0.6933593750,        0.2475585938,        0.1098632812,       25.4821777344,       -5.8898925781,       58.5784912109
1494293694.1194388866,       -0.6933593750,        0.2475585938,        0.1098632812,       25.4821777344,       -6.0577392578,       58.5174560547
1494293694.1221430302,       -0.6933593750,        0.2475585938,        0.1098632812,       25.4364013672,       -6.0577392578,       58.5174560547
1494293694.1247079372,       -0.6884765625,        0.2631835938,        0.0986328125,       25.4364013672,       -6.0577392578,       58.4869384766
1494293694.1272690296,       -0.6884765625,        0.2631835938,        0.0986328125,       25.4516601562,       -5.8593750000,       58.4869384766
1494293694.1298279762,       -0.6884765625,        0.2631835938,        0.0986328125,       25.4516601562,       -5.8593750000,       58.6700439453
1494293694.1325740814,       -0.6884765625,        0.2631835938,        0.0986328125,       24.9633789062,       -6.1950683594,       58.6700439453
1494293694.1352748871,       -0.6894531250,        0.2832031250,        0.0986328125,       24.9633789062,       -6.1950683594,       58.2733154297
1494293694.1379721165,       -0.6894531250,        0.2832031250,        0.0986328125,       25.3601074219,       -6.5155029297,       58.2733154297
1494293694.1408629417,       -0.6894531250,        0.2832031250,        0.0986328125,       25.3601074219,       -6.5155029297,       57.9528808594
1494293694.1435310841,       -0.6894531250,        0.2832031250,        0.1020507812,       25.4211425781,       -6.7901611328,       57.9528808594
1494293694.1462700367,       -0.7133789062,        0.2812500000,        0.1020507812,       25.4211425781,       -6.7901611328,       57.6477050781
1494293694.1490321159,       -0.7133789062,        0.2812500000,        0.1020507812,       25.1617431641,       -6.7901611328,       57.6477050781
1494293694.1520009041,       -0.7133789062,        0.2812500000,        0.1020507812,       25.1617431641,       -6.7901611328,       57.0831298828
1494293694.1546978951,       -0.7216796875,        0.2890625000,        0.1083984375,       25.4211425781,       -7.0800781250,       57.0831298828
1494293694.1573989391,       -0.7216796875,        0.2890625000,        0.1083984375,       25.4211425781,       -7.0800781250,       56.6253662109
1494293694.1600968838,       -0.7216796875,        0.2890625000,        0.1083984375,       25.6652832031,       -7.0190429688,       56.6253662109
1494293694.1628069878,       -0.7216796875,        0.2890625000,        0.1083984375,       25.6652832031,       -7.0190429688,       56.1981201172
1494293694.1655039787,       -0.7172851562,        0.3041992188,        0.0961914062,       25.9094238281,       -7.0800781250,       56.1981201172
1494293694.1682019234,       -0.7172851562,        0.3041992188,        0.0961914062,       25.9094238281,       -7.0800781250,       56.3201904297
1494293694.1709449291,       -0.7172851562,        0.3041992188,        0.0961914062,       26.3824462891,       -7.1258544922,       56.3201904297
1494293694.1736390591,       -0.7172851562,        0.3041992188,        0.0961914062,       26.3824462891,       -7.1258544922,       56.7016601562
1494293694.1763288975,       -0.7143554688,        0.3139648438,        0.0961914062,       26.7333984375,       -7.3852539062,       56.7016601562
1494293694.1790258884,       -0.7143554688,        0.3139648438,        0.0961914062,       26.7333984375,      -11.2915039062,       56.6711425781
1494293694.1817390919,       -0.7143554688,        0.3139648438,        0.0961914062,       27.2979736328,       -8.1176757812,       56.6711425781
1494293694.1842949390,       -0.7143554688,        0.3002929688,        0.0986328125,       27.2979736328,       -8.1176757812,       57.0831298828
1494293694.1868491173,       -0.7143554688,        0.3002929688,        0.0986328125,       27.6336669922,       -8.3465576172,       57.0831298828
1494293694.1894021034,       -0.7143554688,        0.3002929688,        0.0986328125,       27.6336669922,       -8.3465576172,       57.0831298828
1494293694.1920518875,       -0.7143554688,        0.3002929688,        0.0986328125,       27.5878906250,       -8.1329345703,       57.7545166016
1494293694.1946039200,       -0.7290039062,        0.3002929688,        0.0913085938,       27.5878906250,       -8.1329345703,       57.7545166016
1494293694.1971590519,       -0.7290039062,        0.3002929688,        0.0913085938,       27.4200439453,       -8.4075927734,       58.3953857422
1494293694.1997189522,       -0.7290039062,        0.3002929688,        0.0913085938,       27.4200439453,       -8.4075927734,       58.3953857422
1494293694.2025001049,       -0.7290039062,        0.3002929688,        0.0913085938,       26.4282226562,       -8.5449218750,       60.2569580078
1494293694.2051980495,       -0.7363281250,        0.2910156250,        0.0786132812,       26.4282226562,       -8.5449218750,       60.2569580078
1494293694.2078890800,       -0.7363281250,        0.2910156250,        0.0786132812,       25.5432128906,       -8.3312988281,       62.0727539062
1494293694.2105839252,       -0.7363281250,        0.2910156250,        0.0786132812,       25.5432128906,       -8.3312988281,       62.0727539062
1494293694.2132880688,       -0.7363281250,        0.2910156250,        0.0786132812,       25.1922607422,       -7.6904296875,       63.4765625000
1494293694.2159790993,       -0.7524414062,        0.3027343750,        0.0507812500,       25.1922607422,       -7.6904296875,       63.4765625000
1494293694.2186660767,       -0.7524414062,        0.3027343750,        0.0507812500,       25.2838134766,       -7.3394775391,       65.6738281250
1494293694.2213530540,       -0.7524414062,        0.3027343750,        0.0507812500,       25.2838134766,       -7.3394775391,       65.6738281250
1494293694.2240118980,       -0.7524414062,        0.3027343750,        0.0634765625,       25.2990722656,       -6.8511962891,       67.6422119141
1494293694.2265739441,       -0.7504882812,        0.3281250000,        0.0634765625,       25.2990722656,       -6.8511962891,       67.6422119141
1494293694.2291309834,       -0.7504882812,        0.3281250000,        0.0634765625,       26.0467529297,       -6.2255859375,       69.5953369141
1494293694.2317841053,       -0.7504882812,        0.3281250000,        0.0634765625,       26.0467529297,       -6.2255859375,       69.5953369141
1494293694.2344961166,       -0.7504882812,        0.3388671875,        0.0903320312,       26.1993408203,       -5.3710937500,       70.7855224609
1494293694.2371890545,       -0.8002929688,        0.3388671875,        0.0903320312,       26.1993408203,       -5.3710937500,       70.7855224609
1494293694.2398810387,       -0.8002929688,        0.3388671875,        0.0903320312,       25.7720947266,       -4.6386718750,       72.1282958984
1494293694.2425930500,       -0.8002929688,        0.3388671875,        0.0903320312,       25.7720947266,       -4.6386718750,       72.1282958984
1494293694.2452929020,       -0.8217773438,        0.3476562500,        0.0747070312,       25.4974365234,       -4.0435791016,       73.9135742188
1494293694.2479910851,       -0.8217773438,        0.3476562500,        0.0747070312,       25.4974365234,       -4.0435791016,       73.9135742188
1494293694.2506990433,       -0.8217773438,        0.3476562500,        0.0747070312,       24.5208740234,       -3.1127929688,       75.5920410156
1494293694.2533950806,       -0.8217773438,        0.3476562500,        0.0747070312,       24.5208740234,       -3.1127929688,       75.5920410156
1494293694.2560939789,       -0.8486328125,        0.3403320312,        0.0888671875,       23.2391357422,       -1.8920898438,       77.6977539062
1494293694.2588748932,       -0.8486328125,        0.3403320312,        0.0888671875,       23.2391357422,       -1.8920898438,       77.6977539062
1494293694.2617518902,       -0.8486328125,        0.3403320312,        0.0888671875,       22.5372314453,       -1.3580322266,       80.0476074219
1494293694.2644670010,       -0.8486328125,        0.3403320312,        0.1088867188,       22.5372314453,       -1.3580322266,       80.0476074219
1494293694.2671649456,       -0.8535156250,        0.3447265625,        0.1088867188,       21.9116210938,       -1.4801025391,       81.4361572266
1494293694.2698640823,       -0.8535156250,        0.3447265625,        0.1088867188,       21.9116210938,       -1.4801025391,       81.4361572266
1494293694.2724850178,       -0.8535156250,        0.3447265625,        0.1088867188,       22.7966308594,       -1.3885498047,       82.8094482422
1494293694.2750420570,       -0.8535156250,        0.3647460938,        0.1069335938,       22.7966308594,       -1.3885498047,       82.8094482422
1494293694.2775990963,       -0.8657226562,        0.3647460938,        0.1069335938,       26.7028808594,       -0.6561279297,       84.5031738281
1494293694.2801520824,       -0.8657226562,        0.3647460938,        0.1069335938,       24.1394042969,       -0.6561279297,       84.5031738281
1494293694.2828290462,       -0.8657226562,        0.3647460938,        0.1069335938,       24.1394042969,       -0.2288818359,       86.2731933594
1494293694.2855238914,       -0.8813476562,        0.3642578125,        0.0908203125,       24.3377685547,       -0.2288818359,       86.2731933594
1494293694.2882189751,       -0.8813476562,        0.3642578125,        0.0908203125,       24.3377685547,        0.0610351562,       88.3789062500
1494293694.2909510136,       -0.8813476562,        0.3642578125,        0.0908203125,       24.7497558594,        0.0610351562,       88.3789062500
1494293694.2935109138,       -0.8813476562,        0.3642578125,        0.0908203125,       24.7497558594,        0.0610351562,       90.9271240234
1494293694.2960650921,       -0.8769531250,        0.3613281250,        0.0791015625,       24.0783691406,        0.2746582031,       90.9271240234
1494293694.2987389565,       -0.8769531250,        0.3613281250,        0.0791015625,       24.0783691406,        0.2746582031,       92.5445556641
1494293694.3013439178,       -0.8769531250,        0.3613281250,        0.0791015625,       23.7579345703,        0.2288818359,       92.5445556641
1494293694.3039031029,       -0.8769531250,        0.3613281250,        0.0791015625,       23.7579345703,        0.2288818359,       96.4508056641
1494293694.3064560890,       -0.8906250000,        0.3598632812,        0.0634765625,       24.0478515625,        0.1068115234,       94.2077636719
1494293694.3090100288,       -0.8906250000,        0.3598632812,        0.0634765625,       24.0478515625,        0.1068115234,       94.2077636719
1494293694.3116660118,       -0.8906250000,        0.3598632812,        0.0634765625,       24.2767333984,        0.2136230469,       96.2982177734
1494293694.3142240047,       -0.8906250000,        0.3598632812,        0.0634765625,       24.2767333984,        0.2136230469,       96.2982177734
1494293694.3167829514,       -0.9272460938,        0.3422851562,        0.0761718750,       24.1851806641,        0.5493164062,       98.0224609375
1494293694.3193469048,       -0.9272460938,        0.3422851562,        0.0761718750,       24.1851806641,        0.5493164062,       98.0224609375
1494293694.3220360279,       -0.9272460938,        0.3422851562,        0.0761718750,       24.6582031250,        1.3580322266,      100.2197265625
1494293694.3245959282,       -0.9272460938,        0.3422851562,        0.0761718750,       24.6582031250,        1.3580322266,      100.2197265625
1494293694.3271510601,       -1.0258789062,        0.3339843750,        0.0957031250,       25.2532958984,        2.4108886719,      102.7984619141
1494293694.3297030926,       -1.0258789062,        0.3339843750,        0.0957031250,       25.2532958984,        2.4108886719,      102.7984619141
1494293694.3323950768,       -1.0258789062,        0.3339843750,        0.0957031250,       26.0162353516,        3.3264160156,      105.5450439453
1494293694.3350911140,       -1.0258789062,        0.3339843750,        0.1416015625,       26.0162353516,        3.3264160156,      105.5450439453
1494293694.3377881050,       -1.0825195312,        0.3510742188,        0.1416015625,       27.4200439453,        3.7994384766,      108.5968017578
1494293694.3404889107,       -1.0825195312,        0.3510742188,        0.1416015625,       27.4200439453,        3.7994384766,      108.5968017578
1494293694.3431949615,       -1.0825195312,        0.3510742188,        0.1416015625,       30.8837890625,        3.4179687500,      111.6180419922
1494293694.3458991051,       -1.1274414062,        0.2817382812,        0.1801757812,       30.8837890625,        3.4179687500,      111.6180419922
1494293694.3485910892,       -1.1274414062,        0.2817382812,        0.1801757812,       36.4990234375,        1.3122558594,      114.0289306641
1494293694.3512599468,       -1.1274414062,        0.2817382812,        0.1801757812,       36.4990234375,        1.3122558594,      114.0289306641
1494293694.3538188934,       -1.1274414062,        0.2817382812,        0.1801757812,       42.6330566406,       -1.6326904297,      115.6005859375
1494293694.3563709259,       -1.1723632812,        0.2333984375,        0.1967773438,       42.6330566406,       -1.6326904297,      115.6005859375
1494293694.3589279652,       -1.1723632812,        0.2333984375,        0.1967773438,       42.6330566406,       -4.8675537109,      117.5842285156
1494293694.3615899086,       -1.1723632812,        0.2333984375,        0.1967773438,       48.5076904297,       -4.8675537109,      117.5842285156
1494293694.3642899990,       -1.1723632812,        0.2333984375,        0.1967773438,       48.5076904297,       -8.0108642578,      120.1171875000
1494293694.3669910431,       -1.2416992188,        0.2143554688,        0.2026367188,       54.9621582031,       -8.0108642578,      120.1171875000
1494293694.3697929382,       -1.2416992188,        0.2143554688,        0.2026367188,       54.9621582031,      -10.7421875000,      122.4517822266
1494293694.3724040985,       -1.2416992188,        0.2143554688,        0.2026367188,       63.3392333984,      -10.7421875000,      122.4517822266
1494293694.3749630451,       -1.2416992188,        0.2143554688,        0.2026367188,       63.3392333984,      -10.7421875000,      123.1689453125
1494293694.3777279854,       -1.3173828125,        0.1586914062,        0.2167968750,       73.1353759766,      -14.0838623047,      123.1689453125
1494293694.3802928925,       -1.3173828125,        0.1586914062,        0.2167968750,       73.1353759766,      -17.9901123047,      122.2991943359
1494293694.3832809925,       -1.3173828125,        0.1586914062,        0.2167968750,       84.0911865234,      -18.4783935547,      122.2991943359
1494293694.3859810829,       -1.3173828125,        0.0747070312,        0.2236328125,       84.0911865234,      -22.3846435547,      121.8566894531
1494293694.3886830807,       -1.3706054688,        0.0747070312,        0.2236328125,       93.2312011719,      -22.8729248047,      121.8566894531
1494293694.3913938999,       -1.3706054688,        0.0747070312,        0.2236328125,       93.2312011719,      -26.7791748047,      121.6583251953
1494293694.3940930367,       -1.3706054688,        0.0747070312,        0.2236328125,      100.2655029297,      -27.2216796875,      121.6583251953
1494293694.3967950344,       -1.3579101562,        0.0644531250,        0.2065429688,      100.2655029297,      -31.1279296875,      122.8027343750
1494293694.3994948864,       -1.3579101562,        0.0644531250,        0.2065429688,      102.6458740234,      -29.4799804688,      122.8027343750
1494293694.4022130966,       -1.3579101562,        0.0644531250,        0.2065429688,      102.6458740234,      -29.4799804688,      123.2604980469
1494293694.4049170017,       -1.3579101562,        0.0644531250,        0.2065429688,      104.0344238281,      -29.5562744141,      123.2604980469
1494293694.4076209068,       -1.2905273438,        0.1201171875,        0.2192382812,      104.0344238281,      -29.5562744141,      121.2310791016
1494293694.4103329182,       -1.2905273438,        0.1201171875,        0.2192382812,      109.4665527344,      -27.7404785156,      121.2310791016
1494293694.4129269123,       -1.2905273438,        0.1201171875,        0.2192382812,      109.4665527344,      -27.7404785156,      117.8894042969
1494293694.4154880047,       -1.2905273438,        0.1201171875,        0.3442382812,      100.9216308594,      -25.3753662109,      117.8894042969
1494293694.4180510044,       -1.2509765625,        0.1181640625,        0.3369140625,      100.9216308594,      -25.3753662109,      117.8894042969
1494293694.4206120968,       -1.2509765625,        0.1181640625,        0.3369140625,       74.4476318359,      -20.9197998047,      117.0959472656
1494293694.4232220650,       -1.2509765625,        0.1181640625,        0.3369140625,       74.4476318359,      -20.9197998047,      117.0959472656
1494293694.4257819653,       -1.2509765625,        0.1181640625,        0.2597656250,       53.8787841797,      -10.2539062500,      116.9281005859
1494293694.4283480644,       -1.1909179688,        0.1406250000,        0.2597656250,       53.8787841797,      -10.2539062500,      116.9281005859
1494293694.4310789108,       -1.1909179688,        0.1406250000,        0.2597656250,       55.4656982422,       -1.4953613281,      118.3471679688
1494293694.4336349964,       -1.1909179688,        0.1406250000,        0.2597656250,       55.4656982422,       -1.4953613281,      118.3471679688
1494293694.4361870289,       -1.1909179688,        0.2993164062,        0.2436523438,       68.3135986328,       -3.9825439453,      122.2229003906
1494293694.4387490749,       -0.9824218750,        0.2993164062,        0.2436523438,       68.3135986328,       -3.9825439453,      122.2229003906
1494293694.4414749146,       -0.9824218750,        0.2993164062,        0.2436523438,       71.2432861328,      -10.5133056641,      125.5340576172
1494293694.4442930222,       -0.9824218750,        0.2993164062,        0.2436523438,       71.2432861328,      -10.5133056641,      125.5340576172
1494293694.4469950199,       -0.9790039062,        0.2539062500,        0.3559570312,       67.9321289062,       -9.2010498047,      128.3721923828
1494293694.4496929646,       -0.9790039062,        0.2539062500,        0.3559570312,       67.9321289062,       -9.2010498047,      128.3721923828
1494293694.4523229599,       -0.9790039062,        0.2539062500,        0.3559570312,       61.3098144531,       -7.6141357422,      128.2196044922
1494293694.4548699856,       -0.9790039062,        0.2539062500,        0.3559570312,       61.3098144531,       -7.6141357422,      128.2196044922
1494293694.4574229717,       -0.8129882812,        0.2827148438,        0.3081054688,       56.4727783203,      -10.6658935547,      126.9836425781
1494293694.4599840641,       -0.8129882812,        0.2827148438,        0.3081054688,       56.4727783203,      -10.6658935547,      126.9836425781
1494293694.4626948833,       -0.8129882812,        0.2827148438,        0.3081054688,       53.8787841797,      -13.7481689453,      123.1536865234
1494293694.4654009342,       -0.8129882812,        0.2827148438,        0.3081054688,       53.8787841797,      -13.7481689453,      123.1536865234
1494293694.4680969715,       -0.6972656250,        0.2753906250,        0.2216796875,       50.8422851562,      -11.9628906250,      110.6414794922
1494293694.4708099365,       -0.6972656250,        0.2753906250,        0.2216796875,       50.8422851562,      -11.9628906250,      110.6414794922
1494293694.4733750820,       -0.6972656250,        0.2753906250,        0.2216796875,       54.7485351562,      -15.5792236328,       95.4742431641
1494293694.4759259224,       -0.6972656250,        0.2753906250,        0.3466796875,       58.0902099609,      -15.5792236328,       95.4742431641
1494293694.4784851074,       -0.5014648438,        0.3115234375,        0.3037109375,       58.0902099609,      -27.2979736328,       84.4879150391
1494293694.4810700417,       -0.5014648438,        0.3115234375,        0.3037109375,       69.6105957031,      -24.2462158203,       84.4879150391
1494293694.4837689400,       -0.5014648438,        0.3115234375,        0.3037109375,       69.6105957031,      -24.2462158203,       69.4427490234
1494293694.4864740372,       -0.5014648438,        0.0615234375,        0.3046875000,       77.3468017578,      -27.6641845703,       69.4427490234
1494293694.4891810417,       -0.5200195312,        0.1088867188,        0.3046875000,       77.3468017578,      -27.6641845703,       47.5921630859
1494293694.4918971062,       -0.5200195312,        0.1088867188,        0.3046875000,       85.0219726562,      -26.3519287109,       47.5921630859
1494293694.4946000576,       -0.5200195312,        0.1088867188,        0.3046875000,       85.0219726562,      -26.3519287109,       24.3072509766
1494293694.4974629879,       -0.5522460938,       -0.2382812500,        0.1464843750,       93.1091308594,      -23.0407714844,       24.3072509766
1494293694.5001609325,       -0.5522460938,       -0.2382812500,        0.1464843750,      100.9216308594,      -20.9960937500,        6.9885253906
1494293694.5032711029,       -0.5522460938,       -0.2382812500,        0.1464843750,       99.0753173828,      -20.9960937500,        6.9885253906
1494293694.5059750080,       -0.5522460938,       -0.2382812500,        0.1464843750,       99.0753173828,      -20.3704833984,       -2.0904541016
1494293694.5086789131,       -0.4711914062,       -0.3642578125,        0.0439453125,      101.2115478516,      -20.3704833984,       -2.0904541016
1494293694.5113921165,       -0.4711914062,       -0.3642578125,        0.0439453125,      101.2115478516,      -20.3094482422,       -8.7127685547
1494293694.5140941143,       -0.4711914062,       -0.3642578125,        0.0439453125,       99.1210937500,      -20.3094482422,       -8.7127685547
1494293694.5167949200,       -0.4711914062,       -0.3642578125,       -0.0463867188,       99.1210937500,      -20.4467773438,      -16.2811279297
1494293694.5195989609,       -0.3857421875,       -0.3676757812,       -0.0463867188,       92.6666259766,      -20.4467773438,      -16.2811279297
1494293694.5222270489,       -0.3857421875,       -0.3676757812,       -0.0463867188,       92.6666259766,      -20.2484130859,      -24.4445800781
1494293694.5247850418,       -0.3857421875,       -0.3676757812,       -0.0463867188,       80.7495117188,      -20.2484130859,      -24.4445800781
1494293694.5273458958,       -0.3857421875,       -0.2983398438,       -0.0317382812,       80.7495117188,      -20.2484130859,      -32.2265625000
1494293694.5299139023,       -0.3774414062,       -0.2983398438,       -0.0317382812,       65.3686523438,      -17.8833007812,      -32.2265625000
1494293694.5325119495,       -0.3774414062,       -0.2983398438,       -0.0317382812,       65.3686523438,      -17.8833007812,      -40.0390625000
1494293694.5350799561,       -0.3774414062,       -0.2983398438,       -0.0317382812,       53.1311035156,      -15.6860351562,      -40.7562255859
1494293694.5376389027,       -0.3027343750,       -0.1635742188,       -0.0639648438,       53.1311035156,      -15.6860351562,      -40.7562255859
1494293694.5401990414,       -0.3027343750,       -0.1635742188,       -0.0639648438,       43.7927246094,      -15.6097412109,      -49.3469238281
1494293694.5427670479,       -0.3027343750,       -0.1635742188,       -0.0639648438,       43.7927246094,      -15.6097412109,      -49.3469238281
1494293694.5453269482,       -0.3027343750,       -0.1635742188,       -0.0639648438,       37.1398925781,      -16.3574218750,      -57.9986572266
1494293694.5478839874,       -0.2910156250,       -0.0302734375,       -0.0791015625,       37.1398925781,      -16.3574218750,      -57.9986572266
1494293694.5504479408,       -0.2910156250,       -0.0302734375,       -0.0791015625,       32.1502685547,      -17.1356201172,      -67.7490234375
1494293694.5531699657,       -0.2910156250,       -0.0302734375,       -0.0791015625,       32.1502685547,      -17.1356201172,      -67.7490234375
1494293694.5557329655,       -0.2910156250,       -0.0302734375,       -0.0791015625,       27.3284912109,      -18.0664062500,      -77.8503417969
1494293694.5582981110,       -0.2851562500,        0.0126953125,       -0.0336914062,       27.3284912109,      -18.0664062500,      -77.8503417969
1494293694.5610339642,       -0.2851562500,        0.0126953125,       -0.0336914062,       21.9879150391,      -19.0734863281,      -88.2568359375
1494293694.5637400150,       -0.2851562500,        0.0126953125,       -0.0336914062,       21.9879150391,      -19.0734863281,      -88.2568359375
1494293694.5664379597,       -0.2851562500,        0.0126953125,       -0.0336914062,       16.2658691406,      -19.5159912109,      -99.1363525391
1494293694.5691349506,       -0.3007812500,       -0.0151367188,       -0.0253906250,       16.2658691406,      -19.5159912109,      -99.1363525391
1494293694.5717940331,       -0.3007812500,       -0.0151367188,       -0.0253906250,        9.1094970703,      -20.0195312500,     -110.1074218750
1494293694.5743510723,       -0.3007812500,       -0.0151367188,       -0.0253906250,        9.1094970703,      -20.0195312500,     -110.1074218750
1494293694.5769069195,       -0.3007812500,       -0.0151367188,       -0.0253906250,        1.2969970703,      -20.5078125000,     -121.1242675781
1494293694.5794610977,       -0.3486328125,       -0.0615234375,       -0.0190429688,        0.7781982422,      -20.5078125000,     -121.1242675781
1494293694.5820999146,       -0.3486328125,       -0.0615234375,       -0.0190429688,        0.7781982422,      -21.0418701172,     -130.2032470703
1494293694.5848019123,       -0.3486328125,       -0.0615234375,       -0.0190429688,       -7.9956054688,      -21.0418701172,     -130.2032470703
1494293694.5874969959,       -0.3486328125,       -0.0908203125,       -0.0249023438,       -7.9956054688,      -21.5301513672,     -137.7258300781
1494293694.5903060436,       -0.4033203125,       -0.0908203125,       -0.0249023438,      -18.1427001953,      -21.5301513672,     -137.7258300781
1494293694.5930221081,       -0.4033203125,       -0.0908203125,       -0.0249023438,      -29.8614501953,      -21.3165283203,     -144.2718505859
1494293694.5957241058,       -0.4033203125,       -0.0908203125,       -0.0249023438,      -29.3121337891,      -21.3165283203,     -144.2718505859
1494293694.5984311104,       -0.4511718750,       -0.0605468750,       -0.0175781250,      -29.3121337891,      -21.2554931641,     -150.8178710938
1494293694.6011710167,       -0.4511718750,       -0.0605468750,       -0.0175781250,      -40.1458740234,      -21.2554931641,     -150.8178710938
1494293694.6038670540,       -0.4511718750,       -0.0605468750,       -0.0175781250,      -40.1458740234,      -20.6298828125,     -156.2347412109
1494293694.6065669060,       -0.4511718750,       -0.0605468750,       -0.0175781250,      -51.3153076172,      -20.6298828125,     -156.2347412109
1494293694.6092650890,       -0.4736328125,        0.0000000000,       -0.0126953125,      -51.3153076172,      -19.6533203125,     -161.3159179688
1494293694.6119699478,       -0.4736328125,        0.0000000000,       -0.0126953125,      -60.6689453125,      -19.6533203125,     -161.3159179688
1494293694.6146700382,       -0.4736328125,        0.0000000000,       -0.0126953125,      -60.6689453125,      -19.4091796875,     -166.4276123047
1494293694.6175029278,       -0.4736328125,        0.0000000000,        0.0000000000,      -69.5037841797,      -19.4091796875,     -166.4276123047
1494293694.6205790043,       -0.5000000000,        0.0766601562,        0.0000000000,      -77.6977539062,      -18.6614990234,     -172.0428466797
1494293694.6241600513,       -0.5000000000,        0.0766601562,        0.0000000000,      -77.6977539062,      -18.6614990234,     -172.0428466797
1494293694.6273310184,       -0.5000000000,        0.0766601562,        0.0224609375,      -84.4268798828,      -17.9748535156,     -178.0853271484
1494293694.6309509277,       -0.5473632812,        0.1489257812,        0.0224609375,      -88.3331298828,      -16.8914794922,     -183.5632324219
1494293694.6363630295,       -0.5473632812,        0.1489257812,        0.0224609375,      -93.1549072266,      -15.4724121094,     -189.1479492188
1494293694.6395208836,       -0.6040039062,        0.2436523438,        0.0307617188,      -92.2088623047,      -15.4724121094,     -189.1479492188
1494293694.6437718868,       -0.6040039062,        0.2436523438,        0.0307617188,      -92.7276611328,      -14.1906738281,     -193.9849853516
1494293694.6464331150,       -0.6040039062,        0.2436523438,        0.0307617188,      -92.7276611328,      -14.1906738281,     -193.9849853516
1494293694.6492710114,       -0.6533203125,        0.3217773438,        0.0424804688,      -92.2698974609,      -12.9547119141,     -198.3337402344
1494293694.6519451141,       -0.6533203125,        0.3217773438,        0.0424804688,      -92.2698974609,      -12.9547119141,     -198.3337402344
1494293694.6545081139,       -0.6533203125,        0.3217773438,        0.0424804688,      -91.3391113281,      -11.2762451172,     -203.1250000000
1494293694.6570661068,       -0.6533203125,        0.3217773438,        0.0424804688,      -91.3391113281,      -11.2762451172,     -203.1250000000
1494293694.6596190929,       -0.6904296875,        0.3505859375,        0.0346679688,      -90.6372070312,       -9.5977783203,     -207.2601318359
1494293694.6622819901,       -0.6904296875,        0.3505859375,        0.0346679688,      -90.6372070312,       -9.5977783203,     -207.2601318359
1494293694.6648409367,       -0.6904296875,        0.3505859375,        0.0346679688,      -90.1794433594,       -8.1176757812,     -210.9069824219
1494293694.6673910618,       -0.6904296875,        0.3505859375,        0.0346679688,      -90.1794433594,       -8.1176757812,     -210.9069824219
1494293694.6699469090,       -0.7231445312,        0.3725585938,        0.0253906250,      -90.4846191406,       -6.5765380859,     -214.2181396484
1494293694.6727800369,       -0.7231445312,        0.3725585938,        0.0253906250,      -90.4846191406,       -6.5765380859,     -214.2181396484
1494293694.6753358841,       -0.7231445312,        0.3725585938,        0.0253906250,      -90.6677246094,       -5.1879882812,     -217.6818847656
1494293694.6778819561,       -0.7231445312,        0.3725585938,        0.0522460938,      -90.6677246094,       -5.1879882812,     -217.6818847656
1494293694.6804358959,       -0.7626953125,        0.4062500000,        0.0522460938,      -88.7603759766,       -3.9367675781,     -220.7183837891
1494293694.6832408905,       -0.7626953125,        0.4062500000,        0.0522460938,      -88.7603759766,       -3.9367675781,     -220.7183837891
1494293694.6859281063,       -0.7626953125,        0.4062500000,        0.0522460938,      -86.2731933594,       -2.5024414062,     -223.5412597656
1494293694.6886069775,       -0.7626953125,        0.4399414062,        0.0815429688,      -86.2731933594,       -2.5024414062,     -223.5412597656
1494293694.6912899017,       -0.7895507812,        0.4399414062,        0.0815429688,      -82.9010009766,       -1.4190673828,     -226.9744873047
1494293694.6939630508,       -0.7895507812,        0.4399414062,        0.0815429688,      -82.9010009766,       -1.4190673828,     -226.9744873047
1494293694.6966440678,       -0.7895507812,        0.4399414062,        0.0815429688,      -78.5675048828,       -0.2288818359,     -229.5227050781
1494293694.6993210316,       -0.8217773438,        0.4824218750,        0.0839843750,      -78.5675048828,       -0.2288818359,     -229.5227050781
1494293694.7020120621,       -0.8217773438,        0.4824218750,        0.0839843750,      -74.6612548828,        0.4730224609,     -231.9946289062
1494293694.7046930790,       -0.8217773438,        0.4824218750,        0.0839843750,      -75.0274658203,        0.4730224609,     -231.9946289062
1494293694.7073769569,       -0.8217773438,        0.4824218750,        0.0839843750,      -71.1212158203,        1.0223388672,     -233.9782714844
1494293694.7100529671,       -0.8530273438,        0.4697265625,        0.1074218750,      -72.7691650391,        1.0223388672,     -233.9782714844
1494293694.7127521038,       -0.8530273438,        0.4697265625,        0.1074218750,      -72.7691650391,        1.3732910156,     -235.5651855469
1494293694.7154300213,       -0.8530273438,        0.4697265625,        0.1074218750,      -70.1141357422,        1.3732910156,     -235.5651855469
1494293694.7181119919,       -0.8530273438,        0.4697265625,        0.1279296875,      -70.1141357422,        1.2969970703,     -236.0839843750
1494293694.7208058834,       -0.8847656250,        0.4643554688,        0.1279296875,      -67.6574707031,        1.2969970703,     -236.0839843750
1494293694.7235009670,       -0.8847656250,        0.4643554688,        0.1279296875,      -67.6574707031,        0.7476806641,     -236.9232177734
1494293694.7262010574,       -0.8847656250,        0.4643554688,        0.1279296875,      -66.3604736328,        0.7476806641,     -236.9232177734
1494293694.7290990353,       -0.9106445312,        0.4599609375,        0.1474609375,      -66.3604736328,        0.8850097656,     -237.1673583984
1494293694.7320039272,       -0.9106445312,        0.4599609375,        0.1474609375,      -65.0634765625,        0.8850097656,     -237.1673583984
1494293694.7347140312,       -0.9106445312,        0.4599609375,        0.1474609375,      -65.0634765625,        1.0833740234,     -237.5030517578
1494293694.7374060154,       -0.9106445312,        0.4599609375,        0.1474609375,      -65.1397705078,        1.0833740234,     -237.5030517578
1494293694.7401080132,       -0.9409179688,        0.4335937500,        0.1572265625,      -69.0460205078,        0.4425048828,     -237.7014160156
1494293694.7428200245,       -0.9409179688,        0.4335937500,        0.1572265625,      -67.2760009766,        0.4425048828,     -237.7014160156
1494293694.7455189228,       -0.9409179688,        0.4335937500,        0.1572265625,      -71.1822509766,       -0.2441406250,     -237.4420166016
1494293694.7483289242,       -0.9409179688,        0.4335937500,        0.1655273438,      -71.0601806641,       -0.2441406250,     -237.4420166016
1494293694.7510359287,       -0.9584960938,        0.4028320312,        0.1655273438,      -74.9664306641,       -0.6866455078,     -237.3046875000
1494293694.7537319660,       -0.9584960938,        0.4028320312,        0.1655273438,      -76.1718750000,       -0.6866455078,     -237.3046875000
1494293694.7564299107,       -0.9584960938,        0.4028320312,        0.1655273438,      -80.0781250000,       -1.0528564453,     -237.2589111328
1494293694.7591259480,       -0.9584960938,        0.4179687500,        0.1684570312,      -81.2683105469,       -1.0528564453,     -237.2589111328
1494293694.7617840767,       -0.9829101562,        0.4179687500,        0.1684570312,      -81.2683105469,       -1.4190673828,     -237.6403808594
1494293694.7643380165,       -0.9829101562,        0.4179687500,        0.1684570312,      -84.8083496094,       -1.4190673828,     -237.6403808594
1494293694.7668979168,       -0.9829101562,        0.4179687500,        0.1684570312,      -84.8083496094,       -1.4190673828,     -238.1591796875
1494293694.7694530487,       -1.0097656250,        0.4194335938,        0.1767578125,      -87.5701904297,       -1.3275146484,     -238.1591796875
1494293694.7720179558,       -1.0097656250,        0.4194335938,        0.1767578125,      -87.5701904297,       -1.3275146484,     -242.0654296875
1494293694.7745790482,       -1.0097656250,        0.4194335938,        0.1767578125,      -91.2017822266,       -1.5411376953,     -238.6016845703
1494293694.7771310806,       -1.0097656250,        0.4194335938,        0.1767578125,      -91.2017822266,       -1.5411376953,     -238.6016845703
1494293694.7796790600,       -1.0410156250,        0.4194335938,        0.1689453125,      -94.6502685547,       -1.9531250000,     -239.2730712891
1494293694.7824230194,       -1.0410156250,        0.4194335938,        0.1689453125,      -94.6502685547,       -1.9531250000,     -239.2730712891
1494293694.7849800587,       -1.0410156250,        0.4194335938,        0.1689453125,      -98.4039306641,       -3.0975341797,     -239.7766113281
1494293694.7875390053,       -1.0410156250,        0.4194335938,        0.1689453125,      -98.4039306641,       -3.0975341797,     -239.7766113281
1494293694.7900950909,       -1.0981445312,        0.4052734375,        0.1816406250,     -102.9968261719,       -3.1433105469,     -240.2496337891
1494293694.7928969860,       -1.0981445312,        0.4052734375,        0.1816406250,     -102.9968261719,       -3.1433105469,     -240.2496337891
1494293694.7955930233,       -1.0981445312,        0.4052734375,        0.1816406250,     -108.1390380859,       -3.2043457031,     -240.1428222656
1494293694.7982869148,       -1.0981445312,        0.4052734375,        0.1816406250,     -108.1390380859,       -3.2043457031,     -240.1428222656
1494293694.8009910583,       -1.1357421875,        0.3876953125,        0.1723632812,     -112.3504638672,       -2.7465820312,     -239.5324707031
1494293694.8036859035,       -1.1357421875,        0.3876953125,        0.1723632812,     -112.3504638672,       -2.7465820312,     -239.5324707031
1494293694.8063819408,       -1.1357421875,        0.3876953125,        0.1723632812,     -115.6768798828,       -2.1362304688,     -239.2120361328
1494293694.8090739250,       -1.1357421875,        0.3876953125,        0.1274414062,     -115.6768798828,       -2.1362304688,     -239.2120361328
1494293694.8117320538,       -1.1694335938,        0.4252929688,        0.1274414062,     -117.8741455078,        0.0000000000,     -238.7237548828
1494293694.8142859936,       -1.1694335938,        0.4252929688,        0.1274414062,     -117.8741455078,        0.0000000000,     -238.7237548828
1494293694.8168361187,       -1.1694335938,        0.4252929688,        0.1274414062,     -119.5526123047,        3.0364990234,     -238.5559082031
1494293694.8195049763,       -1.1694335938,        0.4614257812,        0.1079101562,     -119.5526123047,        3.0364990234,     -238.5559082031
1494293694.8221840858,       -1.2280273438,        0.4614257812,        0.1079101562,     -120.1782226562,        6.1340332031,     -237.8234863281
1494293694.8248820305,       -1.2280273438,        0.4614257812,        0.1079101562,     -120.1782226562,        6.1340332031,     -237.8234863281
1494293694.8275780678,       -1.2280273438,        0.4614257812,        0.1079101562,     -122.1923828125,        7.7514648438,     -234.5275878906
1494293694.8302719593,       -1.2460937500,        0.5083007812,        0.1118164062,     -122.1923828125,        7.7514648438,     -234.5275878906
1494293694.8330249786,       -1.2460937500,        0.5083007812,        0.1118164062,     -116.3330078125,        9.5825195312,     -229.1107177734
1494293694.8357229233,       -1.2460937500,        0.5083007812,        0.1118164062,     -116.3330078125,        9.5825195312,     -229.1107177734
1494293694.8384170532,       -1.2460937500,        0.5083007812,        0.1118164062,     -104.3243408203,       14.6789550781,     -223.9990234375
1494293694.8411529064,       -1.2695312500,        0.5317382812,        0.0917968750,     -104.3243408203,       14.6789550781,     -223.9990234375
1494293694.8438520432,       -1.2695312500,        0.5317382812,        0.0917968750,     -101.4556884766,       18.5546875000,     -215.7897949219
1494293694.8465559483,       -1.2695312500,        0.5317382812,        0.0917968750,     -101.4556884766,       18.5546875000,     -215.7897949219
1494293694.8493959904,       -1.2695312500,        0.5317382812,        0.1992187500,     -104.9804687500,       21.7132568359,     -205.6579589844
1494293694.8523960114,       -1.2011718750,        0.3813476562,        0.1992187500,     -104.9804687500,       21.7132568359,     -205.6579589844
1494293694.8550949097,       -1.2011718750,        0.3813476562,        0.1992187500,     -111.5722656250,       24.2309570312,     -194.7021484375
1494293694.8577940464,       -1.2011718750,        0.3813476562,        0.1992187500,     -111.5722656250,       24.2309570312,     -194.7021484375
1494293694.8604900837,       -1.0332031250,        0.4462890625,        0.3115234375,     -115.1885986328,       23.5290527344,     -183.0444335938
1494293694.8630719185,       -1.0332031250,        0.4462890625,        0.3115234375,     -115.1885986328,       23.5290527344,     -183.0444335938
1494293694.8656299114,       -1.0332031250,        0.4462890625,        0.3115234375,     -115.2496337891,       19.5770263672,     -171.2493896484
1494293694.8681910038,       -1.0332031250,        0.4462890625,        0.3115234375,     -115.2496337891,       19.5770263672,     -171.2493896484
1494293694.8707499504,       -0.7851562500,        0.6669921875,        0.4643554688,     -111.3433837891,       11.8103027344,     -160.1867675781
1494293694.8734529018,       -0.7851562500,        0.6669921875,        0.4643554688,     -113.0828857422,       11.8103027344,     -160.1867675781
1494293694.8761579990,       -0.7851562500,        0.6669921875,        0.4643554688,     -105.2703857422,        1.4038085938,     -149.7802734375
1494293694.8788540363,       -0.7851562500,        0.6669921875,        0.4643554688,     -102.1728515625,        1.4038085938,     -149.7802734375
1494293694.8815200329,       -0.6284179688,        0.9643554688,        0.4643554688,     -102.1728515625,      -10.7116699219,     -138.7176513672
1494293694.8840799332,       -0.6284179688,        0.9643554688,        0.4643554688,      -78.2165527344,      -10.7116699219,     -138.7176513672
1494293694.8866379261,       -0.6284179688,        0.9643554688,        0.4643554688,      -78.2165527344,      -10.7116699219,     -127.0446777344
1494293694.8891949654,       -0.6284179688,        0.9643554688,        0.4643554688,      -46.5087890625,      -23.5900878906,     -127.0446777344
1494293694.8917570114,       -0.5429687500,        1.2270507812,        0.3295898438,      -46.5087890625,      -23.5900878906,     -115.3259277344
1494293694.8944239616,       -0.5429687500,        1.2270507812,        0.3295898438,      -11.7797851562,      -35.3851318359,     -114.7003173828
1494293694.8969829082,       -0.5429687500,        1.2270507812,        0.3295898438,      -11.7797851562,      -35.3851318359,     -114.7003173828
1494293694.8995409012,       -0.5429687500,        1.2270507812,        0.2045898438,       19.1955566406,      -45.2880859375,     -101.6540527344
1494293694.9022409916,       -0.5566406250,        1.2119140625,        0.1879882812,       19.1955566406,      -45.2880859375,     -101.6540527344
1494293694.9047958851,       -0.5566406250,        1.2119140625,        0.1879882812,       43.4722900391,      -49.9725341797,      -89.2028808594
1494293694.9073550701,       -0.5566406250,        1.2119140625,        0.1879882812,       43.4722900391,      -49.9725341797,      -89.2028808594
1494293694.9099159241,       -0.5566406250,        1.2119140625,        0.1000976562,       57.0831298828,      -49.0570068359,      -74.4781494141
1494293694.9127089977,       -0.7060546875,        0.9697265625,        0.1000976562,       57.0831298828,      -49.0570068359,      -74.4781494141
1494293694.9154019356,       -0.7060546875,        0.9697265625,        0.1000976562,       61.7523193359,      -43.8995361328,      -57.5866699219
1494293694.9180939198,       -0.7060546875,        0.9697265625,        0.1000976562,       61.7523193359,      -43.8995361328,      -57.5866699219
1494293694.9207980633,       -0.7358398438,        0.8300781250,        0.0375976562,       59.2803955078,      -37.3077392578,      -39.0167236328
1494293694.9234941006,       -0.7358398438,        0.8300781250,        0.0375976562,       59.2803955078,      -37.3077392578,      -39.0167236328
1494293694.9261898994,       -0.7358398438,        0.8300781250,        0.0375976562,       53.7414550781,      -29.4799804688,      -20.2941894531
1494293694.9288859367,       -0.7358398438,        0.8300781250,        0.0375976562,       53.7414550781,      -29.4799804688,      -20.2941894531
1494293694.9315938950,       -0.7397460938,        0.8178710938,        0.0190429688,       47.4700927734,      -20.2178955078,       -1.6021728516
1494293694.9342870712,       -0.7397460938,        0.8178710938,        0.0190429688,       47.4700927734,      -20.2178955078,       -1.6021728516
1494293694.9369831085,       -0.7397460938,        0.8178710938,        0.0190429688,       41.6412353516,      -11.3220214844,       16.3116455078
1494293694.9396800995,       -0.7397460938,        0.8178710938,       -0.1059570312,       41.6412353516,      -11.3220214844,       16.3116455078
1494293694.9423849583,       -0.6997070312,        0.8193359375,       -0.0024414062,       35.2325439453,       -4.3640136719,       34.3170166016
1494293694.9450819492,       -0.6997070312,        0.8193359375,       -0.0024414062,       35.2325439453,       -4.3640136719,       34.3170166016
1494293694.9477779865,       -0.6997070312,        0.8193359375,       -0.0024414062,       26.6418457031,        0.5950927734,       52.1240234375
1494293694.9504759312,       -0.6997070312,        0.7880859375,       -0.0078125000,       26.6418457031,        0.5950927734,       52.1240234375
1494293694.9530539513,       -0.6625976562,        0.7880859375,       -0.0078125000,       17.2576904297,        2.9907226562,       70.2362060547
1494293694.9556078911,       -0.6625976562,        0.7880859375,       -0.0078125000,       17.2576904297,        2.9907226562,       70.2362060547
1494293694.9581680298,       -0.6625976562,        0.7880859375,       -0.0078125000,        7.5836181641,        4.0588378906,       88.2415771484
1494293694.9606950283,       -0.6625976562,        0.7504882812,        0.0161132812,        7.5836181641,        4.0588378906,       88.2415771484
1494293694.9632461071,       -0.6396484375,        0.7504882812,        0.0161132812,       -0.2288818359,        3.2501220703,      105.6060791016
1494293694.9657928944,       -0.6396484375,        0.7504882812,        0.0161132812,       -1.9989013672,        3.2501220703,      105.6060791016
1494293694.9685380459,       -0.6396484375,        0.7504882812,        0.0161132812,       -1.9989013672,        1.4038085938,      120.7122802734
1494293694.9715690613,       -0.6904296875,        0.5893554688,        0.0952148438,      -11.1999511719,        1.4038085938,      120.7122802734
1494293694.9742720127,       -0.6904296875,        0.5893554688,        0.0952148438,      -22.7661132812,       -3.3569335938,      125.7324218750
1494293694.9769670963,       -0.6904296875,        0.5893554688,        0.0952148438,      -22.7661132812,       -3.3569335938,      125.7324218750
1494293694.9796650410,       -0.6904296875,        0.5893554688,        0.0952148438,      -40.6341552734,       -5.2642822266,      131.5307617188
1494293694.9823739529,       -0.7563476562,        0.2817382812,        0.1572265625,      -40.6341552734,       -5.2642822266,      131.5307617188
1494293694.9850740433,       -0.7563476562,        0.2817382812,        0.1572265625,      -52.3529052734,       -0.6713867188,      141.7541503906
1494293694.9877688885,       -0.7563476562,        0.2817382812,        0.1572265625,      -52.3071289062,       -0.6713867188,      141.7541503906
1494293694.9904599190,       -0.7563476562,        0.2817382812,       -0.1152343750,      -56.2133789062,        7.4920654297,      133.0718994141
1494293694.9931609631,       -1.1264648438,       -0.6025390625,       -0.1152343750,      -54.8095703125,        7.4920654297,      133.0718994141
1494293694.9958519936,       -1.1264648438,       -0.6025390625,       -0.1152343750,      -62.6220703125,       24.6887207031,      116.2872314453
1494293694.9985489845,       -1.1264648438,       -0.6025390625,       -0.1152343750,      -64.7888183594,       24.6887207031,      116.2872314453
1494293695.0012381077,       -1.2514648438,       -1.5668945312,       -0.4370117188,      -64.7888183594,       33.8439941406,      102.2186279297
1494293695.0037949085,       -1.3588867188,       -1.5668945312,       -0.4370117188,      -78.8574218750,       33.8439941406,      102.2186279297
1494293695.0063490868,       -1.3588867188,       -1.5668945312,       -0.4370117188,      -78.8574218750,       33.8439941406,       98.4802246094
1494293695.0089070797,       -1.3588867188,       -1.5668945312,       -0.4370117188,     -102.2796630859,       29.1748046875,       98.4802246094
1494293695.0115349293,       -1.1948242188,       -1.1655273438,       -0.3188476562,     -102.2796630859,       29.1748046875,      114.1052246094
1494293695.0140941143,       -1.1948242188,       -1.1655273438,       -0.3188476562,     -141.5405273438,       20.2026367188,      113.7237548828
1494293695.0166480541,       -1.1948242188,       -1.1655273438,       -0.3188476562,     -141.5405273438,       20.2026367188,      113.7237548828
1494293695.0192050934,       -1.1948242188,       -1.1655273438,       -0.3188476562,     -179.1381835938,       13.3056640625,      138.7329101562
1494293695.0218820572,       -0.9482421875,        0.2939453125,       -0.0200195312,     -179.1381835938,       13.3056640625,      138.7329101562
1494293695.0244450569,       -0.9482421875,        0.2939453125,       -0.0200195312,     -198.4252929688,        5.5847167969,      163.6657714844
1494293695.0270020962,       -0.9482421875,        0.2939453125,       -0.0200195312,     -198.4252929688,        5.5847167969,      163.6657714844
1494293695.0295579433,       -0.9482421875,        0.2939453125,       -0.0200195312,     -197.8912353516,       -1.0986328125,      180.9539794922
1494293695.0323040485,       -0.8120117188,        1.3081054688,        0.2055664062,     -197.8912353516,       -1.0986328125,      180.9539794922
1494293695.0350089073,       -0.8120117188,        1.3081054688,        0.2055664062,     -170.7153320312,       -2.0904541016,      180.9997558594
1494293695.0377008915,       -0.8120117188,        1.3081054688,        0.2055664062,     -170.7153320312,       -2.0904541016,      180.9997558594
1494293695.0404989719,       -0.8120117188,        1.3081054688,        0.2055664062,     -131.8969726562,       -3.2348632812,      167.6025390625
1494293695.0432031155,       -1.0146484375,        0.9672851562,        0.2036132812,     -131.8969726562,       -3.2348632812,      167.6025390625
1494293695.0458989143,       -1.0146484375,        0.9672851562,        0.2036132812,      -86.5325927734,       -5.5694580078,      151.7944335938
1494293695.0485920906,       -1.0146484375,        0.9672851562,        0.2036132812,      -86.5325927734,       -5.5694580078,      151.7944335938
1494293695.0512919426,       -1.0146484375,        0.4287109375,       -0.1875000000,      -45.8374023438,      -11.3525390625,      139.2059326172
1494293695.0539910793,       -1.0971679688,        0.4287109375,       -0.1875000000,      -45.8374023438,      -11.3525390625,      139.2059326172
1494293695.0566909313,       -1.0971679688,        0.4287109375,       -0.1875000000,      -25.1312255859,      -20.0653076172,      131.6680908203
1494293695.0593869686,       -1.0971679688,        0.4287109375,       -0.1875000000,      -25.1312255859,      -20.0653076172,      131.6680908203
1494293695.0620200634,       -0.8608398438,        0.2841796875,       -0.1166992188,      -28.4576416016,      -28.4576416016,      130.2490234375
1494293695.0645849705,       -0.8608398438,        0.2841796875,       -0.1166992188,      -28.4576416016,      -28.4576416016,      130.2490234375
1494293695.0671470165,       -0.8608398438,        0.2841796875,       -0.1166992188,      -38.0859375000,      -34.5764160156,      129.3182373047
1494293695.0697059631,       -0.8608398438,        0.2841796875,       -0.1166992188,      -38.0859375000,      -34.5764160156,      129.3182373047
1494293695.0724120140,       -0.6850585938,        0.2807617188,        0.1679687500,      -40.7562255859,      -37.6586914062,      125.9613037109
1494293695.0750949383,       -0.6850585938,        0.2807617188,        0.1679687500,      -40.7562255859,      -37.6586914062,      125.9613037109
1494293695.0777759552,       -0.6850585938,        0.2807617188,        0.1679687500,      -33.1573486328,      -37.2772216797,      118.6218261719
1494293695.0804569721,       -0.6850585938,        0.2807617188,        0.1679687500,      -33.1573486328,      -37.2772216797,      118.6218261719
1494293695.0831499100,       -0.6538085938,        0.3095703125,        0.2734375000,      -22.3999023438,      -35.6597900391,      110.4583740234
1494293695.0858340263,       -0.6538085938,        0.3095703125,        0.2734375000,      -22.3999023438,      -35.6597900391,      110.4583740234
1494293695.0885860920,       -0.6538085938,        0.3095703125,        0.2734375000,      -15.9912109375,      -34.7137451172,      104.2175292969
1494293695.0915908813,       -0.6538085938,        0.3095703125,        0.1860351562,      -15.9912109375,      -34.7137451172,      104.2175292969
1494293695.0942800045,       -0.7080078125,        0.3652343750,        0.1860351562,      -11.7340087891,      -34.9273681641,       99.8077392578
1494293695.0969619751,       -0.7080078125,        0.3652343750,        0.1860351562,      -11.7340087891,      -34.9273681641,       99.8077392578
1494293695.0996420383,       -0.7080078125,        0.3652343750,        0.1860351562,      -10.0860595703,      -34.0270996094,       96.8475341797
1494293695.1023840904,       -0.7612304688,        0.4096679688,        0.1875000000,      -10.0860595703,      -34.0270996094,       96.8475341797
1494293695.1050419807,       -0.7612304688,        0.4096679688,        0.1875000000,       -9.5367431641,      -33.1115722656,       94.3603515625
1494293695.1076929569,       -0.7612304688,        0.4096679688,        0.1875000000,       -9.5367431641,      -33.1115722656,       94.3603515625
1494293695.1103470325,       -0.7612304688,        0.4096679688,        0.1875000000,       -6.3934326172,      -33.2031250000,       90.4235839844
1494293695.1129260063,       -0.7373046875,        0.4335937500,        0.2397460938,       -6.3934326172,      -33.2031250000,       90.4235839844
1494293695.1155869961,       -0.7373046875,        0.4335937500,        0.2397460938,       -6.3934326172,      -32.6843261719,       84.6862792969
1494293695.1181440353,       -0.7373046875,        0.4335937500,        0.2397460938,       -0.1678466797,      -32.6843261719,       84.6862792969
1494293695.1207020283,       -0.7373046875,        0.4335937500,        0.2397460938,       -0.1678466797,      -32.6843261719,       78.6590576172
1494293695.1232559681,       -0.7524414062,        0.4477539062,        0.2114257812,        8.0261230469,      -30.5480957031,       78.6590576172
1494293695.1258139610,       -0.7524414062,        0.4477539062,        0.2114257812,        8.0261230469,      -30.5480957031,       70.8465576172
1494293695.1283750534,       -0.7524414062,        0.4477539062,        0.2114257812,       19.1497802734,      -27.3895263672,       71.4111328125
1494293695.1309750080,       -0.7524414062,        0.4477539062,        0.2114257812,       19.1497802734,      -27.3895263672,       71.4111328125
1494293695.1335270405,       -0.8012695312,        0.3950195312,        0.0849609375,       31.0058593750,      -24.0936279297,       64.1326904297
1494293695.1360869408,       -0.8012695312,        0.3950195312,        0.0849609375,       31.0058593750,      -24.0936279297,       64.1326904297
1494293695.1386480331,       -0.8012695312,        0.3950195312,        0.0849609375,       38.1774902344,      -22.3083496094,       57.9376220703
1494293695.1413090229,       -0.8012695312,        0.3950195312,        0.0849609375,       38.1774902344,      -22.3083496094,       57.9376220703
1494293695.1438701153,       -0.7602539062,        0.3598632812,        0.0322265625,       40.5120849609,      -22.6745605469,       52.4444580078
1494293695.1464340687,       -0.7602539062,        0.3598632812,        0.0322265625,       40.5120849609,      -22.6745605469,       52.4444580078
1494293695.1489930153,       -0.7602539062,        0.3598632812,        0.0322265625,       39.8101806641,      -23.1018066406,       45.9594726562
1494293695.1516590118,       -0.7602539062,        0.3598632812,        0.0322265625,       39.8101806641,      -23.1018066406,       45.9594726562
1494293695.1542220116,       -0.7158203125,        0.2797851562,        0.0698242188,       40.2221679688,      -22.5982666016,       38.8183593750
1494293695.1567850113,       -0.7158203125,        0.2797851562,        0.0698242188,       40.2221679688,      -22.5982666016,       38.8183593750
1494293695.1593489647,       -0.7158203125,        0.2797851562,        0.0698242188,       41.1529541016,      -21.8658447266,       33.2794189453
1494293695.1620059013,       -0.7158203125,        0.2797851562,        0.1064453125,       41.1529541016,      -21.8658447266,       33.2794189453
1494293695.1647009850,       -0.7290039062,        0.2080078125,        0.1064453125,       41.7022705078,      -20.4467773438,       29.2968750000
1494293695.1674010754,       -0.7290039062,        0.2080078125,        0.1064453125,       41.7022705078,      -20.4467773438,       29.2968750000
1494293695.1700971127,       -0.7290039062,        0.2080078125,        0.1064453125,       41.7022705078,      -19.3634033203,       26.1993408203
1494293695.1726999283,       -0.7290039062,        0.1665039062,        0.0786132812,       41.1682128906,      -19.3634033203,       26.1993408203
1494293695.1752610207,       -0.7485351562,        0.1665039062,        0.0786132812,       41.1682128906,      -19.3634033203,       24.8565673828
1494293695.1778209209,       -0.7485351562,        0.1665039062,        0.0786132812,       39.1387939453,      -19.2413330078,       24.8565673828
1494293695.1803779602,       -0.7485351562,        0.1665039062,        0.0786132812,       39.1387939453,      -19.2413330078,       24.4140625000
1494293695.1829349995,       -0.7329101562,        0.1245117188,        0.0639648438,       34.5306396484,      -19.6228027344,       24.4140625000
1494293695.1854939461,       -0.7329101562,        0.1245117188,        0.0639648438,       34.5306396484,      -19.6228027344,       24.4140625000
1494293695.1881639957,       -0.7329101562,        0.1245117188,        0.0639648438,       28.7780761719,      -19.7143554688,       23.8800048828
1494293695.1907138824,       -0.7329101562,        0.1245117188,        0.0639648438,       28.7780761719,      -19.7143554688,       23.8800048828
1494293695.1934189796,       -0.7163085938,        0.1113281250,        0.0776367188,       23.1018066406,      -19.2565917969,       23.5137939453
1494293695.1961200237,       -0.7163085938,        0.1113281250,        0.0776367188,       23.1018066406,      -19.2565917969,       23.5137939453
1494293695.1988210678,       -0.7163085938,        0.1113281250,        0.0776367188,       17.9443359375,      -18.8293457031,       23.2696533203
1494293695.2015221119,       -0.7163085938,        0.1113281250,        0.0776367188,       17.9443359375,      -18.8293457031,       23.2696533203
1494293695.2040801048,       -0.7099609375,        0.1083984375,        0.0742187500,       14.3890380859,      -19.0124511719,       23.1475830078
1494293695.2066819668,       -0.7099609375,        0.1083984375,        0.0742187500,       14.3890380859,      -19.0124511719,       23.1475830078
1494293695.2093389034,       -0.7099609375,        0.1083984375,        0.0742187500,       11.5051269531,      -18.7683105469,       23.3001708984
1494293695.2122368813,       -0.7099609375,        0.1083984375,        0.0820312500,       11.5051269531,      -18.7683105469,       23.3001708984
1494293695.2149400711,       -0.7167968750,        0.1196289062,        0.0820312500,        9.3688964844,      -18.9361572266,       23.0255126953
1494293695.2176370621,       -0.7167968750,        0.1196289062,        0.0820312500,        9.3688964844,      -18.9361572266,       23.0255126953
1494293695.2203330994,       -0.7167968750,        0.1196289062,        0.0820312500,        8.2855224609,      -19.5465087891,       22.4761962891
1494293695.2230319977,       -0.7167968750,        0.1123046875,        0.0908203125,        8.2855224609,      -19.5465087891,       22.4761962891
1494293695.2257220745,       -0.7148437500,        0.1123046875,        0.0908203125,        7.5073242188,      -19.3176269531,       21.6979980469
1494293695.2284119129,       -0.7148437500,        0.1123046875,        0.0908203125,        7.5073242188,      -19.3176269531,       21.6979980469
1494293695.2311561108,       -0.7148437500,        0.1123046875,        0.0908203125,        6.9427490234,      -19.0734863281,       21.5148925781
1494293695.2338531017,       -0.7148437500,        0.1103515625,        0.1020507812,        6.9427490234,      -19.0734863281,       21.5148925781
1494293695.2365479469,       -0.7148437500,        0.1103515625,        0.1020507812,        5.9204101562,      -19.1192626953,       21.2249755859
1494293695.2392458916,       -0.7148437500,        0.1103515625,        0.1020507812,        5.9204101562,      -19.1192626953,       21.2249755859
1494293695.2418880463,       -0.7148437500,        0.1103515625,        0.1020507812,        5.4931640625,      -18.8903808594,       20.6451416016
1494293695.2444460392,       -0.7138671875,        0.1166992188,        0.1123046875,        5.4931640625,      -18.8903808594,       20.6451416016
1494293695.2469971180,       -0.7138671875,        0.1166992188,        0.1123046875,        5.9356689453,      -18.3410644531,       20.1873779297
1494293695.2495520115,       -0.7138671875,        0.1166992188,        0.1123046875,        5.9356689453,      -18.3410644531,       20.1873779297
1494293695.2521369457,       -0.7138671875,        0.1166992188,        0.1123046875,        7.6141357422,      -18.2037353516,       19.4244384766
1494293695.2546939850,       -0.7026367188,        0.1342773438,        0.1235351562,        7.6141357422,      -18.2037353516,       19.4244384766
1494293695.2572510242,       -0.7026367188,        0.1342773438,        0.1235351562,       11.5203857422,      -17.3034667969,       18.8903808594
1494293695.2599101067,       -0.7026367188,        0.1342773438,        0.1235351562,       10.7269287109,      -17.3034667969,       18.8903808594
1494293695.2626240253,       -0.7026367188,        0.1342773438,        0.1186523438,       14.6331787109,      -17.2576904297,       17.9901123047
1494293695.2651801109,       -0.6992187500,        0.1464843750,        0.1186523438,       14.7247314453,      -17.2576904297,       17.9901123047
1494293695.2677381039,       -0.6992187500,        0.1464843750,        0.1186523438,       14.7247314453,      -17.2576904297,       16.7236328125
1494293695.2702980042,       -0.6992187500,        0.1464843750,        0.1186523438,       18.2952880859,      -17.1813964844,       16.7236328125
1494293695.2731060982,       -0.6992187500,        0.1464843750,        0.1201171875,       18.2952880859,      -17.1813964844,       16.3726806641
1494293695.2757980824,       -0.6943359375,        0.1459960938,        0.1201171875,       22.3999023438,      -16.8304443359,       16.3726806641
1494293695.2784979343,       -0.6943359375,        0.1459960938,        0.1201171875,       22.3999023438,      -16.8304443359,       15.8996582031
1494293695.2812058926,       -0.6943359375,        0.1459960938,        0.1201171875,       26.8402099609,      -16.2353515625,       15.8996582031
1494293695.2839040756,       -0.6972656250,        0.1362304688,        0.1206054688,       26.8402099609,      -16.2353515625,       15.6707763672
1494293695.2866060734,       -0.6972656250,        0.1362304688,        0.1206054688,       29.9682617188,      -16.1743164062,       15.6707763672
1494293695.2893040180,       -0.6972656250,        0.1362304688,        0.1206054688,       29.9682617188,      -16.1743164062,       15.9912109375
1494293695.2920160294,       -0.6972656250,        0.1362304688,        0.1206054688,       31.8603515625,      -16.0369873047,       15.9912109375
1494293695.2947080135,       -0.6977539062,        0.1450195312,        0.1098632812,       31.8603515625,      -16.0369873047,       17.6086425781
1494293695.2974069118,       -0.6977539062,        0.1450195312,        0.1098632812,       33.2031250000,      -15.9149169922,       17.6086425781
1494293695.3001019955,       -0.6977539062,        0.1450195312,        0.1098632812,       33.2031250000,      -15.9149169922,       19.3176269531
1494293695.3027100563,       -0.6977539062,        0.1450195312,        0.1098632812,       34.3475341797,      -16.2200927734,       19.3176269531
1494293695.3052659035,       -0.7045898438,        0.1323242188,        0.1147460938,       34.3475341797,      -16.2200927734,       19.3176269531
1494293695.3078219891,       -0.7045898438,        0.1323242188,        0.1147460938,       35.3546142578,      -16.1285400391,       20.3552246094
1494293695.3103780746,       -0.7045898438,        0.1323242188,        0.1147460938,       35.3546142578,      -16.1285400391,       20.3552246094
1494293695.3130760193,       -0.7045898438,        0.1323242188,        0.0957031250,       36.6210937500,      -15.1824951172,       21.9421386719
1494293695.3157730103,       -0.7070312500,        0.1220703125,        0.0957031250,       36.6210937500,      -15.1824951172,       21.9421386719
1494293695.3184690475,       -0.7070312500,        0.1220703125,        0.0957031250,       37.8875732422,      -15.0451660156,       23.3612060547
1494293695.3211710453,       -0.7070312500,        0.1220703125,        0.0957031250,       37.8875732422,      -15.0451660156,       23.3612060547
1494293695.3238699436,       -0.7070312500,        0.0996093750,        0.0844726562,       37.3535156250,      -15.2130126953,       24.3225097656
1494293695.3265628815,       -0.7285156250,        0.0996093750,        0.0844726562,       37.3535156250,      -15.2130126953,       24.3225097656
1494293695.3293769360,       -0.7285156250,        0.0996093750,        0.0844726562,       36.4685058594,      -15.5334472656,       25.8026123047
1494293695.3323891163,       -0.7285156250,        0.0996093750,        0.0844726562,       36.4685058594,      -15.5334472656,       29.7088623047
1494293695.3352100849,       -0.7299804688,        0.1142578125,        0.1020507812,       35.2783203125,      -15.8081054688,       28.5797119141
1494293695.3379180431,       -0.7299804688,        0.1142578125,        0.1020507812,       35.2783203125,      -15.8081054688,       28.5797119141
1494293695.3406178951,       -0.7299804688,        0.1142578125,        0.1020507812,       34.7442626953,      -16.0369873047,       30.8532714844
1494293695.3433630466,       -0.7299804688,        0.1142578125,        0.1059570312,       34.7442626953,      -16.0369873047,       34.7595214844
1494293695.3460628986,       -0.7207031250,        0.1113281250,        0.1059570312,       34.1186523438,      -15.9606933594,       31.6314697266
1494293695.3487620354,       -0.7207031250,        0.1113281250,        0.1059570312,       34.1186523438,      -15.9606933594,       31.6314697266
1494293695.3514420986,       -0.7207031250,        0.1113281250,        0.1059570312,       34.8815917969,      -15.3808593750,       33.9202880859
1494293695.3540019989,       -0.7207031250,        0.0937500000,        0.1137695312,       34.8815917969,      -15.3808593750,       33.9202880859
1494293695.3565640450,       -0.7304687500,        0.0937500000,        0.1137695312,       35.1867675781,      -15.1824951172,       35.9954833984
1494293695.3591248989,       -0.7304687500,        0.0937500000,        0.1137695312,       35.1867675781,      -15.1824951172,       35.9954833984
1494293695.3617289066,       -0.7304687500,        0.0937500000,        0.1137695312,       33.6303710938,      -14.8620605469,       37.9791259766
1494293695.3642919064,       -0.7304687500,        0.0756835938,        0.1245117188,       33.6303710938,      -14.8620605469,       37.9791259766
1494293695.3668520451,       -0.7338867188,        0.0756835938,        0.1245117188,       32.2418212891,      -14.7399902344,       39.9017333984
1494293695.3694128990,       -0.7338867188,        0.0756835938,        0.1245117188,       32.2418212891,      -14.7399902344,       39.9017333984
1494293695.3719770908,       -0.7338867188,        0.0756835938,        0.1245117188,       32.2418212891,      -14.2364501953,       41.0461425781
1494293695.3745388985,       -0.7460937500,        0.0864257812,        0.1430664062,       32.2418212891,      -14.2364501953,       41.0461425781
1494293695.3771018982,       -0.7460937500,        0.0864257812,        0.1430664062,       32.6538085938,      -13.1683349609,       42.2973632812
1494293695.3796610832,       -0.7460937500,        0.0864257812,        0.1430664062,       32.6538085938,      -13.1683349609,       42.2973632812
1494293695.3823969364,       -0.7460937500,        0.0864257812,        0.1430664062,       32.6538085938,      -12.3443603516,       44.0673828125
1494293695.3849558830,       -0.7314453125,        0.1337890625,        0.1372070312,       33.6914062500,      -12.3443603516,       44.0673828125
1494293695.3875110149,       -0.7314453125,        0.1337890625,        0.1372070312,       33.6914062500,      -12.3443603516,       44.9066162109
1494293695.3900699615,       -0.7314453125,        0.1337890625,        0.1372070312,       34.9121093750,      -12.1154785156,       44.9066162109
1494293695.3928771019,       -0.7314453125,        0.1337890625,        0.1372070312,       34.9121093750,       -8.2092285156,       45.7458496094
1494293695.3955669403,       -0.7304687500,        0.1528320312,        0.1181640625,       37.1551513672,      -11.5966796875,       45.7458496094
1494293695.3982639313,       -0.7304687500,        0.1528320312,        0.1181640625,       37.1551513672,      -11.5966796875,       46.4172363281
1494293695.4009590149,       -0.7304687500,        0.1528320312,        0.1181640625,       38.8946533203,      -11.3677978516,       46.4172363281
1494293695.4035139084,       -0.7304687500,        0.1528320312,        0.1181640625,       38.8946533203,      -11.3677978516,       46.9055175781
1494293695.4060730934,       -0.7275390625,        0.1713867188,        0.1049804688,       39.3524169922,      -11.0321044922,       46.9055175781
1494293695.4087390900,       -0.7275390625,        0.1713867188,        0.1049804688,       39.3524169922,      -11.0321044922,       46.9055175781
1494293695.4113869667,       -0.7275390625,        0.1713867188,        0.1049804688,       38.8336181641,      -11.0321044922,       47.9583740234
1494293695.4140911102,       -0.7275390625,        0.1713867188,        0.0961914062,       38.8336181641,      -11.0321044922,       47.9583740234
1494293695.4167900085,       -0.7236328125,        0.1650390625,        0.0961914062,       38.4216308594,      -11.2915039062,       49.1027832031
1494293695.4194850922,       -0.7236328125,        0.1650390625,        0.0961914062,       38.4216308594,      -11.2915039062,       49.1027832031
1494293695.4221959114,       -0.7236328125,        0.1650390625,        0.0961914062,       37.5366210938,      -11.3372802734,       50.6744384766
1494293695.4248929024,       -0.7207031250,        0.1669921875,        0.1000976562,       37.5366210938,      -11.3372802734,       54.5806884766
1494293695.4275910854,       -0.7207031250,        0.1669921875,        0.1000976562,       36.4227294922,      -10.8184814453,       52.0782470703
1494293695.4302909374,       -0.7207031250,        0.1669921875,        0.1000976562,       36.4227294922,      -10.8184814453,       52.0782470703
1494293695.4330000877,       -0.7207031250,        0.1669921875,        0.1000976562,       35.1409912109,      -10.3607177734,       53.5125732422
1494293695.4356970787,       -0.7236328125,        0.1650390625,        0.1069335938,       35.1409912109,      -10.3607177734,       53.5125732422
1494293695.4383919239,       -0.7236328125,        0.1650390625,        0.1069335938,       34.1796875000,       -9.8114013672,       55.0842285156
1494293695.4410920143,       -0.7236328125,        0.1650390625,        0.1069335938,       34.1796875000,       -9.8114013672,       55.0842285156
1494293695.4437849522,       -0.7236328125,        0.1650390625,        0.1069335938,       32.7148437500,       -8.6517333984,       55.8319091797
1494293695.4464769363,       -0.7250976562,        0.1635742188,        0.1118164062,       32.7148437500,       -8.6517333984,       55.8319091797
1494293695.4492490292,       -0.7250976562,        0.1635742188,        0.1118164062,       31.3873291016,       -7.7056884766,       56.8084716797
1494293695.4522309303,       -0.7250976562,        0.1635742188,        0.1118164062,       31.3873291016,       -7.7056884766,       58.1054687500
1494293695.4550440311,       -0.7250976562,        0.2089843750,        0.1069335938,       29.9987792969,       -7.3699951172,       58.1054687500
1494293695.4575979710,       -0.7260742188,        0.2089843750,        0.1069335938,       29.9987792969,       -7.3699951172,       58.1054687500
1494293695.4601519108,       -0.7260742188,        0.2089843750,        0.1069335938,       29.1748046875,       -7.4920654297,       59.0362548828
1494293695.4628260136,       -0.7260742188,        0.2089843750,        0.1069335938,       29.1748046875,       -7.4920654297,       59.0362548828
1494293695.4655230045,       -0.7109375000,        0.2534179688,        0.1137695312,       28.6560058594,       -7.8125000000,       59.9060058594
1494293695.4682130814,       -0.7109375000,        0.2534179688,        0.1137695312,       28.6560058594,       -7.8125000000,       59.9060058594
1494293695.4709439278,       -0.7109375000,        0.2534179688,        0.1137695312,       28.9764404297,       -8.1481933594,       60.4400634766
1494293695.4736440182,       -0.7109375000,        0.2534179688,        0.1137695312,       28.9764404297,       -8.1481933594,       60.4400634766
1494293695.4763391018,       -0.6953125000,        0.2426757812,        0.1245117188,       29.9835205078,       -8.3007812500,       60.7147216797
1494293695.4790370464,       -0.6953125000,        0.2426757812,        0.1245117188,       29.9835205078,       -8.3007812500,       60.7147216797
1494293695.4818320274,       -0.6953125000,        0.2426757812,        0.1245117188,       30.5786132812,       -8.5906982422,       60.1654052734
1494293695.4843919277,       -0.6953125000,        0.2426757812,        0.2495117188,       30.5786132812,       -8.5906982422,       60.1654052734
1494293695.4869511127,       -0.7036132812,        0.2299804688,        0.1337890625,       30.4718017578,       -8.9111328125,       60.4248046875
1494293695.4895019531,       -0.7036132812,        0.2299804688,        0.1337890625,       30.4718017578,       -8.9111328125,       60.4248046875
1494293695.4921050072,       -0.7036132812,        0.2299804688,        0.1337890625,       29.9987792969,       -8.8348388672,       61.3098144531
1494293695.4946548939,       -0.7036132812,        0.2299804688,        0.1381835938,       29.9987792969,       -8.8348388672,       61.3098144531
1494293695.4972090721,       -0.7075195312,        0.2348632812,        0.1381835938,       29.4799804688,       -8.9416503906,       61.8438720703
1494293695.4997630119,       -0.7075195312,        0.2348632812,        0.1381835938,       29.4799804688,       -8.9416503906,       61.8438720703
1494293695.5024158955,       -0.7075195312,        0.2348632812,        0.1381835938,       29.3426513672,       -8.5296630859,       62.8967285156
1494293695.5049769878,       -0.7075195312,        0.2348632812,        0.1254882812,       29.3426513672,       -8.5296630859,       62.8967285156
1494293695.5075290203,       -0.7099609375,        0.2324218750,        0.1254882812,       29.3426513672,       -8.3923339844,       64.0258789062
1494293695.5100870132,       -0.7099609375,        0.2324218750,        0.1254882812,       28.2440185547,       -8.3923339844,       64.0258789062
1494293695.5128970146,       -0.7099609375,        0.2324218750,        0.1254882812,       28.2440185547,       -8.3007812500,       64.9566650391
1494293695.5155889988,       -0.7050781250,        0.2875976562,        0.0981445312,       27.7862548828,       -8.3007812500,       64.9566650391
1494293695.5182869434,       -0.7050781250,        0.2875976562,        0.0981445312,       27.7862548828,       -7.8735351562,       65.4296875000
1494293695.5209939480,       -0.7050781250,        0.2875976562,        0.0981445312,       27.6794433594,       -7.8735351562,       65.4296875000
1494293695.5236880779,       -0.7050781250,        0.2875976562,        0.0981445312,       27.6794433594,       -7.8430175781,       65.8111572266
1494293695.5263900757,       -0.7084960938,        0.2998046875,        0.1113281250,       26.8402099609,       -7.8430175781,       65.8111572266
1494293695.5290889740,       -0.7084960938,        0.2998046875,        0.1113281250,       26.8402099609,       -8.1024169922,       66.2841796875
1494293695.5317969322,       -0.7084960938,        0.2998046875,        0.1113281250,       27.4658203125,       -8.1024169922,       66.2841796875
1494293695.5344901085,       -0.7084960938,        0.2998046875,        0.1113281250,       27.4658203125,       -7.6446533203,       66.2384033203
1494293695.5371849537,       -0.7231445312,        0.2973632812,        0.1235351562,       29.3121337891,       -7.6446533203,       66.2384033203
1494293695.5398828983,       -0.7231445312,        0.2973632812,        0.1235351562,       29.3121337891,       -7.6446533203,       66.7114257812
1494293695.5425009727,       -0.7231445312,        0.2973632812,        0.1235351562,       30.1818847656,       -7.2326660156,       66.7114257812
1494293695.5450611115,       -0.7231445312,        0.2973632812,        0.1220703125,       30.1818847656,       -7.2326660156,       68.0847167969
1494293695.5476150513,       -0.7309570312,        0.2871093750,        0.1220703125,       31.4331054688,       -8.0566406250,       68.0847167969
1494293695.5501749516,       -0.7309570312,        0.2871093750,        0.1220703125,       31.4331054688,       -8.0566406250,       68.0847167969
1494293695.5528340340,       -0.7309570312,        0.2871093750,        0.1220703125,       32.1350097656,       -8.5906982422,       69.8089599609
1494293695.5555019379,       -0.7309570312,        0.2778320312,        0.1054687500,       32.1350097656,       -8.5906982422,       69.8089599609
1494293695.5580658913,       -0.7373046875,        0.2778320312,        0.1054687500,       31.6009521484,       -7.9345703125,       70.8160400391
1494293695.5606250763,       -0.7373046875,        0.2778320312,        0.1054687500,       31.6009521484,       -7.9345703125,       70.8160400391
1494293695.5633931160,       -0.7373046875,        0.2778320312,        0.1054687500,       30.1208496094,       -7.0495605469,       73.1964111328
1494293695.5660901070,       -0.7529296875,        0.2807617188,        0.0727539062,       30.1208496094,       -7.0495605469,       73.1964111328
1494293695.5690209866,       -0.7529296875,        0.2807617188,        0.0727539062,       28.4881591797,       -5.7067871094,       75.9582519531
1494293695.5721321106,       -0.7529296875,        0.2807617188,        0.0727539062,       28.4881591797,       -5.7067871094,       77.6062011719
1494293695.5748319626,       -0.7529296875,        0.2807617188,        0.0727539062,       25.9857177734,       -4.9591064453,       77.6062011719
1494293695.5775330067,       -0.7822265625,        0.2866210938,        0.0800781250,       25.9857177734,       -4.9591064453,       79.2694091797
1494293695.5802280903,       -0.7822265625,        0.2866210938,        0.0800781250,       23.5595703125,       -4.2114257812,       79.2694091797
1494293695.5829648972,       -0.7822265625,        0.2866210938,        0.0800781250,       23.5595703125,       -4.2114257812,       81.1157226562
1494293695.5856649876,       -0.7822265625,        0.2866210938,        0.0727539062,       22.1405029297,       -3.0517578125,       81.1157226562
1494293695.5883619785,       -0.7929687500,        0.3276367188,        0.0727539062,       22.1405029297,       -3.0517578125,       85.0219726562
1494293695.5910539627,       -0.7929687500,        0.3276367188,        0.0727539062,       20.8435058594,       -2.7770996094,       82.8247070312
1494293695.5936141014,       -0.7929687500,        0.3276367188,        0.0727539062,       20.8435058594,       -2.7770996094,       82.8247070312
1494293695.5961709023,       -0.7929687500,        0.3588867188,        0.0888671875,       19.9127197266,       -2.6855468750,       84.1674804688
1494293695.5987219810,       -0.8159179688,        0.3588867188,        0.0888671875,       19.9127197266,       -2.6855468750,       84.1674804688
1494293695.6013269424,       -0.8159179688,        0.3588867188,        0.0888671875,       19.2413330078,       -1.9683837891,       84.6405029297
1494293695.6038849354,       -0.8159179688,        0.3588867188,        0.0888671875,       19.2413330078,       -1.9683837891,       84.6405029297
1494293695.6064391136,       -0.8476562500,        0.3452148438,        0.1010742188,       19.6533203125,       -1.8615722656,       85.7086181641
1494293695.6089980602,       -0.8476562500,        0.3452148438,        0.1010742188,       19.6533203125,       -1.8615722656,       85.7086181641
1494293695.6115779877,       -0.8476562500,        0.3452148438,        0.1010742188,       20.7519531250,       -2.6855468750,       87.2344970703
1494293695.6147310734,       -0.8476562500,        0.3452148438,        0.1010742188,       20.7519531250,       -2.6855468750,       87.2344970703
1494293695.6172928810,       -0.8535156250,        0.3569335938,        0.1298828125,       21.0418701172,       -2.3345947266,       88.0126953125
1494293695.6198399067,       -0.8535156250,        0.3569335938,        0.1298828125,       21.0418701172,       -2.3345947266,       88.0126953125
1494293695.6224870682,       -0.8535156250,        0.3569335938,        0.1298828125,       22.0642089844,       -2.4414062500,       89.5385742188
1494293695.6250469685,       -0.8535156250,        0.3569335938,        0.1298828125,       22.0642089844,       -2.4414062500,       89.5385742188
1494293695.6275980473,       -0.8535156250,        0.3710937500,        0.1181640625,       22.8118896484,       -2.9296875000,       90.9881591797
1494293695.6302680969,       -0.8535156250,        0.3710937500,        0.1181640625,       22.8118896484,       -2.9296875000,       90.9881591797
1494293695.6329751015,       -0.8535156250,        0.3710937500,        0.1181640625,       22.4456787109,       -2.8076171875,       92.4987792969
1494293695.6355290413,       -0.8535156250,        0.3710937500,        0.1181640625,       22.4456787109,       -2.8076171875,       92.4987792969
1494293695.6380860806,       -0.8764648438,        0.3579101562,        0.0961914062,       22.4456787109,       -1.9989013672,       93.8568115234
1494293695.6407029629,       -0.8764648438,        0.3579101562,        0.0961914062,       21.1334228516,       -1.9989013672,       93.8568115234
1494293695.6432590485,       -0.8764648438,        0.3579101562,        0.0961914062,       21.1334228516,       -1.9989013672,       95.4132080078
1494293695.6458139420,       -0.8764648438,        0.3579101562,        0.0864257812,       20.8435058594,       -1.4038085938,       95.4132080078
1494293695.6483609676,       -0.9155273438,        0.3706054688,        0.0864257812,       20.8435058594,       -1.4038085938,       96.9238281250
1494293695.6509718895,       -0.9155273438,        0.3706054688,        0.0864257812,       20.7519531250,       -0.8392333984,       96.9238281250
1494293695.6536769867,       -0.9155273438,        0.3706054688,        0.0864257812,       20.7519531250,       -0.8392333984,      100.8300781250
1494293695.6563739777,       -0.9155273438,        0.3847656250,        0.1030273438,       20.2941894531,       -0.3051757812,       98.5107421875
1494293695.6590719223,       -0.9228515625,        0.3847656250,        0.1030273438,       20.2941894531,       -0.3051757812,       98.5107421875
1494293695.6617801189,       -0.9228515625,        0.3847656250,        0.1030273438,       22.2625732422,        0.2136230469,      100.0671386719
1494293695.6644759178,       -0.9228515625,        0.3847656250,        0.1030273438,       22.2625732422,        0.2136230469,      100.0671386719
1494293695.6671729088,       -0.9165039062,        0.3413085938,        0.0883789062,       23.7884521484,       -0.3356933594,      100.5706787109
1494293695.6698629856,       -0.9165039062,        0.3413085938,        0.0883789062,       23.7884521484,       -0.3356933594,      100.5706787109
1494293695.6724770069,       -0.9165039062,        0.3413085938,        0.0883789062,       24.9938964844,       -1.1138916016,      102.2491455078
1494293695.6750349998,       -0.9165039062,        0.3413085938,        0.0883789062,       24.9938964844,       -1.1138916016,      102.2491455078
1494293695.6775898933,       -0.9394531250,        0.3637695312,        0.0698242188,       25.7263183594,       -1.6632080078,      104.3090820312
1494293695.6801478863,       -0.9394531250,        0.3637695312,        0.0698242188,       25.7263183594,       -1.6632080078,      104.3090820312
1494293695.6827061176,       -0.9394531250,        0.3637695312,        0.0698242188,       26.9470214844,       -1.7242431641,      106.5826416016
1494293695.6852540970,       -0.9394531250,        0.3637695312,        0.0698242188,       26.9470214844,       -1.7242431641,      106.5826416016
1494293695.6879799366,       -1.0058593750,        0.3808593750,        0.0878906250,       29.8004150391,       -1.0223388672,      109.2376708984
1494293695.6905360222,       -1.0058593750,        0.3808593750,        0.0878906250,       29.8004150391,       -1.0223388672,      109.2376708984
1494293695.6935160160,       -1.0058593750,        0.3808593750,        0.0878906250,       33.4167480469,       -0.9918212891,      111.4501953125
1494293695.6962170601,       -1.0058593750,        0.3808593750,        0.1274414062,       33.4167480469,       -0.9918212891,      111.4501953125
1494293695.6989150047,       -1.0874023438,        0.3095703125,        0.1274414062,       38.2843017578,       -1.2207031250,      113.2507324219
1494293695.7017290592,       -1.0874023438,        0.3095703125,        0.1274414062,       38.2843017578,       -1.2207031250,      113.2507324219
1494293695.7044260502,       -1.0874023438,        0.3095703125,        0.1274414062,       42.3583984375,       -1.5563964844,      115.3411865234
1494293695.7071259022,       -1.1523437500,        0.2402343750,        0.1704101562,       42.3583984375,       -1.5563964844,      115.3411865234
1494293695.7098228931,       -1.1523437500,        0.2402343750,        0.1704101562,       47.0733642578,       -3.8757324219,      116.4855957031
1494293695.7125620842,       -1.1523437500,        0.2402343750,        0.1704101562,       47.0733642578,       -3.8757324219,      116.4855957031
1494293695.7152590752,       -1.1523437500,        0.2402343750,        0.1704101562,       52.5817871094,       -7.0190429688,      118.3471679688
1494293695.7179570198,       -1.2275390625,        0.2158203125,        0.1967773438,       52.5817871094,       -7.0190429688,      118.3471679688
1494293695.7206599712,       -1.2275390625,        0.2158203125,        0.1967773438,       60.9741210938,       -8.7585449219,      120.8038330078
1494293695.7232220173,       -1.2275390625,        0.2158203125,        0.1967773438,       60.9741210938,       -8.7585449219,      120.8038330078
1494293695.7257800102,       -1.2275390625,        0.2158203125,        0.1967773438,       70.3582763672,      -11.8103027344,      122.4975585938
1494293695.7283470631,       -1.3017578125,        0.1699218750,        0.2246093750,       70.3582763672,      -11.8103027344,      122.4975585938
1494293695.7309548855,       -1.3017578125,        0.1699218750,        0.2246093750,       82.5042724609,      -16.7999267578,      122.7264404297
1494293695.7335200310,       -1.3017578125,        0.1699218750,        0.2246093750,       82.5042724609,      -16.7999267578,      122.7264404297
1494293695.7360839844,       -1.3017578125,        0.1699218750,        0.2246093750,       94.2230224609,      -21.7895507812,      122.3602294922
1494293695.7386400700,       -1.3764648438,        0.0595703125,        0.2475585938,       95.0012207031,      -21.7895507812,      122.3602294922
1494293695.7413089275,       -1.3764648438,        0.0595703125,        0.2475585938,       95.0012207031,      -25.6958007812,      121.9024658203
1494293695.7438769341,       -1.3764648438,        0.0595703125,        0.2475585938,      104.5532226562,      -26.5045166016,      121.9024658203
1494293695.7464330196,       -1.3764648438,        0.0595703125,        0.3725585938,      104.5532226562,      -26.5045166016,      121.9329833984
1494293695.7489991188,       -1.4135742188,        0.0141601562,        0.2539062500,      112.1368408203,      -30.0598144531,      121.9329833984
1494293695.7517259121,       -1.4135742188,        0.0141601562,        0.2539062500,      112.1368408203,      -30.0598144531,      123.3062744141
1494293695.7544250488,       -1.4135742188,        0.0141601562,        0.2539062500,      118.3471679688,      -32.3181152344,      123.3062744141
1494293695.7571310997,       -1.4135742188,        0.0957031250,        0.2397460938,      118.3471679688,      -32.3181152344,      124.4964599609
1494293695.7598259449,       -1.3837890625,        0.0957031250,        0.2397460938,      120.1324462891,      -32.1350097656,      124.4964599609
1494293695.7625598907,       -1.3837890625,        0.0957031250,        0.2397460938,      120.1324462891,      -32.1350097656,      124.5117187500
1494293695.7652659416,       -1.3837890625,        0.0957031250,        0.2397460938,      121.6888427734,      -31.5856933594,      124.5117187500
1494293695.7679679394,       -1.3276367188,        0.1494140625,        0.2763671875,      121.6888427734,      -31.5856933594,      124.5117187500
1494293695.7706820965,       -1.3276367188,        0.1494140625,        0.2763671875,      125.8392333984,      -28.7780761719,      124.8474121094
1494293695.7733769417,       -1.3276367188,        0.1494140625,        0.2763671875,      125.8392333984,      -28.7780761719,      124.8474121094
1494293695.7761809826,       -1.3276367188,        0.1494140625,        0.2763671875,      124.1912841797,      -23.0712890625,      124.5880126953
1494293695.7788889408,       -1.2924804688,        0.1303710938,        0.3442382812,      124.1912841797,      -23.0712890625,      121.6430664062
1494293695.7815558910,       -1.2924804688,        0.1303710938,        0.3442382812,      111.6790771484,      -16.3574218750,      121.6430664062
1494293695.7841100693,       -1.2924804688,        0.1303710938,        0.3442382812,      111.6790771484,      -16.3574218750,      121.6430664062
1494293695.7866721153,       -1.2924804688,        0.1303710938,        0.3442382812,       90.5609130859,      -11.0015869141,      115.7531738281
1494293695.7892270088,       -1.1796875000,        0.0063476562,        0.4580078125,       90.5609130859,      -11.0015869141,      115.7531738281
1494293695.7918989658,       -1.1796875000,        0.0063476562,        0.4580078125,       63.6901855469,       -6.5612792969,      111.9842529297
1494293695.7944569588,       -1.1796875000,        0.0063476562,        0.4580078125,       63.6901855469,       -6.5612792969,      111.9842529297
1494293695.7970099449,       -1.1796875000,        0.0063476562,        0.3564453125,       44.0521240234,       -1.5411376953,      116.2414550781
1494293695.7995760441,       -1.0708007812,        0.0537109375,        0.3564453125,       44.0521240234,       -1.5411376953,      116.2414550781
1494293695.8023359776,       -1.0708007812,        0.0537109375,        0.3564453125,       52.8717041016,       -1.8157958984,      124.0692138672
1494293695.8050010204,       -1.0708007812,        0.0537109375,        0.3564453125,       52.8717041016,       -1.8157958984,      124.0692138672
1494293695.8078010082,       -0.9458007812,        0.1518554688,        0.3569335938,       72.6165771484,       -8.3312988281,      127.2125244141
1494293695.8109440804,       -0.9682617188,        0.1518554688,        0.3569335938,       72.6165771484,       -8.3312988281,      127.2125244141
1494293695.8136539459,       -0.9682617188,        0.1518554688,        0.3569335938,       71.3958740234,      -11.7797851562,      126.8005371094
1494293695.8163540363,       -0.9682617188,        0.1518554688,        0.3569335938,       71.3958740234,      -11.7797851562,      126.8005371094
1494293695.8190538883,       -0.7998046875,        0.3095703125,        0.3208007812,       60.2416992188,      -12.2528076172,      126.0528564453
1494293695.8217680454,       -0.7998046875,        0.3095703125,        0.3208007812,       60.2416992188,      -12.2528076172,      126.0528564453
1494293695.8244669437,       -0.7998046875,        0.3095703125,        0.3208007812,       52.0782470703,      -12.3596191406,      124.4354248047
1494293695.8271780014,       -0.7998046875,        0.3095703125,        0.1562500000,       52.0782470703,      -12.3596191406,      124.4354248047
1494293695.8298749924,       -0.6186523438,        0.4345703125,        0.1562500000,       48.6907958984,      -14.0228271484,      115.1123046875
1494293695.8325870037,       -0.6186523438,        0.4345703125,        0.1562500000,       48.6907958984,      -14.0228271484,      115.1123046875
1494293695.8352859020,       -0.6186523438,        0.4345703125,        0.1562500000,       54.0313720703,      -23.8800048828,       96.9848632812
1494293695.8379850388,       -0.4936523438,        0.4541015625,        0.4252929688,       54.0313720703,      -23.8800048828,       96.9848632812
1494293695.8406939507,       -0.4101562500,        0.4541015625,        0.4252929688,       61.9659423828,      -31.9671630859,       81.2225341797
1494293695.8432579041,       -0.4101562500,        0.4541015625,        0.4252929688,       61.9659423828,      -31.9671630859,       81.2225341797
1494293695.8458149433,       -0.4101562500,        0.4541015625,        0.4252929688,       72.8454589844,      -30.8074951172,       61.1114501953
1494293695.8483729362,       -0.5522460938,        0.0776367188,        0.3271484375,       72.8454589844,      -30.8074951172,       61.1114501953
1494293695.8510899544,       -0.5522460938,        0.0776367188,        0.3271484375,       85.2508544922,      -27.2216796875,       33.8745117188
1494293695.8536550999,       -0.5522460938,        0.0776367188,        0.3271484375,       85.2508544922,      -27.2216796875,       33.8745117188
1494293695.8562231064,       -0.5522460938,        0.0776367188,        0.3271484375,       94.2230224609,      -24.7802734375,        8.0108642578
1494293695.8587770462,       -0.5629882812,       -0.2441406250,        0.1821289062,       94.2230224609,      -24.7802734375,        8.0108642578
1494293695.8614768982,       -0.5629882812,       -0.2441406250,        0.1821289062,       99.9603271484,      -24.5056152344,       -8.8500976562
1494293695.8640360832,       -0.5629882812,       -0.2441406250,        0.1821289062,       99.9603271484,      -24.5056152344,       -8.8500976562
1494293695.8665940762,       -0.5629882812,       -0.2441406250,        0.1821289062,       99.9603271484,      -25.1464843750,      -18.6614990234
1494293695.8691589832,       -0.4438476562,       -0.3471679688,        0.0649414062,      103.1494140625,      -25.1464843750,      -18.6614990234
1494293695.8719000816,       -0.4438476562,       -0.3471679688,        0.0649414062,      103.1494140625,      -25.1464843750,      -26.7639160156
1494293695.8746030331,       -0.4438476562,       -0.3471679688,        0.0649414062,      103.2562255859,      -25.7110595703,      -26.7639160156
1494293695.8773090839,       -0.4438476562,       -0.3471679688,        0.0649414062,      103.2562255859,      -25.7110595703,      -33.4014892578
1494293695.8800060749,       -0.4257812500,       -0.3388671875,       -0.0087890625,       95.1995849609,      -24.5666503906,      -33.4014892578
1494293695.8826019764,       -0.4257812500,       -0.3388671875,       -0.0087890625,       95.1995849609,      -24.5666503906,      -39.6728515625
1494293695.8851630688,       -0.4257812500,       -0.3388671875,       -0.0087890625,       78.5064697266,      -22.2473144531,      -39.6728515625
1494293695.8877251148,       -0.4257812500,       -0.3388671875,       -0.0341796875,       78.5064697266,      -22.2473144531,      -47.4853515625
1494293695.8902831078,       -0.3457031250,       -0.3090820312,       -0.0341796875,       60.6689453125,      -20.1873779297,      -47.8057861328
1494293695.8930048943,       -0.3457031250,       -0.3090820312,       -0.0341796875,       60.6689453125,      -20.1873779297,      -55.6182861328
1494293695.8957090378,       -0.3457031250,       -0.3090820312,       -0.0341796875,       46.3104248047,      -20.0805664062,      -56.2896728516
1494293695.8984129429,       -0.3457031250,       -0.2006835938,       -0.0488281250,       46.3104248047,      -20.0805664062,      -64.1021728516
1494293695.9011590481,       -0.2885742188,       -0.2006835938,       -0.0488281250,       35.3546142578,      -20.1568603516,      -64.6667480469
1494293695.9038589001,       -0.2885742188,       -0.2006835938,       -0.0488281250,       35.3546142578,      -20.1568603516,      -72.4792480469
1494293695.9065608978,       -0.2885742188,       -0.2006835938,       -0.0488281250,       25.0549316406,      -19.6533203125,      -74.0509033203
1494293695.9092578888,       -0.2763671875,       -0.0908203125,       -0.0346679688,       25.0549316406,      -19.6533203125,      -74.0509033203
1494293695.9119760990,       -0.2763671875,       -0.0908203125,       -0.0346679688,       14.5874023438,      -19.2718505859,      -84.4421386719
1494293695.9146690369,       -0.2763671875,       -0.0908203125,       -0.0346679688,       14.5874023438,      -19.2718505859,      -84.4421386719
1494293695.9173660278,       -0.2763671875,       -0.0908203125,       -0.0346679688,        4.7302246094,      -18.7377929688,      -95.3674316406
1494293695.9200630188,       -0.2905273438,       -0.0869140625,       -0.0141601562,        4.7302246094,      -18.7377929688,      -95.3674316406
1494293695.9228620529,       -0.2905273438,       -0.0869140625,       -0.0141601562,       -4.4403076172,      -18.6767578125,     -106.5979003906
1494293695.9255630970,       -0.2905273438,       -0.0869140625,       -0.0141601562,       -4.4403076172,      -18.6767578125,     -118.3166503906
1494293695.9284250736,       -0.2905273438,       -0.0869140625,       -0.0219726562,      -14.0228271484,      -19.3023681641,     -117.6910400391
1494293695.9315431118,       -0.3198242188,       -0.0937500000,       -0.0219726562,      -14.0228271484,      -19.3023681641,     -128.0975341797
1494293695.9341139793,       -0.3198242188,       -0.0937500000,       -0.0219726562,      -24.1088867188,      -19.5312500000,     -128.0975341797
1494293695.9366719723,       -0.3198242188,       -0.0937500000,       -0.0219726562,      -24.1088867188,      -19.5312500000,     -139.8162841797
1494293695.9392321110,       -0.3540039062,       -0.0976562500,       -0.0244140625,      -34.3322753906,      -20.0958251953,     -137.4359130859
1494293695.9418659210,       -0.3540039062,       -0.0976562500,       -0.0244140625,      -34.3322753906,      -20.0958251953,     -137.4359130859
