time_stamp before, Acceleration x, Acceleration y, Acceleration z, Gyro x, Gyro y, Gyro z
1494293822.3997099400,       -0.7329101562,        0.0922851562,        0.1132812500,       33.6914062500,       -4.9438476562,       28.8238525391
1494293822.4038939476,       -0.7329101562,        0.0922851562,        0.1132812500,       33.6914062500,       -4.9438476562,       28.8238525391
1494293822.4065930843,       -0.7329101562,        0.0922851562,        0.1132812500,       31.0821533203,       -4.3029785156,       31.9366455078
1494293822.4092800617,       -0.7329101562,        0.0922851562,        0.1132812500,       31.0821533203,       -4.3029785156,       31.9366455078
1494293822.4119839668,       -0.7373046875,        0.1533203125,        0.0888671875,       30.4107666016,       -3.7078857422,       34.6374511719
1494293822.4146730900,       -0.7373046875,        0.1533203125,        0.0888671875,       30.4107666016,       -3.7078857422,       34.6374511719
1494293822.4173710346,       -0.7373046875,        0.1533203125,        0.0888671875,       31.0058593750,       -4.2572021484,       36.4074707031
1494293822.4200599194,       -0.7373046875,        0.2109375000,        0.1215820312,       31.0058593750,       -4.2572021484,       36.4074707031
1494293822.4227650166,       -0.7280273438,        0.2109375000,        0.1215820312,       33.2031250000,       -6.1187744141,       37.9180908203
1494293822.4254539013,       -0.7280273438,        0.2109375000,        0.1215820312,       33.2031250000,       -6.1187744141,       37.9180908203
1494293822.4281480312,       -0.7280273438,        0.2109375000,        0.1215820312,       36.7736816406,       -8.3618164062,       38.8946533203
1494293822.4309310913,       -0.7133789062,        0.2348632812,        0.1328125000,       36.7736816406,       -8.3618164062,       38.8946533203
1494293822.4334781170,       -0.7133789062,        0.2348632812,        0.1328125000,       41.1834716797,      -11.1846923828,       39.3676757812
1494293822.4360320568,       -0.7133789062,        0.2348632812,        0.1328125000,       41.1834716797,      -11.1846923828,       39.3676757812
1494293822.4385809898,       -0.7133789062,        0.2348632812,        0.1328125000,       46.5240478516,      -13.9617919922,       40.2069091797
1494293822.4412860870,       -0.7094726562,        0.2324218750,        0.1313476562,       46.5240478516,      -13.9617919922,       40.2069091797
1494293822.4438428879,       -0.7094726562,        0.2324218750,        0.1313476562,       51.4984130859,      -17.1661376953,       41.7175292969
1494293822.4463870525,       -0.7094726562,        0.2324218750,        0.1313476562,       51.4984130859,      -17.1661376953,       41.7175292969
1494293822.4489409924,       -0.7094726562,        0.2324218750,        0.1313476562,       56.4727783203,      -20.5383300781,       43.0755615234
1494293822.4516921043,       -0.6933593750,        0.2285156250,        0.0859375000,       56.4727783203,      -20.5383300781,       43.0755615234
1494293822.4543960094,       -0.6933593750,        0.2285156250,        0.0859375000,       60.0585937500,      -22.4304199219,       43.6248779297
1494293822.4570960999,       -0.6933593750,        0.2285156250,        0.0859375000,       60.0585937500,      -22.4304199219,       43.6248779297
1494293822.4597959518,       -0.6933593750,        0.2285156250,        0.0263671875,       62.3931884766,      -23.2086181641,       45.5169677734
1494293822.4624929428,       -0.7138671875,        0.2148437500,        0.0263671875,       62.3931884766,      -23.2086181641,       45.5169677734
1494293822.4652009010,       -0.7138671875,        0.2148437500,        0.0263671875,       61.9506835938,      -23.8494873047,       48.7823486328
1494293822.4679040909,       -0.7138671875,        0.2148437500,        0.0263671875,       61.9506835938,      -23.8494873047,       48.7823486328
1494293822.4706110954,       -0.7138671875,        0.1645507812,        0.0825195312,       60.0738525391,      -24.6124267578,       52.0477294922
1494293822.4733419418,       -0.6850585938,        0.1645507812,        0.0825195312,       60.0738525391,      -24.6124267578,       52.0477294922
1494293822.4761788845,       -0.6850585938,        0.1645507812,        0.0825195312,       58.4259033203,      -22.9644775391,       55.7861328125
1494293822.4788808823,       -0.6850585938,        0.1645507812,        0.0825195312,       58.4259033203,      -22.9644775391,       55.7861328125
1494293822.4815928936,       -0.6718750000,        0.1791992188,        0.0927734375,       55.1605224609,      -21.0418701172,       60.2874755859
1494293822.4842889309,       -0.6718750000,        0.1791992188,        0.0927734375,       55.1605224609,      -21.0418701172,       60.2874755859
1494293822.4869899750,       -0.6718750000,        0.1791992188,        0.0927734375,       52.2003173828,      -20.2636718750,       66.5283203125
1494293822.4896860123,       -0.6718750000,        0.1791992188,        0.0927734375,       52.2003173828,      -20.2636718750,       66.5283203125
1494293822.4923141003,       -0.6391601562,        0.2031250000,        0.1049804688,       52.2003173828,      -18.7072753906,       71.7163085938
1494293822.4948699474,       -0.6391601562,        0.2031250000,        0.1049804688,       50.8422851562,      -18.7072753906,       71.7163085938
1494293822.4974269867,       -0.6391601562,        0.2031250000,        0.1049804688,       50.8422851562,      -18.7072753906,       75.0427246094
1494293822.4999868870,       -0.6391601562,        0.2031250000,        0.1049804688,       50.2777099609,      -17.7612304688,       75.0427246094
1494293822.5025529861,       -0.6445312500,        0.1748046875,        0.1201171875,       50.2777099609,      -17.7612304688,       78.2165527344
1494293822.5051069260,       -0.6445312500,        0.1748046875,        0.1201171875,       50.1403808594,      -17.2729492188,       78.2165527344
1494293822.5077579021,       -0.6445312500,        0.1748046875,        0.1201171875,       50.1403808594,      -17.2729492188,       78.2165527344
1494293822.5103209019,       -0.6445312500,        0.1748046875,        0.1816406250,       50.0793457031,      -15.9759521484,       80.7342529297
1494293822.5130100250,       -0.7133789062,        0.1694335938,        0.1816406250,       50.0793457031,      -15.9759521484,       84.6405029297
1494293822.5157070160,       -0.7133789062,        0.1694335938,        0.1816406250,       49.4842529297,      -14.3585205078,       82.9772949219
1494293822.5184009075,       -0.7133789062,        0.1694335938,        0.1816406250,       49.4842529297,      -14.3585205078,       82.9772949219
1494293822.5210940838,       -0.8383789062,        0.2089843750,        0.1782226562,       48.1719970703,      -12.1765136719,       86.1968994141
1494293822.5237851143,       -0.7768554688,        0.2089843750,        0.1782226562,       48.1719970703,      -12.1765136719,       86.1968994141
1494293822.5264780521,       -0.7768554688,        0.2089843750,        0.1782226562,       46.3409423828,      -10.8032226562,       90.0115966797
1494293822.5291769505,       -0.7768554688,        0.2089843750,        0.1782226562,       46.3409423828,      -10.8032226562,       90.0115966797
1494293822.5318799019,       -0.7968750000,        0.3022460938,        0.1816406250,       45.0286865234,       -9.8876953125,       92.2393798828
1494293822.5345718861,       -0.7968750000,        0.3022460938,        0.1816406250,       45.0286865234,       -9.8876953125,       92.2393798828
1494293822.5372641087,       -0.7968750000,        0.3022460938,        0.1816406250,       44.2962646484,       -9.3688964844,       92.9718017578
1494293822.5399539471,       -0.7968750000,        0.3022460938,        0.1816406250,       44.2962646484,       -9.3688964844,       92.9718017578
1494293822.5425660610,       -0.8764648438,        0.3647460938,        0.1372070312,       45.4101562500,       -8.6975097656,       93.2312011719
1494293822.5451200008,       -0.8764648438,        0.3647460938,        0.1372070312,       45.4101562500,       -8.6975097656,       93.2312011719
1494293822.5477840900,       -0.8764648438,        0.3647460938,        0.1372070312,       46.7681884766,       -6.8359375000,       94.4061279297
1494293822.5504961014,       -0.8764648438,        0.3647460938,        0.0122070312,       46.7681884766,       -6.8359375000,       94.4061279297
1494293822.5538630486,       -0.9746093750,        0.3222656250,        0.1201171875,       47.0275878906,       -4.1198730469,       95.6878662109
1494293822.5564310551,       -0.9746093750,        0.3222656250,        0.1201171875,       47.0275878906,       -4.1198730469,       95.6878662109
1494293822.5589890480,       -0.9746093750,        0.3222656250,        0.1201171875,       46.7071533203,       -1.0375976562,       98.2666015625
1494293822.5615999699,       -1.0234375000,        0.2211914062,        0.1264648438,       46.7071533203,       -1.0375976562,       98.2666015625
1494293822.5643010139,       -1.0234375000,        0.2211914062,        0.1264648438,       45.4101562500,        2.4108886719,      103.2562255859
1494293822.5669898987,       -1.0234375000,        0.2211914062,        0.1264648438,       45.4101562500,        2.4108886719,      103.2562255859
1494293822.5696859360,       -1.0234375000,        0.2211914062,        0.1264648438,       42.4346923828,        5.0964355469,      109.4360351562
1494293822.5723938942,       -1.0380859375,        0.1240234375,        0.1459960938,       42.4346923828,        5.0964355469,      109.4360351562
1494293822.5750889778,       -1.0380859375,        0.1240234375,        0.1459960938,       37.5671386719,        7.3242187500,      115.6311035156
1494293822.5777919292,       -1.0380859375,        0.1240234375,        0.1459960938,       37.5671386719,        7.3242187500,      115.6311035156
1494293822.5804829597,       -1.0380859375,        0.1240234375,        0.1459960938,       32.9132080078,        7.4462890625,      121.3531494141
1494293822.5830640793,       -1.0600585938,        0.1782226562,        0.1386718750,       32.9132080078,        7.4462890625,      121.3531494141
1494293822.5856199265,       -1.0600585938,        0.1782226562,        0.1386718750,       30.7617187500,        6.7596435547,      126.0528564453
1494293822.5881719589,       -1.0600585938,        0.1782226562,        0.1386718750,       30.7617187500,        6.7596435547,      126.0528564453
1494293822.5907030106,       -1.0600585938,        0.1782226562,        0.1386718750,       32.7148437500,        5.2642822266,      129.5623779297
1494293822.5932590961,       -1.1542968750,        0.2578125000,        0.1337890625,       32.7148437500,        5.2642822266,      129.5623779297
1494293822.5958099365,       -1.1542968750,        0.2578125000,        0.1337890625,       37.2009277344,        3.0517578125,      133.3312988281
1494293822.5983710289,       -1.1542968750,        0.2578125000,        0.1337890625,       37.2009277344,        3.0517578125,      133.3312988281
1494293822.6010890007,       -1.1542968750,        0.2578125000,        0.1196289062,       41.1071777344,        1.2512207031,      137.8784179688
1494293822.6036438942,       -1.2851562500,        0.2744140625,        0.1196289062,       42.2515869141,        1.2512207031,      137.8784179688
1494293822.6062040329,       -1.2851562500,        0.2744140625,        0.1196289062,       42.2515869141,        1.2512207031,      142.9290771484
1494293822.6087601185,       -1.2851562500,        0.2744140625,        0.1196289062,       47.7142333984,        0.7781982422,      142.9290771484
1494293822.6114959717,       -1.2851562500,        0.2221679688,        0.1103515625,       47.7142333984,       -3.1280517578,      147.6135253906
1494293822.6141920090,       -1.4243164062,        0.2221679688,        0.1103515625,       54.2144775391,       -0.3967285156,      147.6135253906
1494293822.6168859005,       -1.4243164062,        0.2221679688,        0.1103515625,       54.2144775391,       -0.3967285156,      151.4739990234
1494293822.6195828915,       -1.4243164062,        0.2221679688,        0.1103515625,       60.8673095703,       -0.8544921875,      151.4739990234
1494293822.6223990917,       -1.4882812500,        0.0849609375,        0.1328125000,       60.8673095703,       -0.8544921875,      155.7922363281
1494293822.6250989437,       -1.4882812500,        0.0849609375,        0.1328125000,       66.7114257812,       -1.4190673828,      155.7922363281
1494293822.6277968884,       -1.4882812500,        0.0849609375,        0.1328125000,       66.7114257812,       -1.4190673828,      160.8581542969
1494293822.6304910183,       -1.4882812500,        0.0849609375,        0.1328125000,       69.9310302734,       -2.7160644531,      160.8581542969
1494293822.6332030296,       -1.4863281250,       -0.0273437500,        0.1606445312,       69.9310302734,       -2.7160644531,      166.3055419922
1494293822.6358959675,       -1.4863281250,       -0.0273437500,        0.1606445312,       72.4182128906,       -3.8146972656,      166.3055419922
1494293822.6385900974,       -1.4863281250,       -0.0273437500,        0.1606445312,       72.4182128906,       -3.8146972656,      171.0662841797
1494293822.6412959099,       -1.4863281250,       -0.0273437500,        0.2382812500,       76.5838623047,       -5.8288574219,      171.0662841797
1494293822.6439990997,       -1.5078125000,       -0.0908203125,        0.2382812500,       76.5838623047,       -5.8288574219,      175.2319335938
1494293822.6466948986,       -1.5078125000,       -0.0908203125,        0.2382812500,       82.6110839844,       -8.6669921875,      175.2319335938
1494293822.6493930817,       -1.5078125000,       -0.0908203125,        0.2382812500,       82.6110839844,       -8.6669921875,      177.6428222656
1494293822.6520209312,       -1.5078125000,       -0.2094726562,        0.2988281250,       92.3767089844,      -11.6119384766,      177.6428222656
1494293822.6545820236,       -1.5629882812,       -0.2094726562,        0.2988281250,       92.3767089844,      -11.6119384766,      177.6428222656
1494293822.6571369171,       -1.5629882812,       -0.2094726562,        0.2988281250,      103.0578613281,      -13.9007568359,      179.9163818359
1494293822.6596920490,       -1.5629882812,       -0.2094726562,        0.2988281250,      103.0578613281,      -13.9007568359,      179.9163818359
1494293822.6623859406,       -1.6201171875,       -0.3862304688,        0.3525390625,      112.5640869141,      -17.0288085938,      182.3577880859
1494293822.6650860310,       -1.6201171875,       -0.3862304688,        0.3525390625,      112.5640869141,      -17.0288085938,      182.3577880859
1494293822.6678590775,       -1.6201171875,       -0.3862304688,        0.3525390625,      118.8201904297,      -18.8598632812,      183.5784912109
1494293822.6705610752,       -1.6201171875,       -0.3862304688,        0.3525390625,      118.8201904297,      -18.8598632812,      183.5784912109
1494293822.6732769012,       -1.7255859375,       -0.5761718750,        0.4697265625,      122.3754882812,      -19.9737548828,      185.3485107422
1494293822.6759760380,       -1.7255859375,       -0.5761718750,        0.4697265625,      122.3754882812,      -19.9737548828,      185.3485107422
1494293822.6786749363,       -1.7255859375,       -0.5761718750,        0.4697265625,      124.0386962891,      -23.1475830078,      187.9730224609
1494293822.6813869476,       -1.7255859375,       -0.5761718750,        0.4697265625,      124.0386962891,      -23.1475830078,      187.9730224609
1494293822.6840789318,       -1.7548828125,       -0.6430664062,        0.5219726562,      123.0926513672,      -30.5786132812,      191.0095214844
1494293822.6867740154,       -1.7548828125,       -0.6430664062,        0.5219726562,      123.0926513672,      -30.5786132812,      191.0095214844
1494293822.6894690990,       -1.7548828125,       -0.6430664062,        0.5219726562,      117.3858642578,      -40.2984619141,      198.1811523438
1494293822.6921730042,       -1.7548828125,       -0.2231445312,        0.5424804688,      117.3858642578,      -40.2984619141,      198.1811523438
1494293822.6948730946,       -1.9204101562,       -0.2231445312,        0.5424804688,      104.9499511719,      -48.5229492188,      207.7484130859
1494293822.6976749897,       -1.9204101562,       -0.2231445312,        0.5424804688,      104.9499511719,      -48.5229492188,      207.7484130859
1494293822.7003719807,       -1.9204101562,       -0.2231445312,        0.5424804688,      106.0333251953,      -54.3212890625,      210.9222412109
1494293822.7029581070,       -2.2358398438,        0.0551757812,        0.5390625000,      106.0333251953,      -54.3212890625,      210.9222412109
1494293822.7055130005,       -2.2358398438,        0.0551757812,        0.5390625000,      134.5977783203,      -52.3223876953,      204.5593261719
1494293822.7080700397,       -2.2358398438,        0.0551757812,        0.5390625000,      134.5977783203,      -52.3223876953,      204.5593261719
1494293822.7107839584,       -2.2358398438,        0.0551757812,        0.5390625000,      165.0238037109,      -38.4826660156,      196.9757080078
1494293822.7133400440,       -2.3691406250,       -0.0004882812,        0.7934570312,      165.0238037109,      -38.4826660156,      196.9757080078
1494293822.7159020901,       -2.3691406250,       -0.0004882812,        0.7934570312,      184.3109130859,      -24.5513916016,      198.8220214844
1494293822.7184629440,       -2.3691406250,       -0.0004882812,        0.7934570312,      184.3109130859,      -24.5513916016,      198.8220214844
1494293822.7211709023,       -2.3691406250,       -0.0004882812,        0.7934570312,      172.6226806641,      -16.9219970703,      205.9936523438
1494293822.7238841057,       -2.2109375000,       -0.2617187500,        0.9575195312,      172.6226806641,      -16.9219970703,      205.9936523438
1494293822.7265789509,       -2.2109375000,       -0.2617187500,        0.9575195312,      147.6135253906,      -11.5814208984,      218.0633544922
1494293822.7292740345,       -2.2109375000,       -0.2617187500,        0.9575195312,      147.6135253906,      -11.5814208984,      218.0633544922
1494293822.7319850922,       -2.2109375000,       -0.2617187500,        0.7075195312,      127.8228759766,       -9.8114013672,      229.4158935547
1494293822.7346789837,       -1.8427734375,       -0.1005859375,        0.6743164062,      127.8228759766,       -9.8114013672,      229.4158935547
1494293822.7373709679,       -1.8427734375,       -0.1005859375,        0.6743164062,      114.7918701172,      -10.3759765625,      232.3303222656
1494293822.7400729656,       -1.8427734375,       -0.1005859375,        0.6743164062,      114.7918701172,      -10.3759765625,      232.3303222656
1494293822.7426791191,       -1.8427734375,        0.0498046875,        0.4326171875,       95.2606201172,       -5.7830810547,      215.6066894531
1494293822.7452359200,       -1.3969726562,        0.0498046875,        0.4326171875,       94.4824218750,       -5.7830810547,      215.6066894531
1494293822.7477838993,       -1.3969726562,        0.0498046875,        0.4326171875,       94.4824218750,       -9.6893310547,      192.2912597656
1494293822.7503409386,       -1.3969726562,        0.0498046875,        0.4326171875,       54.8706054688,       -9.3841552734,      192.2912597656
1494293822.7530400753,       -1.1469726562,       -0.2158203125,        0.4023437500,       54.8706054688,      -13.2904052734,      168.5638427734
1494293822.7558250427,       -1.2387695312,       -0.2158203125,        0.4023437500,       29.7241210938,      -15.0451660156,      168.5638427734
1494293822.7584021091,       -1.2387695312,       -0.2158203125,        0.4023437500,       29.7241210938,      -15.0451660156,      128.6926269531
1494293822.7611250877,       -1.2387695312,       -0.2158203125,        0.4023437500,        7.1868896484,       -0.4882812500,      128.6926269531
1494293822.7637739182,       -1.1474609375,       -0.8720703125,        0.0268554688,        7.1868896484,       -0.4882812500,       80.9020996094
1494293822.7665009499,       -1.1474609375,       -0.8720703125,        0.0268554688,      -13.3209228516,        6.9885253906,       80.9020996094
1494293822.7692809105,       -1.1474609375,       -0.8720703125,        0.0268554688,      -32.8521728516,       -0.3051757812,       48.6907958984
1494293822.7724099159,       -1.1474609375,       -0.8720703125,       -0.0092773438,      -32.3944091797,       -0.3051757812,       48.6907958984
1494293822.7751140594,       -0.7993164062,       -0.9047851562,       -0.0092773438,      -48.0194091797,       -7.7667236328,       27.3284912109
1494293822.7778160572,       -0.7993164062,       -0.9047851562,       -0.0092773438,      -49.2706298828,       -7.7667236328,       27.3284912109
1494293822.7805149555,       -0.7993164062,       -0.9047851562,       -0.0092773438,      -57.0831298828,      -11.9781494141,        8.1787109375
1494293822.7832260132,       -0.6743164062,       -0.5810546875,        0.0161132812,      -57.5561523438,      -11.9781494141,        8.1787109375
1494293822.7859249115,       -0.6425781250,       -0.5810546875,        0.0161132812,      -57.5561523438,      -14.7857666016,      -10.2081298828
1494293822.7886259556,       -0.6425781250,       -0.5810546875,        0.0161132812,      -59.1888427734,      -14.7857666016,      -10.2081298828
1494293822.7913410664,       -0.6425781250,       -0.5810546875,        0.0161132812,      -59.1888427734,      -18.6920166016,      -32.3333740234
1494293822.7938990593,       -0.4960937500,       -0.3374023438,        0.1176757812,      -56.1370849609,      -16.3726806641,      -32.3333740234
1494293822.7964620590,       -0.4960937500,       -0.3374023438,        0.1176757812,      -56.1370849609,      -16.3726806641,      -58.0902099609
1494293822.7990229130,       -0.4960937500,       -0.3374023438,        0.1176757812,      -50.5371093750,      -15.7165527344,      -58.0902099609
1494293822.8015849590,       -0.4960937500,       -0.3374023438,        0.1176757812,      -50.5371093750,      -15.7165527344,      -85.4339599609
1494293822.8041460514,       -0.4418945312,       -0.2602539062,        0.1821289062,      -47.3937988281,      -12.8936767578,      -84.3963623047
1494293822.8066968918,       -0.4418945312,       -0.2602539062,        0.1821289062,      -47.3937988281,      -12.8936767578,      -84.3963623047
1494293822.8092560768,       -0.4418945312,       -0.2602539062,        0.1821289062,      -44.6166992188,       -8.8958740234,     -109.3292236328
1494293822.8118159771,       -0.4418945312,       -0.2602539062,        0.1821289062,      -44.6166992188,       -8.8958740234,     -109.3292236328
1494293822.8143711090,       -0.4384765625,       -0.2124023438,        0.1904296875,      -45.3796386719,       -6.0729980469,     -131.1492919922
1494293822.8169300556,       -0.4384765625,       -0.2124023438,        0.1904296875,      -45.3796386719,       -6.0729980469,     -131.1492919922
1494293822.8194880486,       -0.4384765625,       -0.2124023438,        0.1904296875,      -46.5240478516,       -5.2490234375,     -152.3132324219
1494293822.8222110271,       -0.4384765625,       -0.2124023438,        0.1904296875,      -46.5240478516,       -5.2490234375,     -152.3132324219
1494293822.8247730732,       -0.4750976562,       -0.1572265625,        0.1357421875,      -47.7294921875,       -3.7994384766,     -171.3104248047
1494293822.8273229599,       -0.4750976562,       -0.1572265625,        0.1357421875,      -47.7294921875,       -3.7994384766,     -171.3104248047
1494293822.8298840523,       -0.4750976562,       -0.1572265625,        0.1357421875,      -51.3000488281,       -0.9155273438,     -190.0329589844
1494293822.8326799870,       -0.4750976562,       -0.1572265625,        0.1357421875,      -51.3000488281,       -0.9155273438,     -190.0329589844
1494293822.8353760242,       -0.4428710938,       -0.2060546875,        0.0834960938,      -55.6640625000,        2.4566650391,     -208.5876464844
1494293822.8380770683,       -0.4428710938,       -0.2060546875,        0.0834960938,      -55.6640625000,        2.4566650391,     -208.5876464844
1494293822.8407840729,       -0.4428710938,       -0.2060546875,        0.0834960938,      -58.5327148438,        5.3863525391,     -225.2807617188
1494293822.8434469700,       -0.4428710938,       -0.3310546875,        0.0170898438,      -58.5327148438,        5.3863525391,     -225.2807617188
1494293822.8460080624,       -0.4370117188,       -0.2631835938,        0.0170898438,      -62.4389648438,        6.8664550781,     -239.7003173828
1494293822.8485651016,       -0.4370117188,       -0.2631835938,        0.0170898438,      -60.9741210938,        6.8664550781,     -239.7003173828
1494293822.8511919975,       -0.4370117188,       -0.2631835938,        0.0170898438,      -60.9741210938,        6.7749023438,     -251.7852783203
1494293822.8538920879,       -0.5620117188,       -0.2480468750,       -0.0405273438,      -64.5751953125,        6.7749023438,     -251.7852783203
1494293822.8565909863,       -0.5053710938,       -0.2480468750,       -0.0405273438,      -64.5751953125,        6.6375732422,     -263.1683349609
1494293822.8592979908,       -0.5053710938,       -0.2480468750,       -0.0405273438,      -69.1223144531,        6.6375732422,     -263.1683349609
1494293822.8620080948,       -0.5053710938,       -0.2480468750,       -0.0405273438,      -69.1223144531,        6.6375732422,     -272.3388671875
1494293822.8646988869,       -0.6025390625,       -0.1455078125,       -0.0507812500,      -73.0133056641,        6.5002441406,     -272.3388671875
1494293822.8673970699,       -0.6025390625,       -0.1455078125,       -0.0507812500,      -73.0133056641,        6.5002441406,     -280.6243896484
1494293822.8700909615,       -0.6025390625,       -0.1455078125,       -0.0507812500,      -76.0040283203,        6.7443847656,     -280.6243896484
1494293822.8728020191,       -0.6025390625,       -0.1455078125,       -0.0507812500,      -76.0040283203,        6.7443847656,     -288.7420654297
1494293822.8754971027,       -0.7006835938,       -0.0405273438,       -0.0561523438,      -78.8116455078,        7.2021484375,     -288.7420654297
1494293822.8781991005,       -0.7006835938,       -0.0405273438,       -0.0561523438,      -78.8116455078,       11.1083984375,     -297.6379394531
1494293822.8809459209,       -0.7006835938,       -0.0405273438,       -0.0561523438,      -82.8552246094,        7.9498291016,     -297.6379394531
1494293822.8836410046,       -0.7006835938,        0.0844726562,       -0.0576171875,      -82.8552246094,        4.0435791016,     -306.1065673828
1494293822.8863370419,       -0.7988281250,        0.0458984375,       -0.0576171875,      -88.2720947266,        7.3394775391,     -306.1065673828
1494293822.8892509937,       -0.7988281250,        0.0458984375,       -0.0576171875,      -88.2720947266,        7.7819824219,     -313.8732910156
1494293822.8920860291,       -0.7988281250,        0.0458984375,       -0.0576171875,      -94.6960449219,        7.7819824219,     -313.8732910156
1494293822.8946499825,       -0.8891601562,        0.1464843750,       -0.0327148438,      -94.6960449219,       11.6882324219,     -319.8089599609
1494293822.8972089291,       -0.8891601562,        0.1464843750,       -0.0327148438,     -101.3793945312,        9.0789794922,     -319.8089599609
1494293822.8997750282,       -0.8891601562,        0.1464843750,       -0.0327148438,     -101.3793945312,        9.0789794922,     -324.8138427734
1494293822.9024510384,       -0.8891601562,        0.1464843750,       -0.0327148438,     -108.5052490234,       11.4440917969,     -324.8138427734
1494293822.9051539898,       -0.9560546875,        0.2094726562,       -0.0087890625,     -108.5052490234,       11.4440917969,     -329.4525146484
1494293822.9078590870,       -0.9560546875,        0.2094726562,       -0.0087890625,     -115.4785156250,       13.9160156250,     -329.4525146484
1494293822.9105579853,       -0.9560546875,        0.2094726562,       -0.0087890625,     -115.4785156250,       13.9160156250,     -334.2132568359
1494293822.9132640362,       -0.9560546875,        0.2094726562,       -0.0087890625,     -122.3449707031,       17.6391601562,     -334.2132568359
1494293822.9159719944,       -1.0034179688,        0.2392578125,        0.0258789062,     -122.3449707031,       17.6391601562,     -340.1336669922
1494293822.9187738895,       -1.0034179688,        0.2392578125,        0.0258789062,     -128.0364990234,       21.1181640625,     -340.1336669922
1494293822.9214379787,       -1.0034179688,        0.2392578125,        0.0258789062,     -128.0364990234,       21.1181640625,     -344.0399169922
1494293822.9240009785,       -1.0034179688,        0.2392578125,        0.0644531250,     -133.6517333984,       23.5748291016,     -344.6197509766
1494293822.9265599251,       -1.0424804688,        0.2421875000,        0.0644531250,     -133.6517333984,       23.5748291016,     -344.6197509766
1494293822.9291229248,       -1.0424804688,        0.2421875000,        0.0644531250,     -137.3748779297,       26.1993408203,     -348.9837646484
1494293822.9317278862,       -1.0424804688,        0.2421875000,        0.0644531250,     -137.3748779297,       26.1993408203,     -348.9837646484
1494293822.9342920780,       -1.0424804688,        0.2514648438,        0.1113281250,     -140.9301757812,       28.5034179688,     -352.8900146484
1494293822.9368619919,       -1.0922851562,        0.2514648438,        0.1113281250,     -140.9301757812,       28.5034179688,     -352.8900146484
1494293822.9394249916,       -1.0922851562,        0.2514648438,        0.1113281250,     -145.3399658203,       29.9224853516,     -356.2927246094
1494293822.9421350956,       -1.0922851562,        0.2514648438,        0.1113281250,     -145.3399658203,       29.9224853516,     -356.2927246094
1494293822.9447031021,       -1.2172851562,        0.2617187500,        0.1660156250,     -149.2309570312,       32.2875976562,     -358.7036132812
1494293822.9472670555,       -1.1601562500,        0.2617187500,        0.1660156250,     -149.2309570312,       32.2875976562,     -358.7036132812
1494293822.9498341084,       -1.1601562500,        0.2617187500,        0.1660156250,     -151.7333984375,       34.2864990234,     -361.3586425781
1494293822.9526100159,       -1.1601562500,        0.2617187500,        0.1660156250,     -151.7333984375,       34.2864990234,     -361.3586425781
1494293822.9553120136,       -1.1972656250,        0.3002929688,        0.2001953125,     -154.1290283203,       36.1022949219,     -365.2801513672
1494293822.9580140114,       -1.1972656250,        0.3002929688,        0.2001953125,     -154.1290283203,       36.1022949219,     -365.2801513672
1494293822.9607269764,       -1.1972656250,        0.3002929688,        0.2001953125,     -156.9671630859,       38.9099121094,     -369.1406250000
1494293822.9634280205,       -1.1972656250,        0.3002929688,        0.2001953125,     -156.9671630859,       38.9099121094,     -369.1406250000
1494293822.9661319256,       -1.2587890625,        0.2695312500,        0.2089843750,     -163.9556884766,       39.9475097656,     -371.5820312500
1494293822.9688279629,       -1.2587890625,        0.2695312500,        0.2089843750,     -163.9556884766,       39.9475097656,     -371.5820312500
1494293822.9715709686,       -1.2587890625,        0.2695312500,        0.2089843750,     -176.1474609375,       40.3900146484,     -373.2147216797
1494293822.9742739201,       -1.2587890625,        0.2695312500,        0.2846679688,     -176.1474609375,       40.3900146484,     -373.2147216797
1494293822.9769709110,       -1.3803710938,        0.2744140625,        0.2846679688,     -191.4062500000,       41.1071777344,     -374.8626708984
1494293822.9796760082,       -1.3803710938,        0.2744140625,        0.2846679688,     -191.4062500000,       41.1071777344,     -374.8626708984
1494293822.9823040962,       -1.3803710938,        0.2744140625,        0.2846679688,     -208.2824707031,       42.9229736328,     -375.1983642578
1494293822.9848599434,       -1.3803710938,        0.4462890625,        0.3603515625,     -208.2824707031,       42.9229736328,     -375.1983642578
1494293822.9874210358,       -1.5581054688,        0.4462890625,        0.3603515625,     -208.2824707031,       42.8771972656,     -374.8168945312
1494293822.9900920391,       -1.5581054688,        0.4462890625,        0.3603515625,     -222.7935791016,       42.8771972656,     -374.8168945312
1494293822.9928259850,       -1.5581054688,        0.4462890625,        0.3603515625,     -230.6060791016,       39.6575927734,     -372.0092773438
1494293822.9955248833,       -1.6733398438,        0.9614257812,        0.3989257812,     -233.3679199219,       39.6575927734,     -372.0092773438
1494293822.9982240200,       -1.6733398438,        0.9614257812,        0.3989257812,     -233.3679199219,       40.8020019531,     -371.0784912109
1494293823.0009610653,       -1.6733398438,        0.9614257812,        0.3989257812,     -221.0540771484,       40.8020019531,     -371.0784912109
1494293823.0036580563,       -1.6733398438,        0.9614257812,        0.3989257812,     -221.0540771484,       42.0379638672,     -370.0561523438
1494293823.0063569546,       -1.7993164062,        1.4536132812,        0.3505859375,     -196.8383789062,       42.0379638672,     -370.0561523438
1494293823.0092949867,       -1.7993164062,        1.4536132812,        0.3505859375,     -173.4008789062,       42.6635742188,     -362.7471923828
1494293823.0121800900,       -1.7993164062,        1.4536132812,        0.3505859375,     -172.2259521484,       42.6635742188,     -362.7471923828
1494293823.0148849487,       -1.7993164062,        1.5786132812,        0.3764648438,     -157.3944091797,       47.1496582031,     -349.4720458984
1494293823.0175840855,       -1.9277343750,        1.5029296875,        0.3764648438,     -157.3944091797,       47.1496582031,     -349.4720458984
1494293823.0202779770,       -1.9277343750,        1.5029296875,        0.3764648438,     -143.5089111328,       52.6123046875,     -333.1909179688
1494293823.0229899883,       -1.9277343750,        1.5029296875,        0.3764648438,     -143.5089111328,       52.6123046875,     -333.1909179688
1494293823.0256888866,       -1.9609375000,        1.4975585938,        0.5249023438,     -125.2136230469,       58.3953857422,     -314.4378662109
1494293823.0283920765,       -1.9609375000,        1.4975585938,        0.5249023438,     -125.2136230469,       58.3953857422,     -314.4378662109
1494293823.0310940742,       -1.9609375000,        1.4975585938,        0.5249023438,     -108.1542968750,       67.1997070312,     -297.8668212891
1494293823.0337951183,       -1.9609375000,        1.4975585938,        0.5249023438,     -108.1542968750,       67.1997070312,     -297.8668212891
1494293823.0365018845,       -1.7514648438,        1.6523437500,        0.6826171875,      -96.4355468750,       75.6072998047,     -281.0516357422
1494293823.0391969681,       -1.7514648438,        1.6523437500,        0.6826171875,      -95.6115722656,       75.6072998047,     -281.0516357422
1494293823.0418369770,       -1.7514648438,        1.6523437500,        0.6826171875,      -95.6115722656,       78.6437988281,     -259.5367431641
1494293823.0444040298,       -1.7514648438,        1.6523437500,        0.6826171875,      -87.6312255859,       78.6437988281,     -259.5367431641
1494293823.0469639301,       -1.2368164062,        1.9418945312,        0.9311523438,      -87.6312255859,       78.6437988281,     -235.3363037109
1494293823.0495269299,       -1.2368164062,        1.9418945312,        0.9311523438,      -81.3140869141,       71.2738037109,     -235.3363037109
1494293823.0521349907,       -1.2368164062,        1.9418945312,        0.9311523438,      -81.3140869141,       71.2738037109,     -208.9233398438
1494293823.0546979904,       -1.2368164062,        1.9418945312,        1.1811523438,      -72.5860595703,       56.8542480469,     -208.9233398438
1494293823.0572609901,       -0.7778320312,        2.3510742188,        1.2270507812,      -72.5860595703,       56.8542480469,     -208.9233398438
1494293823.0598149300,       -0.7778320312,        2.3510742188,        1.2270507812,      -59.2498779297,       42.2210693359,     -181.7474365234
1494293823.0625429153,       -0.7778320312,        2.3510742188,        1.2270507812,      -59.2498779297,       42.2210693359,     -181.7474365234
1494293823.0652110577,       -0.7778320312,        2.7260742188,        1.2124023438,      -41.8243408203,       24.1851806641,     -151.9317626953
1494293823.0677709579,       -0.3608398438,        2.7207031250,        1.2124023438,      -41.8243408203,       24.1851806641,     -151.9317626953
1494293823.0703299046,       -0.3608398438,        2.7207031250,        1.2124023438,      -16.3574218750,        1.0528564453,     -117.8283691406
1494293823.0731050968,       -0.3608398438,        2.7207031250,        1.2124023438,      -16.3574218750,        1.0528564453,     -117.8283691406
1494293823.0758030415,       -0.2358398438,        2.9428710938,        0.8286132812,       15.6860351562,      -24.3835449219,      -79.6356201172
1494293823.0785069466,       -0.2089843750,        2.9428710938,        0.8286132812,       15.6860351562,      -24.3835449219,      -79.6356201172
1494293823.0812139511,       -0.2089843750,        2.9428710938,        0.8286132812,       45.7000732422,      -42.8466796875,      -40.8325195312
1494293823.0839149952,       -0.2089843750,        2.9428710938,        0.8286132812,       45.7000732422,      -42.8466796875,      -40.8325195312
1494293823.0866110325,       -0.4736328125,        2.8276367188,        0.4545898438,       67.4133300781,      -50.4608154297,       -5.4931640625
1494293823.0893049240,       -0.4736328125,        2.8276367188,        0.4545898438,       67.4133300781,      -50.4608154297,       -5.4931640625
1494293823.0919559002,       -0.4736328125,        2.8276367188,        0.4545898438,       76.4312744141,      -50.6134033203,       26.4282226562
1494293823.0945110321,       -0.4736328125,        2.8276367188,        0.4545898438,       76.4312744141,      -50.6134033203,       26.4282226562
1494293823.0970640182,       -0.7944335938,        2.4042968750,        0.3901367188,       72.7539062500,      -43.5333251953,       61.8743896484
1494293823.0996210575,       -0.7944335938,        2.4042968750,        0.3901367188,       72.7539062500,      -43.5333251953,       61.8743896484
1494293823.1021840572,       -0.7944335938,        2.4042968750,        0.3901367188,       63.4460449219,      -33.2489013672,       98.9532470703
1494293823.1047430038,       -0.7944335938,        2.4042968750,        0.3901367188,       63.4460449219,      -33.2489013672,       98.9532470703
1494293823.1073079109,       -0.7299804688,        2.2329101562,        0.3984375000,       47.8210449219,      -26.1688232422,      135.4675292969
1494293823.1098639965,       -0.7299804688,        2.2329101562,        0.3984375000,       48.6297607422,      -26.1688232422,      135.4675292969
1494293823.1125938892,       -0.7299804688,        2.2329101562,        0.3984375000,       25.1922607422,      -22.5982666016,      167.0227050781
1494293823.1152989864,       -0.7299804688,        2.2329101562,        0.2734375000,       26.9165039062,      -22.5982666016,      167.0227050781
1494293823.1179931164,       -0.6098632812,        1.8989257812,        0.3183593750,       -0.4272460938,      -21.3775634766,      197.0367431641
1494293823.1207029819,       -0.6098632812,        1.8989257812,        0.3183593750,       -1.8615722656,      -21.3775634766,      197.0367431641
1494293823.1233940125,       -0.6098632812,        1.8989257812,        0.3183593750,       -1.8615722656,      -24.2767333984,      221.8170166016
1494293823.1260850430,       -0.6098632812,        1.3867187500,        0.3364257812,      -36.9415283203,      -24.2767333984,      221.8170166016
1494293823.1289079189,       -0.6040039062,        1.3867187500,        0.3364257812,      -72.0977783203,      -34.4085693359,      220.3826904297
1494293823.1319360733,       -0.6040039062,        1.3867187500,        0.3364257812,      -74.1882324219,      -34.4085693359,      220.3826904297
1494293823.1346480846,       -0.6040039062,        1.3867187500,        0.3364257812,     -107.6049804688,      -24.2919921875,      214.4012451172
1494293823.1373479366,       -0.8813476562,       -0.0302734375,       -0.0830078125,     -107.6049804688,      -24.2919921875,      214.4012451172
1494293823.1401650906,       -0.8813476562,       -0.0302734375,       -0.0830078125,     -120.2545166016,        6.5460205078,      200.8056640625
1494293823.1427659988,       -0.8813476562,       -0.0302734375,       -0.0830078125,     -120.2545166016,        6.5460205078,      200.8056640625
1494293823.1453230381,       -0.8813476562,       -0.0302734375,       -0.0830078125,     -159.3170166016,       34.0423583984,      158.0352783203
1494293823.1478919983,       -1.8388671875,       -2.6328125000,       -0.8222656250,     -156.6467285156,       34.0423583984,      158.0352783203
1494293823.1504449844,       -1.8388671875,       -2.6328125000,       -0.8222656250,     -156.6467285156,       41.8548583984,      136.2457275391
1494293823.1531848907,       -1.8388671875,       -2.6328125000,       -0.8222656250,     -193.5882568359,       41.2597656250,      136.2457275391
1494293823.1558840275,       -1.8388671875,       -2.6328125000,       -0.3666992188,     -193.5882568359,       21.7285156250,      166.7327880859
1494293823.1585779190,       -2.1914062500,       -1.5454101562,       -0.3666992188,     -205.3985595703,       23.3154296875,      166.7327880859
1494293823.1612470150,       -2.1914062500,       -1.5454101562,       -0.3666992188,     -205.3985595703,       23.3154296875,      257.2784423828
1494293823.1638050079,       -2.1914062500,       -1.5454101562,       -0.3666992188,     -249.4659423828,      -17.0288085938,      257.2784423828
1494293823.1663649082,       -2.1914062500,        2.7807617188,        0.2084960938,     -249.4659423828,      -17.0288085938,      343.2159423828
1494293823.1689240932,       -2.4082031250,        2.7807617188,        0.2084960938,     -278.0303955078,      -52.0782470703,      340.9423828125
1494293823.1715340614,       -2.4082031250,        2.7807617188,        0.2084960938,     -278.0303955078,      -52.0782470703,      340.9423828125
1494293823.1740930080,       -2.4082031250,        2.7807617188,        0.2084960938,     -221.2677001953,      -47.0123291016,      336.8377685547
1494293823.1766579151,       -1.0332031250,        3.4179687500,        0.8598632812,     -221.2677001953,      -47.0123291016,      336.8377685547
1494293823.1792130470,       -1.0722656250,        3.4179687500,        0.8598632812,      -91.3696289062,      -30.3344726562,      265.2130126953
1494293823.1818759441,       -1.0722656250,        3.4179687500,        0.8598632812,      -91.3696289062,      -30.3344726562,      265.2130126953
1494293823.1844420433,       -1.0722656250,        3.4179687500,        0.8598632812,       38.0706787109,      -45.6085205078,      218.7957763672
1494293823.1870009899,       -0.8671875000,        0.9267578125,        0.0332031250,       38.0706787109,      -45.6085205078,      218.7957763672
1494293823.1895680428,       -0.8671875000,        0.9267578125,        0.0332031250,       97.6562500000,      -61.7370605469,      207.6263427734
1494293823.1922318935,       -0.8671875000,        0.9267578125,        0.0332031250,       97.6562500000,      -61.7370605469,      207.6263427734
1494293823.1947929859,       -0.8671875000,        0.9267578125,        0.0332031250,       93.3380126953,      -68.5577392578,      198.4405517578
1494293823.1973550320,       -0.4077148438,        0.0639648438,       -0.2568359375,       93.3380126953,      -68.5577392578,      198.4405517578
1494293823.1999158859,       -0.4077148438,        0.0639648438,       -0.2568359375,       70.9533691406,      -71.8078613281,      184.2803955078
1494293823.2026159763,       -0.4077148438,        0.0639648438,       -0.2568359375,       70.9533691406,      -71.8078613281,      184.2803955078
1494293823.2053210735,       -0.4077148438,        0.0639648438,       -0.2568359375,       52.0477294922,      -73.8372802734,      169.6166992188
1494293823.2080230713,       -0.4672851562,        1.0029296875,        0.2084960938,       52.0477294922,      -73.8372802734,      169.6166992188
1494293823.2108309269,       -0.4672851562,        1.0029296875,        0.2084960938,       50.0030517578,      -70.9991455078,      159.2407226562
1494293823.2135310173,       -0.4672851562,        1.0029296875,        0.2084960938,       50.0030517578,      -70.9991455078,      159.2407226562
1494293823.2162280083,       -0.4672851562,        1.0029296875,        0.3999023438,       68.2983398438,      -69.8852539062,      150.1007080078
1494293823.2189331055,       -0.7568359375,        1.2607421875,        0.3999023438,       68.2983398438,      -69.8852539062,      150.1007080078
1494293823.2216060162,       -0.7568359375,        1.2607421875,        0.3999023438,       87.8295898438,      -70.2362060547,      140.0146484375
1494293823.2241649628,       -0.7568359375,        1.2607421875,        0.3999023438,       88.1652832031,      -70.2362060547,      140.0146484375
1494293823.2267270088,       -0.7568359375,        0.6357421875,        0.1806640625,       88.1652832031,      -70.2362060547,      130.8441162109
1494293823.2292830944,       -0.7856445312,        0.7377929688,        0.1806640625,      102.1423339844,      -68.0541992188,      130.8441162109
1494293823.2319929600,       -0.7856445312,        0.7377929688,        0.1806640625,      102.1423339844,      -64.1479492188,      122.9705810547
1494293823.2346940041,       -0.7856445312,        0.7377929688,        0.1806640625,      102.6458740234,      -65.2770996094,      122.9705810547
1494293823.2373979092,       -0.7275390625,        0.4208984375,        0.0825195312,      102.6458740234,      -65.2770996094,      116.1804199219
1494293823.2401049137,       -0.7275390625,        0.4208984375,        0.0825195312,       82.9162597656,      -64.8040771484,      116.1804199219
1494293823.2427339554,       -0.7275390625,        0.4208984375,        0.0825195312,       82.9162597656,      -64.8040771484,      112.3199462891
1494293823.2452878952,       -0.7275390625,        0.4208984375,        0.0825195312,       55.4046630859,      -64.2547607422,      112.3199462891
1494293823.2480580807,       -0.7470703125,        0.6240234375,        0.1875000000,       55.4046630859,      -64.2547607422,      107.5134277344
1494293823.2506229877,       -0.7470703125,        0.6240234375,        0.1875000000,       39.0472412109,      -59.6771240234,      107.5134277344
1494293823.2537779808,       -0.7470703125,        0.6240234375,        0.1875000000,       39.0472412109,      -51.8646240234,       98.8616943359
1494293823.2564830780,       -0.7470703125,        0.6240234375,        0.0625000000,       37.9791259766,      -52.1087646484,       98.8616943359
1494293823.2591929436,       -0.7885742188,        0.6489257812,        0.0947265625,       37.9791259766,      -48.2025146484,       88.9587402344
1494293823.2618989944,       -0.7885742188,        0.6489257812,        0.0947265625,       33.4472656250,      -47.0428466797,       88.9587402344
1494293823.2646009922,       -0.7885742188,        0.6489257812,        0.0947265625,       33.4472656250,      -43.1365966797,       80.6274414062
1494293823.2673070431,       -0.7885742188,        0.3618164062,        0.2197265625,       18.1121826172,      -45.1354980469,       80.6274414062
1494293823.2700040340,       -0.7211914062,        0.3618164062,        0.2197265625,       18.1121826172,      -45.1354980469,       75.6378173828
1494293823.2727038860,       -0.7211914062,        0.3618164062,        0.2197265625,       -0.3814697266,      -43.4417724609,       75.6378173828
1494293823.2754080296,       -0.7211914062,        0.3618164062,        0.2197265625,       -0.3814697266,      -43.4417724609,       71.3958740234
1494293823.2781040668,       -0.7436523438,        0.2763671875,        0.2758789062,       -7.8887939453,      -39.1082763672,       71.3958740234
1494293823.2808129787,       -0.7436523438,        0.2763671875,        0.2758789062,       -7.8887939453,      -39.1082763672,       66.3757324219
1494293823.2833681107,       -0.7436523438,        0.2763671875,        0.2758789062,       -2.3345947266,      -33.3404541016,       66.3757324219
1494293823.2860291004,       -0.7436523438,        0.2763671875,        0.2758789062,       -2.3345947266,      -33.3404541016,       62.4694824219
1494293823.2885890007,       -0.7241210938,        0.3999023438,        0.1352539062,        9.3078613281,      -29.0679931641,       61.3403320312
1494293823.2911860943,       -0.7241210938,        0.3999023438,        0.1352539062,        9.3078613281,      -29.0679931641,       61.3403320312
1494293823.2937378883,       -0.7241210938,        0.3999023438,        0.1352539062,       17.3950195312,      -26.8859863281,       55.1757812500
1494293823.2962970734,       -0.7241210938,        0.3999023438,        0.1352539062,       17.3950195312,      -26.8859863281,       55.1757812500
1494293823.2988550663,       -0.7192382812,        0.3452148438,        0.0883789062,       19.7906494141,      -25.6195068359,       49.1027832031
1494293823.3015151024,       -0.7192382812,        0.3452148438,        0.0883789062,       19.7906494141,      -25.6195068359,       49.1027832031
1494293823.3040759563,       -0.7192382812,        0.3452148438,        0.0883789062,       20.3399658203,      -24.0936279297,       43.2586669922
1494293823.3066389561,       -0.7192382812,        0.3452148438,        0.0883789062,       20.3399658203,      -24.0936279297,       43.2586669922
1494293823.3092050552,       -0.7080078125,        0.2998046875,        0.1743164062,       22.5524902344,      -22.0947265625,       38.0859375000
1494293823.3119170666,       -0.7080078125,        0.2998046875,        0.1743164062,       22.5524902344,      -22.0947265625,       38.0859375000
1494293823.3146190643,       -0.7080078125,        0.2998046875,        0.1743164062,       25.1007080078,      -20.4162597656,       34.4390869141
1494293823.3173279762,       -0.7080078125,        0.2998046875,        0.1694335938,       25.1007080078,      -20.4162597656,       34.4390869141
1494293823.3200259209,       -0.7177734375,        0.2514648438,        0.1694335938,       28.7170410156,      -19.1040039062,       31.9366455078
1494293823.3227710724,       -0.7177734375,        0.2514648438,        0.1694335938,       28.7170410156,      -19.1040039062,       31.9366455078
1494293823.3254649639,       -0.7177734375,        0.2514648438,        0.1694335938,       32.5012207031,      -17.7459716797,       29.8156738281
1494293823.3281669617,       -0.7451171875,        0.1318359375,        0.1767578125,       32.5012207031,      -17.7459716797,       29.8156738281
1494293823.3309140205,       -0.7451171875,        0.1318359375,        0.1767578125,       35.3546142578,      -17.2729492188,       27.4047851562
1494293823.3334751129,       -0.7451171875,        0.1318359375,        0.1767578125,       35.3546142578,      -17.2729492188,       27.4047851562
1494293823.3360359669,       -0.7451171875,        0.1318359375,        0.1767578125,       38.3758544922,      -17.1966552734,       24.4598388672
1494293823.3385989666,       -0.7456054688,        0.0766601562,        0.2265625000,       38.3758544922,      -17.1966552734,       24.4598388672
1494293823.3411829472,       -0.7456054688,        0.0766601562,        0.2265625000,       38.3758544922,      -17.5476074219,       21.7132568359
1494293823.3437480927,       -0.7456054688,        0.0766601562,        0.2265625000,       40.7714843750,      -17.5476074219,       21.7132568359
1494293823.3463060856,       -0.7456054688,        0.0766601562,        0.2265625000,       40.7714843750,      -17.5476074219,       21.5301513672
1494293823.3488678932,       -0.8027343750,        0.0571289062,        0.1967773438,       44.0368652344,      -17.5933837891,       21.5301513672
1494293823.3515570164,       -0.8027343750,        0.0571289062,        0.1967773438,       44.0368652344,      -17.5933837891,       22.9949951172
1494293823.3541181087,       -0.8027343750,        0.0571289062,        0.1967773438,       48.0346679688,      -16.9525146484,       22.9949951172
1494293823.3566780090,       -0.8027343750,        0.0571289062,        0.1967773438,       48.0346679688,      -16.9525146484,       22.9949951172
1494293823.3593521118,       -0.8393554688,        0.0356445312,        0.1059570312,       48.2940673828,      -17.6239013672,       24.2309570312
1494293823.3620200157,       -0.8393554688,        0.0356445312,        0.1059570312,       48.2940673828,      -17.6239013672,       24.2309570312
1494293823.3647220135,       -0.8393554688,        0.0356445312,        0.1059570312,       45.1965332031,      -18.4020996094,       24.8107910156
1494293823.3674759865,       -0.8393554688,        0.0356445312,        0.1059570312,       45.1965332031,      -18.4020996094,       24.8107910156
1494293823.3701670170,       -0.8178710938,        0.0668945312,        0.0922851562,       41.1224365234,      -18.3868408203,       27.1759033203
1494293823.3732779026,       -0.8178710938,        0.0668945312,        0.0922851562,       41.1224365234,      -18.3868408203,       30.1666259766
1494293823.3759770393,       -0.8178710938,        0.0668945312,        0.0922851562,       36.5447998047,      -17.1966552734,       30.1666259766
1494293823.3786799908,       -0.8173828125,        0.1640625000,        0.1005859375,       36.5447998047,      -17.1966552734,       34.0118408203
1494293823.3813641071,       -0.8173828125,        0.1640625000,        0.1005859375,       32.4707031250,      -14.9536132812,       34.0118408203
1494293823.3839230537,       -0.8173828125,        0.1640625000,        0.1005859375,       32.4707031250,      -14.9536132812,       34.0118408203
1494293823.3864879608,       -0.8173828125,        0.1640625000,        0.1005859375,       30.4565429688,      -13.4735107422,       37.4450683594
1494293823.3890409470,       -0.7993164062,        0.2392578125,        0.1494140625,       30.4565429688,      -13.4735107422,       37.4450683594
1494293823.3916609287,       -0.7993164062,        0.2392578125,        0.1494140625,       31.9671630859,      -14.0686035156,       39.0014648438
1494293823.3943600655,       -0.7993164062,        0.2392578125,        0.1494140625,       31.9671630859,      -14.0686035156,       39.0014648438
1494293823.3970561028,       -0.7993164062,        0.2392578125,        0.1494140625,       38.1164550781,      -16.6168212891,       39.1693115234
1494293823.3997540474,       -0.7807617188,        0.3442382812,        0.1943359375,       38.1164550781,      -16.6168212891,       39.1693115234
1494293823.4023780823,       -0.7807617188,        0.3442382812,        0.1943359375,       48.4466552734,      -19.7448730469,       38.2995605469
1494293823.4049329758,       -0.7807617188,        0.3442382812,        0.1943359375,       48.4466552734,      -19.7448730469,       38.2995605469
1494293823.4074900150,       -0.7807617188,        0.3442382812,        0.1943359375,       58.1665039062,      -22.5372314453,       38.2385253906
1494293823.4100449085,       -0.7895507812,        0.3964843750,        0.2016601562,       58.1665039062,      -22.5372314453,       38.2385253906
1494293823.4126501083,       -0.7895507812,        0.3964843750,        0.2016601562,       67.2760009766,      -26.4434814453,       36.1328125000
1494293823.4152109623,       -0.7895507812,        0.3964843750,        0.2016601562,       67.2760009766,      -26.4434814453,       36.1328125000
1494293823.4177639484,       -0.7895507812,        0.3964843750,        0.2016601562,       76.5228271484,      -30.5328369141,       34.9426269531
1494293823.4203200340,       -0.7807617188,        0.3183593750,        0.1503906250,       76.5228271484,      -30.5328369141,       34.9426269531
1494293823.4229979515,       -0.7807617188,        0.3183593750,        0.1503906250,       88.2415771484,      -34.8358154297,       34.8815917969
1494293823.4255568981,       -0.7807617188,        0.3183593750,        0.1503906250,       86.1206054688,      -34.8358154297,       34.8815917969
1494293823.4281170368,       -0.7807617188,        0.3183593750,        0.0253906250,       86.1206054688,      -38.7420654297,       34.6832275391
1494293823.4310019016,       -0.7768554688,        0.2036132812,        0.1098632812,       93.0786132812,      -37.3229980469,       34.6832275391
1494293823.4335761070,       -0.7768554688,        0.2036132812,        0.1098632812,       93.0786132812,      -37.3229980469,       36.3159179688
1494293823.4361360073,       -0.7768554688,        0.2036132812,        0.1098632812,       97.1832275391,      -37.9486083984,       36.3159179688
1494293823.4386980534,       -0.7768554688,        0.0888671875,        0.1040039062,       97.1832275391,      -37.9486083984,       41.3970947266
1494293823.4412949085,       -0.7836914062,        0.0888671875,        0.1040039062,       96.8322753906,      -36.4532470703,       41.3970947266
1494293823.4439949989,       -0.7836914062,        0.0888671875,        0.1040039062,       96.8322753906,      -36.4532470703,       48.2482910156
1494293823.4466950893,       -0.7836914062,        0.0888671875,        0.1040039062,       91.4764404297,      -32.5927734375,       48.2482910156
1494293823.4493970871,       -0.7890625000,       -0.0019531250,        0.1000976562,       91.4764404297,      -32.5927734375,       56.9610595703
1494293823.4521059990,       -0.7890625000,       -0.0019531250,        0.1000976562,       82.6873779297,      -27.3132324219,       56.9610595703
1494293823.4548048973,       -0.7890625000,       -0.0019531250,        0.1000976562,       82.6873779297,      -27.3132324219,       65.9332275391
1494293823.4575119019,       -0.7890625000,       -0.0019531250,        0.1000976562,       71.7010498047,      -22.9492187500,       65.9332275391
1494293823.4602050781,       -0.7177734375,        0.0063476562,        0.0976562500,       71.7010498047,      -22.9492187500,       77.6519775391
1494293823.4629108906,       -0.7177734375,        0.0063476562,        0.0976562500,       61.3555908203,      -20.1110839844,       74.9664306641
1494293823.4656090736,       -0.7177734375,        0.0063476562,        0.0976562500,       61.3555908203,      -20.1110839844,       82.7789306641
1494293823.4683120251,       -0.7177734375,        0.0063476562,        0.0976562500,       53.8635253906,      -18.7377929688,       82.2906494141
1494293823.4710309505,       -0.6840820312,        0.1757812500,        0.0732421875,       53.8635253906,      -18.7377929688,       86.1968994141
1494293823.4737310410,       -0.6840820312,        0.1757812500,        0.0732421875,       50.2319335938,      -18.5852050781,       88.0432128906
1494293823.4764299393,       -0.6840820312,        0.1757812500,        0.0732421875,       50.2319335938,      -18.5852050781,       91.9494628906
1494293823.4791328907,       -0.6840820312,        0.2988281250,        0.0605468750,       49.6673583984,      -18.3105468750,       93.2312011719
1494293823.4817969799,       -0.7539062500,        0.2988281250,        0.0605468750,       49.6673583984,      -18.3105468750,       93.2312011719
1494293823.4843618870,       -0.7539062500,        0.2988281250,        0.0605468750,       52.2155761719,      -16.2811279297,       97.7478027344
1494293823.4871420860,       -0.7539062500,        0.2988281250,        0.0605468750,       52.2155761719,      -16.2811279297,       97.7478027344
1494293823.4897119999,       -0.8769531250,        0.2778320312,        0.1259765625,       56.1370849609,      -12.8479003906,      101.2268066406
1494293823.4928009510,       -0.8769531250,        0.2778320312,        0.1259765625,       56.1370849609,      -12.8479003906,      109.0393066406
1494293823.4955039024,       -0.8769531250,        0.2778320312,        0.1259765625,       58.5632324219,       -8.3465576172,      105.5450439453
1494293823.4982039928,       -0.8769531250,        0.2778320312,        0.1259765625,       58.5632324219,       -8.3465576172,      109.4512939453
1494293823.5009410381,       -0.9438476562,        0.1547851562,        0.1723632812,       58.6395263672,       -4.8370361328,      111.0229492188
1494293823.5036370754,       -0.9438476562,        0.1547851562,        0.1723632812,       58.6395263672,       -4.8370361328,      118.8354492188
1494293823.5064549446,       -0.9438476562,        0.1547851562,        0.1723632812,       56.6558837891,       -2.0446777344,      117.5689697266
1494293823.5091540813,       -0.9438476562,        0.0297851562,        0.2412109375,       56.6558837891,       -2.0446777344,      121.4752197266
1494293823.5118680000,       -0.9951171875,        0.0629882812,        0.2412109375,       54.5806884766,       -0.1983642578,      124.2218017578
1494293823.5145618916,       -0.9951171875,        0.0629882812,        0.2412109375,       54.5806884766,       -0.1983642578,      132.0343017578
1494293823.5172579288,       -0.9951171875,        0.0629882812,        0.2412109375,       53.4973144531,        0.5950927734,      130.4931640625
1494293823.5199561119,       -1.0458984375,        0.1186523438,        0.3315429688,       53.4973144531,        0.5950927734,      134.3994140625
1494293823.5225670338,       -1.0458984375,        0.1186523438,        0.3315429688,       55.0994873047,        0.3356933594,      135.5133056641
1494293823.5251250267,       -1.0458984375,        0.1186523438,        0.3315429688,       55.0994873047,        0.3356933594,      135.5133056641
1494293823.5276899338,       -1.0458984375,        0.1186523438,        0.3315429688,       59.5397949219,       -1.2207031250,      139.5263671875
1494293823.5302450657,       -1.0034179688,        0.2426757812,        0.3183593750,       59.5397949219,       -1.2207031250,      139.5263671875
1494293823.5328490734,       -1.0034179688,        0.2426757812,        0.3183593750,       68.4051513672,       -4.7607421875,      143.2647705078
1494293823.5354120731,       -1.0034179688,        0.2426757812,        0.3183593750,       68.4051513672,       -4.7607421875,      143.2647705078
1494293823.5379729271,       -1.0034179688,        0.2426757812,        0.3183593750,       77.6519775391,       -8.2397460938,      146.5148925781
1494293823.5405330658,       -0.9833984375,        0.2192382812,        0.1928710938,       77.6519775391,       -8.2397460938,      146.5148925781
1494293823.5431931019,       -0.9833984375,        0.2192382812,        0.1928710938,       83.6639404297,       -9.4757080078,      149.1699218750
1494293823.5457530022,       -0.9833984375,        0.2192382812,        0.1928710938,       83.6639404297,       -9.4757080078,      149.1699218750
1494293823.5483078957,       -0.9833984375,        0.2192382812,        0.1928710938,       83.7707519531,       -9.2010498047,      152.2827148438
1494293823.5510389805,       -1.1557617188,        0.1313476562,        0.0043945312,       83.7707519531,       -9.2010498047,      152.2827148438
1494293823.5537369251,       -1.1557617188,        0.1313476562,        0.0043945312,       80.8105468750,       -8.6059570312,      157.2723388672
1494293823.5564420223,       -1.1557617188,        0.1313476562,        0.0043945312,       80.8105468750,       -8.6059570312,      157.2723388672
1494293823.5591359138,       -1.1557617188,        0.1313476562,       -0.1206054688,       78.5522460938,       -7.0953369141,      163.3605957031
1494293823.5618469715,       -1.4096679688,        0.0629882812,       -0.0747070312,       78.5522460938,       -7.0953369141,      163.3605957031
1494293823.5645449162,       -1.4096679688,        0.0629882812,       -0.0747070312,       79.0557861328,       -6.4239501953,      167.6483154297
1494293823.5672380924,       -1.4096679688,        0.0629882812,       -0.0747070312,       79.0557861328,       -6.4239501953,      167.6483154297
1494293823.5699360371,       -1.4096679688,       -0.0180664062,       -0.0639648438,       80.6121826172,       -5.4016113281,      172.5158691406
1494293823.5726380348,       -1.5581054688,       -0.0180664062,       -0.0639648438,       80.6121826172,       -5.4016113281,      172.5158691406
1494293823.5753400326,       -1.5581054688,       -0.0180664062,       -0.0639648438,       84.5184326172,       -4.2572021484,      176.8188476562
1494293823.5780420303,       -1.5581054688,       -0.0180664062,       -0.0639648438,       82.5042724609,       -4.2572021484,      176.8188476562
1494293823.5808930397,       -1.6230468750,       -0.1503906250,        0.0502929688,       84.9761962891,       -3.5400390625,      181.2744140625
1494293823.5834589005,       -1.6230468750,       -0.1503906250,        0.0502929688,       84.9761962891,       -3.5400390625,      181.2744140625
1494293823.5860159397,       -1.6230468750,       -0.1503906250,        0.0502929688,       84.9761962891,       -4.0893554688,      184.7534179688
1494293823.5885720253,       -1.6230468750,       -0.1503906250,        0.0502929688,       90.3625488281,       -4.0893554688,      184.7534179688
1494293823.5912120342,       -1.6103515625,       -0.2539062500,        0.2099609375,       90.3625488281,       -4.0893554688,      187.6068115234
1494293823.5939149857,       -1.6103515625,       -0.2539062500,        0.2099609375,       98.8006591797,       -5.5847167969,      187.6068115234
1494293823.5966100693,       -1.6103515625,       -0.2539062500,        0.2099609375,       98.8006591797,       -9.4909667969,      188.6596679688
1494293823.5993139744,       -1.6103515625,       -0.2539062500,        0.2099609375,      110.8703613281,       -8.8958740234,      188.6596679688
1494293823.6020190716,       -1.5942382812,       -0.3681640625,        0.3344726562,      110.8703613281,       -8.8958740234,      188.6901855469
1494293823.6047120094,       -1.5942382812,       -0.3681640625,        0.3344726562,      121.3684082031,      -12.5274658203,      188.6901855469
1494293823.6074719429,       -1.5942382812,       -0.3681640625,        0.3344726562,      121.3684082031,      -12.5274658203,      189.3463134766
1494293823.6101589203,       -1.5942382812,       -0.5688476562,        0.4536132812,      127.7160644531,      -16.3726806641,      189.3463134766
1494293823.6132709980,       -1.6723632812,       -0.5688476562,        0.4536132812,      131.6223144531,      -18.6462402344,      190.7653808594
1494293823.6159720421,       -1.6723632812,       -0.5688476562,        0.4536132812,      128.9978027344,      -18.6462402344,      190.7653808594
1494293823.6186790466,       -1.6723632812,       -0.5688476562,        0.4536132812,      128.9978027344,      -23.1170654297,      195.9381103516
1494293823.6213901043,       -1.7192382812,       -0.6596679688,        0.5493164062,      126.4038085938,      -23.1170654297,      195.9381103516
1494293823.6240959167,       -1.7192382812,       -0.6596679688,        0.5493164062,      126.4038085938,      -30.9906005859,      205.8563232422
1494293823.6268041134,       -1.7192382812,       -0.6596679688,        0.5493164062,      117.9656982422,      -30.9906005859,      205.8563232422
1494293823.6295049191,       -1.7192382812,       -0.6596679688,        0.5493164062,      117.9656982422,      -40.3442382812,      216.5069580078
1494293823.6321439743,       -1.9155273438,       -0.4707031250,        0.5908203125,      105.2246093750,      -40.3442382812,      216.5069580078
1494293823.6347060204,       -1.9155273438,       -0.4707031250,        0.5908203125,      105.2246093750,      -40.3442382812,      222.3205566406
1494293823.6372549534,       -1.9155273438,       -0.4707031250,        0.5908203125,       88.5467529297,      -50.3845214844,      222.3205566406
1494293823.6398179531,       -1.9155273438,       -0.4707031250,        0.5908203125,       88.5467529297,      -50.3845214844,      226.2268066406
1494293823.6423890591,       -2.3530273438,       -0.1562500000,        0.5439453125,       84.2742919922,      -57.9681396484,      224.6704101562
1494293823.6449489594,       -2.3530273438,       -0.1562500000,        0.5439453125,       84.2742919922,      -57.9681396484,      224.6704101562
1494293823.6475141048,       -2.3530273438,       -0.1562500000,        0.5439453125,      108.8867187500,      -53.1463623047,      225.0823974609
1494293823.6500740051,       -2.3530273438,       -0.1562500000,        0.7626953125,      108.8867187500,      -53.1463623047,      225.0823974609
1494293823.6528000832,       -2.5175781250,        0.2314453125,        0.7626953125,      148.3459472656,      -41.1071777344,      226.6387939453
1494293823.6553690434,       -2.5175781250,        0.2314453125,        0.7626953125,      148.3459472656,      -41.1071777344,      226.6387939453
1494293823.6579248905,       -2.5175781250,        0.2314453125,        0.7626953125,      168.0908203125,      -31.0974121094,      233.8104248047
1494293823.6604859829,       -2.5175781250,        0.0971679688,        1.1166992188,      168.0908203125,      -31.0974121094,      233.8104248047
1494293823.6631879807,       -2.4130859375,        0.0971679688,        1.1166992188,      162.6281738281,      -22.3846435547,      240.9362792969
1494293823.6657478809,       -2.4130859375,        0.0971679688,        1.1166992188,      162.6281738281,      -22.3846435547,      240.9362792969
1494293823.6683111191,       -2.4130859375,        0.0971679688,        1.1166992188,      147.2015380859,      -18.9361572266,      250.0610351562
1494293823.6710400581,       -2.1630859375,        0.2636718750,        0.7319335938,      147.2015380859,      -18.9361572266,      250.0610351562
1494293823.6737399101,       -2.1718750000,        0.2636718750,        0.7319335938,      135.8489990234,      -21.7285156250,      260.1013183594
1494293823.6764440536,       -2.1718750000,        0.2636718750,        0.7319335938,      135.8489990234,      -21.7285156250,      260.1013183594
1494293823.6791450977,       -2.1718750000,        0.2636718750,        0.7319335938,      117.2332763672,      -14.8773193359,      249.1149902344
1494293823.6818079948,       -1.6347656250,        0.2861328125,        0.4287109375,      117.2332763672,      -14.8773193359,      249.1149902344
1494293823.6843659878,       -1.6347656250,        0.2861328125,        0.4287109375,       89.5080566406,       -7.9956054688,      218.3532714844
1494293823.6869208813,       -1.6347656250,        0.2861328125,        0.4287109375,       89.5080566406,       -7.9956054688,      218.3532714844
1494293823.6894779205,       -1.6347656250,        0.2861328125,        0.4287109375,       89.5080566406,      -20.6298828125,      192.9473876953
1494293823.6921639442,       -1.3740234375,       -0.0537109375,        0.3227539062,       56.4422607422,      -20.6298828125,      192.9473876953
1494293823.6948618889,       -1.3740234375,       -0.0537109375,        0.3227539062,       56.4422607422,      -13.3666992188,      149.9176025391
1494293823.6975629330,       -1.3740234375,       -0.0537109375,        0.3227539062,       19.2565917969,      -13.3666992188,      149.9176025391
1494293823.7002561092,       -1.3740234375,       -0.0537109375,        0.0727539062,       19.2565917969,       -5.0201416016,      103.0578613281
1494293823.7029640675,       -1.3227539062,       -0.7763671875,        0.0302734375,      -14.7399902344,       -5.0201416016,      103.0578613281
1494293823.7056570053,       -1.3227539062,       -0.7763671875,        0.0302734375,      -14.7399902344,       -8.1024169922,       72.8607177734
1494293823.7083489895,       -1.3227539062,       -0.7763671875,        0.0302734375,      -38.0859375000,       -8.1024169922,       72.8607177734
1494293823.7110569477,       -1.3227539062,       -0.6523437500,        0.0488281250,      -38.0859375000,      -12.0086669922,       53.1921386719
1494293823.7137548923,       -0.8867187500,       -0.6523437500,        0.0488281250,      -59.3109130859,      -13.7329101562,       53.1921386719
1494293823.7164549828,       -0.8867187500,       -0.6523437500,        0.0488281250,      -59.3109130859,      -21.5454101562,       32.9284667969
1494293823.7191600800,       -0.8867187500,       -0.6523437500,        0.0488281250,      -65.7806396484,      -20.5383300781,       32.9284667969
1494293823.7218220234,       -0.6098632812,       -0.3354492188,        0.0830078125,      -65.7806396484,      -20.5383300781,       11.4440917969
1494293823.7243900299,       -0.6098632812,       -0.3354492188,        0.0830078125,      -58.1512451172,      -24.3072509766,       11.4440917969
1494293823.7271530628,       -0.6098632812,       -0.3354492188,        0.0830078125,      -58.1512451172,      -24.3072509766,      -12.2070312500
1494293823.7297110558,       -0.6098632812,       -0.3354492188,        0.0830078125,      -47.3022460938,      -26.3977050781,      -12.2070312500
1494293823.7327868938,       -0.3999023438,       -0.1855468750,        0.0688476562,      -47.3022460938,      -30.3039550781,      -40.0543212891
1494293823.7354888916,       -0.3999023438,       -0.1855468750,        0.0688476562,      -37.2772216797,      -29.2358398438,      -40.0543212891
1494293823.7381899357,       -0.3999023438,       -0.1855468750,        0.0688476562,      -37.2772216797,      -29.2358398438,      -68.4204101562
1494293823.7409369946,       -0.3999023438,       -0.1855468750,        0.1250000000,      -31.0516357422,      -29.7698974609,      -68.4204101562
1494293823.7436320782,       -0.3510742188,       -0.2475585938,        0.1250000000,      -31.0516357422,      -29.7698974609,      -96.6033935547
1494293823.7463359833,       -0.3510742188,       -0.2475585938,        0.1250000000,      -29.8767089844,      -27.8472900391,      -96.6033935547
1494293823.7490398884,       -0.3510742188,       -0.2475585938,        0.1250000000,      -29.8767089844,      -23.9410400391,     -120.9564208984
1494293823.7517879009,       -0.4760742188,       -0.3076171875,        0.1210937500,      -34.3475341797,      -25.6042480469,     -120.9564208984
1494293823.7544870377,       -0.3803710938,       -0.3076171875,        0.1210937500,      -34.3475341797,      -24.4903564453,     -141.6931152344
1494293823.7574510574,       -0.3803710938,       -0.3076171875,        0.1210937500,      -40.1763916016,      -24.4903564453,     -141.6931152344
1494293823.7601590157,       -0.3803710938,       -0.3076171875,        0.1210937500,      -40.1763916016,      -25.1617431641,     -159.5458984375
1494293823.7627589703,       -0.4238281250,       -0.2851562500,        0.0717773438,      -45.7611083984,      -25.1617431641,     -159.5458984375
1494293823.7653119564,       -0.4238281250,       -0.2851562500,        0.0717773438,      -45.7611083984,      -25.1617431641,     -176.0253906250
1494293823.7678759098,       -0.4238281250,       -0.2851562500,        0.0717773438,      -50.4760742188,      -25.9552001953,     -176.0253906250
1494293823.7704360485,       -0.4238281250,       -0.2851562500,        0.0717773438,      -50.4760742188,      -25.9552001953,     -191.6503906250
1494293823.7730510235,       -0.4238281250,       -0.2534179688,        0.0058593750,      -53.1311035156,      -25.2990722656,     -193.1610107422
1494293823.7756080627,       -0.4238281250,       -0.2534179688,        0.0058593750,      -53.1311035156,      -25.2990722656,     -193.1610107422
1494293823.7781689167,       -0.4238281250,       -0.2534179688,        0.0058593750,      -55.1452636719,      -23.4985351562,     -208.7249755859
1494293823.7808079720,       -0.4238281250,       -0.2534179688,        0.0058593750,      -55.1452636719,      -23.4985351562,     -208.7249755859
1494293823.7833640575,       -0.4433593750,       -0.2558593750,       -0.0849609375,      -55.2673339844,      -21.6827392578,     -223.2666015625
1494293823.7859239578,       -0.4433593750,       -0.2558593750,       -0.0849609375,      -55.2673339844,      -21.6827392578,     -223.2666015625
1494293823.7884819508,       -0.4433593750,       -0.2558593750,       -0.0849609375,      -56.5795898438,      -20.4467773438,     -237.4725341797
1494293823.7911961079,       -0.4433593750,       -0.2558593750,       -0.2099609375,      -56.5795898438,      -20.4467773438,     -237.4725341797
1494293823.7939100266,       -0.4916992188,       -0.2602539062,       -0.1435546875,      -58.2275390625,      -18.7835693359,     -251.9683837891
1494293823.7966101170,       -0.4916992188,       -0.2602539062,       -0.1435546875,      -58.2275390625,      -18.7835693359,     -251.9683837891
1494293823.7993049622,       -0.4916992188,       -0.2602539062,       -0.1435546875,      -61.2945556641,      -17.1966552734,     -265.0299072266
1494293823.8021318913,       -0.6166992188,       -0.2402343750,       -0.1801757812,      -61.2945556641,      -17.1966552734,     -265.0299072266
1494293823.8048288822,       -0.5751953125,       -0.2402343750,       -0.1801757812,      -64.3920898438,      -15.9454345703,     -277.0690917969
1494293823.8075311184,       -0.5751953125,       -0.2402343750,       -0.1801757812,      -64.3920898438,      -15.9454345703,     -277.0690917969
1494293823.8102369308,       -0.5751953125,       -0.2402343750,       -0.1801757812,      -66.2994384766,      -13.8092041016,     -289.5965576172
1494293823.8128609657,       -0.6567382812,       -0.1816406250,       -0.1884765625,      -66.2994384766,      -13.8092041016,     -289.5965576172
1494293823.8154280186,       -0.6567382812,       -0.1816406250,       -0.1884765625,      -68.2830810547,      -12.7105712891,     -300.8117675781
1494293823.8179860115,       -0.6567382812,       -0.1816406250,       -0.1884765625,      -68.2830810547,      -12.7105712891,     -300.8117675781
1494293823.8205499649,       -0.6567382812,       -0.1816406250,       -0.1884765625,      -74.7070312500,      -12.4969482422,     -309.8754882812
1494293823.8232789040,       -0.7075195312,       -0.1206054688,       -0.1914062500,      -74.7070312500,      -12.4969482422,     -309.8754882812
1494293823.8259799480,       -0.7075195312,       -0.1206054688,       -0.1914062500,      -82.7484130859,      -11.0778808594,     -318.7713623047
1494293823.8286759853,       -0.7075195312,       -0.1206054688,       -0.1914062500,      -82.7484130859,      -11.0778808594,     -318.7713623047
1494293823.8313879967,       -0.7075195312,       -0.1206054688,       -0.1914062500,      -90.1641845703,       -9.0637207031,     -326.9958496094
1494293823.8340890408,       -0.8012695312,       -0.0175781250,       -0.1606445312,      -90.1641845703,       -9.0637207031,     -326.9958496094
1494293823.8367888927,       -0.8012695312,       -0.0175781250,       -0.1606445312,      -97.6867675781,       -5.5694580078,     -334.9151611328
1494293823.8394849300,       -0.8012695312,       -0.0175781250,       -0.1606445312,      -97.6867675781,       -5.5694580078,     -334.9151611328
1494293823.8421878815,       -0.8012695312,        0.0859375000,       -0.1269531250,     -105.4229736328,       -3.0975341797,     -343.0328369141
1494293823.8448839188,       -0.8720703125,        0.0859375000,       -0.1269531250,     -105.4229736328,       -3.0975341797,     -343.0328369141
1494293823.8476910591,       -0.8720703125,        0.0859375000,       -0.1269531250,     -110.3057861328,       -0.7171630859,     -351.0589599609
1494293823.8508450985,       -0.8720703125,        0.0859375000,       -0.1269531250,     -110.3057861328,       -0.7171630859,     -351.0589599609
1494293823.8535480499,       -0.9501953125,        0.1811523438,       -0.0839843750,     -112.3962402344,        1.1749267578,     -359.8022460938
1494293823.8562490940,       -0.9501953125,        0.1811523438,       -0.0839843750,     -112.3962402344,        1.1749267578,     -359.8022460938
1494293823.8589498997,       -0.9501953125,        0.1811523438,       -0.0839843750,     -111.4654541016,        3.6010742188,     -368.9270019531
1494293823.8616209030,       -0.9501953125,        0.1811523438,       -0.0839843750,     -111.4654541016,        3.6010742188,     -368.9270019531
1494293823.8641819954,       -1.0185546875,        0.2177734375,       -0.0292968750,     -111.3128662109,        5.9204101562,     -376.5716552734
1494293823.8667469025,       -1.0185546875,        0.2177734375,       -0.0292968750,     -111.3128662109,        5.9204101562,     -376.5716552734
1494293823.8693029881,       -1.0185546875,        0.2177734375,       -0.0292968750,     -111.3128662109,        7.4615478516,     -382.8277587891
1494293823.8719780445,       -1.0185546875,        0.2177734375,        0.0126953125,     -111.9232177734,        7.4615478516,     -382.8277587891
1494293823.8747789860,       -1.0952148438,        0.2246093750,        0.0126953125,     -113.1286621094,        9.0026855469,     -388.3819580078
1494293823.8774778843,       -1.0952148438,        0.2246093750,        0.0126953125,     -113.1286621094,        9.0026855469,     -388.3819580078
1494293823.8801779747,       -1.0952148438,        0.2246093750,        0.0126953125,     -117.0349121094,       10.2844238281,     -393.1732177734
1494293823.8827629089,       -1.0952148438,        0.2119140625,        0.0644531250,     -115.0360107422,       10.2844238281,     -393.1732177734
1494293823.8853220940,       -1.1889648438,        0.2119140625,        0.0644531250,     -115.0360107422,       14.1906738281,     -396.8811035156
1494293823.8878819942,       -1.1889648438,        0.2119140625,        0.0644531250,     -117.5689697266,       12.4206542969,     -396.8811035156
1494293823.8904368877,       -1.1889648438,        0.2119140625,        0.0644531250,     -117.5689697266,       12.4206542969,     -400.0701904297
1494293823.8930490017,       -1.3139648438,        0.2236328125,        0.1083984375,     -118.0419921875,       14.4805908203,     -400.0701904297
1494293823.8956029415,       -1.2685546875,        0.2236328125,        0.1083984375,     -118.0419921875,       14.4805908203,     -400.0701904297
1494293823.8981630802,       -1.2685546875,        0.2236328125,        0.1083984375,     -119.4152832031,       17.1051025391,     -401.9927978516
1494293823.9008049965,       -1.2685546875,        0.2236328125,        0.1083984375,     -119.4152832031,       17.1051025391,     -401.9927978516
1494293823.9033699036,       -1.3754882812,        0.2387695312,        0.1411132812,     -122.4975585938,       20.1416015625,     -403.9916992188
1494293823.9059278965,       -1.3754882812,        0.2387695312,        0.1411132812,     -122.4975585938,       20.1416015625,     -403.9916992188
1494293823.9084858894,       -1.3754882812,        0.2387695312,        0.1411132812,     -126.8615722656,       23.8342285156,     -405.7312011719
1494293823.9112329483,       -1.3754882812,        0.2387695312,        0.1411132812,     -126.8615722656,       23.8342285156,     -405.7312011719
1494293823.9138040543,       -1.5126953125,        0.2939453125,        0.1787109375,     -135.5285644531,       25.3601074219,     -407.3028564453
1494293823.9163589478,       -1.5126953125,        0.2939453125,        0.1787109375,     -135.5285644531,       25.3601074219,     -407.3028564453
1494293823.9189178944,       -1.5126953125,        0.2939453125,        0.1787109375,     -147.5372314453,       26.5960693359,     -407.7453613281
1494293823.9215729237,       -1.5126953125,        0.2939453125,        0.1787109375,     -147.5372314453,       26.5960693359,     -407.7453613281
1494293823.9242711067,       -1.6430664062,        0.4863281250,        0.2758789062,     -162.7197265625,       25.8483886719,     -406.5704345703
1494293823.9269659519,       -1.6430664062,        0.4863281250,        0.2758789062,     -162.7197265625,       25.8483886719,     -406.5704345703
1494293823.9296679497,       -1.6430664062,        0.4863281250,        0.2758789062,     -168.6859130859,       26.4587402344,     -406.1584472656
1494293823.9323790073,       -1.6430664062,        0.4863281250,        0.1508789062,     -168.6859130859,       26.4587402344,     -406.1584472656
1494293823.9350891113,       -1.7177734375,        0.9687500000,        0.2265625000,     -161.9873046875,       27.7862548828,     -406.9213867188
1494293823.9377861023,       -1.7177734375,        0.9687500000,        0.2265625000,     -161.9873046875,       27.7862548828,     -406.9213867188
1494293823.9404859543,       -1.7177734375,        0.9687500000,        0.2265625000,     -152.0843505859,       27.3437500000,     -407.0434570312
1494293823.9432029724,       -1.7177734375,        1.2543945312,        0.2714843750,     -152.0843505859,       27.3437500000,     -407.0434570312
1494293823.9459030628,       -1.9101562500,        1.2543945312,        0.2714843750,     -150.7110595703,       26.7944335938,     -403.5186767578
1494293823.9487140179,       -1.9101562500,        1.2543945312,        0.2714843750,     -150.7110595703,       26.7944335938,     -403.5186767578
1494293823.9514369965,       -1.9101562500,        1.2543945312,        0.2714843750,     -156.4025878906,       30.4565429688,     -393.8446044922
1494293823.9541320801,       -2.1777343750,        1.3315429688,        0.3491210938,     -156.4025878906,       30.4565429688,     -393.8446044922
1494293823.9568440914,       -2.1777343750,        1.3315429688,        0.3491210938,     -158.5388183594,       37.8723144531,     -379.6844482422
1494293823.9595370293,       -2.1777343750,        1.3315429688,        0.3491210938,     -158.5388183594,       37.8723144531,     -379.6844482422
1494293823.9621679783,       -2.1777343750,        1.3315429688,        0.3491210938,     -151.7028808594,       45.3338623047,     -359.2681884766
1494293823.9647250175,       -2.3105468750,        1.4423828125,        0.4189453125,     -151.7028808594,       45.3338623047,     -359.2681884766
1494293823.9675021172,       -2.3105468750,        1.4423828125,        0.4189453125,     -144.9127197266,       57.9681396484,     -337.4481201172
1494293823.9700729847,       -2.3105468750,        1.4423828125,        0.4189453125,     -144.9127197266,       57.9681396484,     -337.4481201172
1494293823.9731829166,       -2.3105468750,        1.5673828125,        0.4980468750,     -146.2707519531,       71.3195800781,     -313.4460449219
1494293823.9758839607,       -1.9741210938,        1.6010742188,        0.4980468750,     -146.2707519531,       71.3195800781,     -313.4460449219
1494293823.9785931110,       -1.9741210938,        1.6010742188,        0.4980468750,     -153.4729003906,       77.7282714844,     -283.4625244141
1494293823.9812910557,       -1.9741210938,        1.6010742188,        0.4980468750,     -153.4729003906,       77.7282714844,     -283.4625244141
1494293823.9839909077,       -1.3193359375,        1.9628906250,        0.8701171875,     -159.5306396484,       73.3947753906,     -249.4812011719
1494293823.9866909981,       -1.3193359375,        1.9628906250,        0.8701171875,     -159.5306396484,       73.3947753906,     -249.4812011719
1494293823.9893910885,       -1.3193359375,        1.9628906250,        0.8701171875,     -156.8298339844,       62.6068115234,     -217.4377441406
1494293823.9920940399,       -1.3193359375,        1.9628906250,        0.8701171875,     -156.8298339844,       62.6068115234,     -217.4377441406
1494293823.9947888851,       -0.7231445312,        2.6259765625,        1.3203125000,     -139.7552490234,       47.2717285156,     -190.9790039062
1494293823.9974861145,       -0.7231445312,        2.6259765625,        1.3203125000,     -139.7552490234,       47.2717285156,     -190.9790039062
1494293824.0001840591,       -0.7231445312,        2.6259765625,        1.3203125000,     -105.1025390625,       26.4282226562,     -166.1071777344
1494293824.0027649403,       -0.7231445312,        2.6259765625,        1.3203125000,     -105.1025390625,       26.4282226562,     -166.1071777344
1494293824.0053150654,       -0.1630859375,        3.1020507812,        1.1484375000,      -50.4150390625,        0.4425048828,     -136.8255615234
1494293824.0078780651,       -0.1630859375,        3.1020507812,        1.1484375000,      -49.4689941406,        0.4425048828,     -136.8255615234
1494293824.0104329586,       -0.1630859375,        3.1020507812,        1.1484375000,      -49.4689941406,      -30.8074951172,     -102.4932861328
1494293824.0130441189,       -0.1630859375,        3.1020507812,        1.1484375000,        4.6844482422,      -27.8930664062,     -102.4932861328
1494293824.0156049728,       -0.0244140625,        3.1772460938,        0.6572265625,        4.6844482422,      -27.8930664062,      -66.3299560547
1494293824.0181610584,       -0.0244140625,        3.1772460938,        0.6572265625,       47.8363037109,      -52.1087646484,      -66.3299560547
1494293824.0208098888,       -0.0244140625,        3.1772460938,        0.6572265625,       47.8363037109,      -52.1087646484,      -38.9862060547
1494293824.0234870911,       -0.0244140625,        3.1772460938,        0.3105468750,       81.6192626953,      -62.6983642578,      -35.5072021484
1494293824.0260469913,       -0.5302734375,        2.6357421875,        0.3105468750,       81.6192626953,      -62.6983642578,      -35.5072021484
1494293824.0286090374,       -0.5302734375,        2.6357421875,        0.3105468750,       93.4600830078,      -56.7474365234,       -2.4261474609
1494293824.0312941074,       -0.5302734375,        2.6357421875,        0.3105468750,       93.4600830078,      -56.7474365234,       -2.4261474609
1494293824.0339949131,       -0.5302734375,        2.2456054688,        0.2290039062,       83.8775634766,      -42.9229736328,       42.4041748047
1494293824.0366890430,       -0.7617187500,        2.2456054688,        0.2290039062,       83.8775634766,      -42.9229736328,       42.4041748047
1494293824.0393850803,       -0.7617187500,        2.2456054688,        0.2290039062,       60.6842041016,      -29.0679931641,       92.4377441406
1494293824.0420920849,       -0.7617187500,        2.2456054688,        0.2290039062,       60.6842041016,      -29.0679931641,       92.4377441406
1494293824.0447950363,       -0.7626953125,        2.0869140625,        0.2661132812,       34.9426269531,      -16.4337158203,      137.2528076172
1494293824.0474939346,       -0.7626953125,        2.0869140625,        0.2661132812,       34.9426269531,      -16.4337158203,      137.2528076172
1494293824.0502009392,       -0.7626953125,        2.0869140625,        0.2661132812,        4.3945312500,       -5.9051513672,      175.2319335938
1494293824.0527839661,       -0.7626953125,        2.0869140625,        0.2661132812,        4.3945312500,       -5.9051513672,      175.2319335938
1494293824.0553328991,       -0.7153320312,        1.8847656250,        0.1625976562,      -30.7312011719,        0.1525878906,      210.9375000000
1494293824.0578899384,       -0.7153320312,        1.8847656250,        0.1625976562,      -30.7312011719,        0.1525878906,      210.9375000000
1494293824.0604441166,       -0.7153320312,        1.8847656250,        0.1625976562,      -67.5201416016,        0.5035400391,      242.4926757812
1494293824.0631730556,       -0.7153320312,        1.8847656250,        0.1625976562,      -67.5201416016,        0.5035400391,      242.4926757812
1494293824.0658531189,       -0.7602539062,        1.4628906250,        0.1372070312,      -97.7935791016,       -3.7841796875,      259.5367431641
1494293824.0685300827,       -0.7602539062,        1.4628906250,        0.1372070312,      -97.7935791016,       -3.7841796875,      259.5367431641
1494293824.0712320805,       -0.7602539062,        1.4628906250,        0.1372070312,     -129.2572021484,      -16.0522460938,      240.8905029297
1494293824.0739169121,       -0.7602539062,        1.4628906250,        0.3046875000,     -129.2572021484,      -16.0522460938,      240.8905029297
1494293824.0766038895,       -0.9228515625,       -0.2041015625,        0.3046875000,     -157.7911376953,       -2.8076171875,      229.3243408203
1494293824.0792849064,       -0.9228515625,       -0.2041015625,        0.3046875000,     -157.7911376953,       -2.8076171875,      229.3243408203
1494293824.0819790363,       -0.9228515625,       -0.2041015625,        0.3046875000,     -158.6914062500,       25.7415771484,      190.9027099609
1494293824.0846691132,       -1.9228515625,       -2.9052734375,       -0.4443359375,     -158.6914062500,       25.7415771484,      190.9027099609
1494293824.0874810219,       -1.9472656250,       -2.9052734375,       -0.4443359375,     -172.2412109375,       45.2270507812,      146.2402343750
1494293824.0901780128,       -1.9472656250,       -2.9052734375,       -0.4443359375,     -172.2412109375,       45.2270507812,      146.2402343750
1494293824.0930318832,       -1.9472656250,       -2.9052734375,       -0.4443359375,     -165.9240722656,       35.4309082031,      153.6102294922
1494293824.0958199501,       -2.3598632812,       -1.5864257812,       -0.6855468750,     -165.9240722656,       35.4309082031,      153.6102294922
1494293824.0985100269,       -2.3598632812,       -1.5864257812,       -0.6855468750,     -186.5692138672,       -0.4119873047,      237.8540039062
1494293824.1011888981,       -2.3598632812,       -1.5864257812,       -0.6855468750,     -186.5692138672,       -0.4119873047,      237.8540039062
1494293824.1037819386,       -2.3598632812,       -1.5864257812,       -0.6855468750,     -260.7116699219,      -42.6940917969,      361.4044189453
1494293824.1063449383,       -2.7724609375,        3.6484375000,        0.1118164062,     -260.7116699219,      -42.6940917969,      361.4044189453
1494293824.1089060307,       -2.7724609375,        3.6484375000,        0.1118164062,     -285.2478027344,      -51.1169433594,      396.0418701172
1494293824.1116139889,       -2.7724609375,        3.6484375000,        0.1118164062,     -285.2478027344,      -51.1169433594,      396.0418701172
1494293824.1143169403,       -2.7724609375,        3.6484375000,        1.3603515625,     -179.3975830078,      -23.9105224609,      315.0177001953
1494293824.1170110703,       -1.0190429688,        3.4165039062,        1.3603515625,     -179.3975830078,      -23.9105224609,      315.0177001953
1494293824.1197090149,       -1.0190429688,        3.4165039062,        1.3603515625,      -10.6048583984,      -25.8789062500,      248.6419677734
1494293824.1223349571,       -1.0190429688,        3.4165039062,        1.3603515625,      -10.6048583984,      -25.8789062500,      248.6419677734
1494293824.1248939037,       -1.0190429688,        0.8505859375,       -0.1372070312,      -10.6048583984,      -46.6003417969,      221.3134765625
1494293824.1274590492,       -0.8740234375,        0.8505859375,       -0.1372070312,       97.8393554688,      -46.6003417969,      221.3134765625
1494293824.1300139427,       -0.8740234375,        0.8505859375,       -0.1372070312,       97.8393554688,      -46.6003417969,      221.3592529297
1494293824.1325860023,       -0.8740234375,        0.8505859375,       -0.1372070312,      108.7341308594,      -63.4918212891,      221.3592529297
1494293824.1351480484,       -0.3740234375,        0.2827148438,       -0.4711914062,      108.7341308594,      -63.4918212891,      217.4530029297
1494293824.1377060413,       -0.3725585938,        0.2827148438,       -0.4711914062,       68.4509277344,      -72.2656250000,      217.8344726562
1494293824.1402709484,       -0.3725585938,        0.2827148438,       -0.4711914062,       68.4509277344,      -72.2656250000,      217.8344726562
1494293824.1429860592,       -0.3725585938,        0.2827148438,       -0.4711914062,       40.7562255859,      -71.2127685547,      201.9653320312
1494293824.1455390453,       -0.4384765625,        1.1723632812,        0.3608398438,       40.7562255859,      -71.2127685547,      201.9653320312
1494293824.1480979919,       -0.4384765625,        1.1723632812,        0.3608398438,       38.3911132812,      -65.8416748047,      183.7921142578
1494293824.1507890224,       -0.4384765625,        1.1723632812,        0.3608398438,       38.3911132812,      -65.8416748047,      183.7921142578
1494293824.1534929276,       -0.4384765625,        1.1723632812,        0.3608398438,       54.1381835938,      -66.4062500000,      167.6177978516
1494293824.1561920643,       -0.6948242188,        1.1674804688,        0.4794921875,       54.1381835938,      -66.4062500000,      167.6177978516
1494293824.1588869095,       -0.6948242188,        1.1674804688,        0.4794921875,       77.4841308594,      -72.0214843750,      152.7252197266
1494293824.1616001129,       -0.6948242188,        1.1674804688,        0.4794921875,       77.4841308594,      -72.0214843750,      152.7252197266
1494293824.1642959118,       -0.6948242188,        1.1674804688,        0.4794921875,      100.9521484375,      -72.3419189453,      142.6696777344
1494293824.1669979095,       -0.7646484375,        0.8911132812,        0.0913085938,      100.9521484375,      -72.3419189453,      142.6696777344
1494293824.1698179245,       -0.7646484375,        0.8911132812,        0.0913085938,      106.7199707031,      -68.5882568359,      139.3127441406
1494293824.1725590229,       -0.7646484375,        0.8911132812,        0.0913085938,      106.7199707031,      -68.5882568359,      139.3127441406
1494293824.1752610207,       -0.7646484375,        0.6411132812,       -0.0009765625,       88.3789062500,      -64.7888183594,      132.7972412109
1494293824.1779670715,       -0.7612304688,        0.6411132812,       -0.0009765625,       88.3789062500,      -64.7888183594,      132.7972412109
1494293824.1806790829,       -0.7612304688,        0.6411132812,       -0.0009765625,       66.2689208984,      -60.8673095703,      122.3144531250
1494293824.1832420826,       -0.7612304688,        0.6411132812,       -0.0009765625,       66.2689208984,      -60.8673095703,      122.3144531250
1494293824.1857969761,       -0.6445312500,        0.6357421875,        0.0541992188,       58.7158203125,      -56.3507080078,      112.1215820312
1494293824.1883521080,       -0.6445312500,        0.6357421875,        0.0541992188,       58.7158203125,      -56.3507080078,      112.1215820312
1494293824.1909689903,       -0.6445312500,        0.6357421875,        0.0541992188,       54.9926757812,      -54.4891357422,      101.7761230469
1494293824.1936669350,       -0.6445312500,        0.6357421875,        0.0541992188,       54.9926757812,      -54.4891357422,      101.7761230469
1494293824.1963710785,       -0.7197265625,        0.6010742188,        0.1474609375,       43.1060791016,      -53.9855957031,       92.5598144531
1494293824.1990671158,       -0.7197265625,        0.6010742188,        0.1474609375,       43.1060791016,      -53.9855957031,       92.5598144531
1494293824.2017750740,       -0.7197265625,        0.6010742188,        0.1474609375,       26.5350341797,      -51.2695312500,       83.3587646484
1494293824.2044799328,       -0.7197265625,        0.6010742188,        0.1474609375,       26.5350341797,      -51.2695312500,       83.3587646484
1494293824.2072370052,       -0.8095703125,        0.3852539062,        0.2202148438,       11.2609863281,      -45.9899902344,       75.1800537109
1494293824.2099339962,       -0.8095703125,        0.3852539062,        0.2202148438,       11.2609863281,      -45.9899902344,       75.1800537109
1494293824.2129631042,       -0.8095703125,        0.3852539062,        0.2202148438,        4.5928955078,      -40.6188964844,       69.9157714844
1494293824.2156679630,       -0.8095703125,        0.3959960938,        0.1254882812,        4.5928955078,      -40.6188964844,       69.9157714844
1494293824.2183670998,       -0.7167968750,        0.3959960938,        0.1254882812,        4.8675537109,      -38.1317138672,       65.4754638672
1494293824.2210640907,       -0.7167968750,        0.3959960938,        0.1254882812,        4.8675537109,      -38.1317138672,       65.4754638672
1494293824.2237710953,       -0.7167968750,        0.3959960938,        0.1254882812,        7.1868896484,      -34.4696044922,       58.5021972656
1494293824.2264680862,       -0.7338867188,        0.4340820312,        0.1665039062,        7.1868896484,      -34.4696044922,       58.5021972656
1494293824.2291669846,       -0.7338867188,        0.4340820312,        0.1665039062,        9.5214843750,      -29.6783447266,       50.9033203125
1494293824.2318260670,       -0.7338867188,        0.4340820312,        0.1665039062,        9.5214843750,      -29.6783447266,       50.9033203125
1494293824.2343869209,       -0.7338867188,        0.4340820312,        0.1665039062,       12.7410888672,      -25.8789062500,       44.0979003906
1494293824.2369399071,       -0.7226562500,        0.3911132812,        0.1660156250,       12.7410888672,      -25.8789062500,       44.0979003906
1494293824.2395069599,       -0.7226562500,        0.3911132812,        0.1660156250,       18.2647705078,      -23.7274169922,       38.6199951172
1494293824.2421109676,       -0.7226562500,        0.3911132812,        0.1660156250,       18.2647705078,      -23.7274169922,       38.6199951172
1494293824.2447841167,       -0.7226562500,        0.3911132812,        0.1660156250,       22.1710205078,      -21.6827392578,       33.7677001953
1494293824.2473430634,       -0.7036132812,        0.3505859375,        0.1489257812,       22.1405029297,      -21.6827392578,       33.7677001953
1494293824.2498989105,       -0.7036132812,        0.3505859375,        0.1489257812,       22.1405029297,      -21.6827392578,       29.3579101562
1494293824.2525238991,       -0.7036132812,        0.3505859375,        0.1489257812,       25.1159667969,      -19.7601318359,       29.3579101562
1494293824.2550830841,       -0.7036132812,        0.3505859375,        0.1489257812,       25.1159667969,      -19.7601318359,       26.0925292969
1494293824.2576410770,       -0.7338867188,        0.2543945312,        0.1679687500,       28.8848876953,      -17.6239013672,       26.0925292969
1494293824.2602090836,       -0.7338867188,        0.2543945312,        0.1679687500,       28.8848876953,      -17.6239013672,       22.1862792969
1494293824.2628860474,       -0.7338867188,        0.2543945312,        0.1679687500,       33.1878662109,      -15.5487060547,       23.0712890625
1494293824.2654500008,       -0.7338867188,        0.2543945312,        0.1679687500,       33.1878662109,      -15.5487060547,       23.0712890625
1494293824.2680060863,       -0.7548828125,        0.1679687500,        0.2280273438,       37.9180908203,      -14.1143798828,       19.8822021484
1494293824.2705669403,       -0.7548828125,        0.1679687500,        0.2280273438,       37.9180908203,      -14.1143798828,       19.8822021484
1494293824.2733459473,       -0.7548828125,        0.1679687500,        0.2280273438,       42.4957275391,      -13.0157470703,       17.3950195312
1494293824.2760488987,       -0.7548828125,        0.0429687500,        0.2895507812,       42.4957275391,      -13.0157470703,       17.3950195312
1494293824.2787458897,       -0.7480468750,        0.0849609375,        0.2895507812,       48.6297607422,      -12.8326416016,       15.1214599609
1494293824.2814340591,       -0.7480468750,        0.0849609375,        0.2895507812,       48.6297607422,      -12.8326416016,       15.1214599609
1494293824.2839899063,       -0.7480468750,        0.0849609375,        0.2895507812,       54.9316406250,      -12.6037597656,       12.2528076172
1494293824.2865469456,       -0.8730468750,       -0.0317382812,        0.2402343750,       54.9316406250,      -12.6037597656,       12.2528076172
1494293824.2890980244,       -0.8134765625,       -0.0317382812,        0.2402343750,       58.1054687500,      -12.2833251953,       11.2609863281
1494293824.2917590141,       -0.8134765625,       -0.0317382812,        0.2402343750,       58.1054687500,      -12.2833251953,       11.2609863281
1494293824.2944610119,       -0.8134765625,       -0.0317382812,        0.2402343750,       59.4635009766,      -11.8408203125,       10.8947753906
1494293824.2971539497,       -0.8710937500,       -0.0141601562,        0.1503906250,       59.4635009766,      -11.8408203125,       10.8947753906
1494293824.2998549938,       -0.8710937500,       -0.0141601562,        0.1503906250,       57.8918457031,      -10.7269287109,       12.5274658203
1494293824.3024730682,       -0.8710937500,       -0.0141601562,        0.1503906250,       57.8918457031,      -10.7269287109,       12.5274658203
1494293824.3050320148,       -0.8710937500,       -0.0141601562,        0.1503906250,       51.3610839844,       -9.4909667969,       15.3656005859
1494293824.3075909615,       -0.8706054688,        0.0468750000,        0.0625000000,       51.3610839844,       -9.4909667969,       15.3656005859
1494293824.3101470470,       -0.8706054688,        0.0468750000,        0.0625000000,       40.7714843750,       -8.2092285156,       18.5699462891
1494293824.3128049374,       -0.8706054688,        0.0468750000,        0.0625000000,       40.7714843750,       -8.2092285156,       18.5699462891
1494293824.3154709339,       -0.8706054688,        0.0468750000,        0.0625000000,       29.0527343750,       -6.5002441406,       23.0560302734
1494293824.3180320263,       -0.8105468750,        0.0615234375,        0.0649414062,       28.8696289062,       -6.5002441406,       23.0560302734
1494293824.3205909729,       -0.8105468750,        0.0615234375,        0.0649414062,       28.8696289062,       -6.5002441406,       27.9846191406
1494293824.3232560158,       -0.8105468750,        0.0615234375,        0.0649414062,       19.8516845703,       -4.6234130859,       27.9846191406
1494293824.3258121014,       -0.8105468750,        0.0615234375,        0.1899414062,       19.8516845703,       -4.6234130859,       31.7687988281
1494293824.3285520077,       -0.7885742188,        0.1621093750,        0.1284179688,       14.4805908203,       -3.6926269531,       31.7687988281
1494293824.3315639496,       -0.7885742188,        0.1621093750,        0.1284179688,       14.4805908203,       -3.6926269531,       34.3933105469
1494293824.3342609406,       -0.7885742188,        0.1621093750,        0.1284179688,       13.9465332031,       -2.7465820312,       34.3933105469
1494293824.3369550705,       -0.7885742188,        0.3208007812,        0.1713867188,       13.9465332031,       -6.6528320312,       34.6984863281
1494293824.3396430016,       -0.7836914062,        0.3208007812,        0.1713867188,       17.9138183594,       -3.9825439453,       34.6984863281
1494293824.3423590660,       -0.7836914062,        0.3208007812,        0.1713867188,       17.9138183594,       -7.8887939453,       33.7371826172
1494293824.3450560570,       -0.7836914062,        0.3208007812,        0.1713867188,       26.8249511719,       -7.9040527344,       33.7371826172
1494293824.3477549553,       -0.7656250000,        0.3608398438,        0.1752929688,       26.8249511719,      -11.8103027344,       32.5622558594
1494293824.3504590988,       -0.7656250000,        0.3608398438,        0.1752929688,       38.0401611328,      -13.2751464844,       32.5622558594
1494293824.3531680107,       -0.7656250000,        0.3608398438,        0.1752929688,       38.0401611328,      -21.0876464844,       31.1889648438
1494293824.3558659554,       -0.7656250000,        0.3608398438,        0.1752929688,       49.9267578125,      -20.7366943359,       31.1889648438
1494293824.3585751057,       -0.7392578125,        0.3393554688,        0.1933593750,       49.9267578125,      -20.7366943359,       29.5715332031
1494293824.3612511158,       -0.7392578125,        0.3393554688,        0.1933593750,       62.6220703125,      -27.2521972656,       29.5715332031
1494293824.3638150692,       -0.7392578125,        0.3393554688,        0.1933593750,       62.6220703125,      -27.2521972656,       29.5715332031
1494293824.3663749695,       -0.7392578125,        0.3393554688,        0.0683593750,       75.1495361328,      -32.5927734375,       28.8238525391
1494293824.3689351082,       -0.7226562500,        0.2705078125,        0.1137695312,       75.1495361328,      -32.5927734375,       28.8238525391
1494293824.3715460300,       -0.7226562500,        0.2705078125,        0.1137695312,       84.8999023438,      -35.9649658203,       29.6630859375
1494293824.3741109371,       -0.7226562500,        0.2705078125,        0.1137695312,       84.8999023438,      -35.9649658203,       29.6630859375
1494293824.3766698837,       -0.7226562500,        0.2705078125,        0.0048828125,       89.2181396484,      -37.2772216797,       31.8908691406
1494293824.3792340755,       -0.7373046875,        0.1357421875,        0.0048828125,       89.2181396484,      -37.2772216797,       31.8908691406
1494293824.3818991184,       -0.7373046875,        0.1357421875,        0.0048828125,       90.2404785156,      -35.0952148438,       35.8734130859
1494293824.3844659328,       -0.7373046875,        0.1357421875,        0.0048828125,       90.2404785156,      -35.0952148438,       35.8734130859
1494293824.3870260715,       -0.7373046875,        0.0107421875,        0.0039062500,       85.5865478516,      -30.6243896484,       41.7633056641
1494293824.3896958828,       -0.7299804688,        0.0664062500,        0.0039062500,       85.5865478516,      -30.6243896484,       41.7633056641
1494293824.3924949169,       -0.7299804688,        0.0664062500,        0.0039062500,       76.4160156250,      -25.8483886719,       51.1627197266
1494293824.3951940536,       -0.7299804688,        0.0664062500,        0.0039062500,       76.4160156250,      -25.8483886719,       51.1627197266
1494293824.3978910446,       -0.6967773438,        0.0468750000,        0.0229492188,       65.7196044922,      -20.5688476562,       61.8133544922
1494293824.4005980492,       -0.6967773438,        0.0468750000,        0.0229492188,       65.7196044922,      -20.5688476562,       61.8133544922
1494293824.4033010006,       -0.6967773438,        0.0468750000,        0.0229492188,       55.4199218750,      -15.8233642578,       71.0754394531
1494293824.4060020447,       -0.6967773438,        0.0468750000,        0.0229492188,       55.4199218750,      -15.8233642578,       71.0754394531
1494293824.4087009430,       -0.6450195312,        0.0083007812,        0.0219726562,       45.3186035156,      -12.8784179688,       78.8269042969
1494293824.4114120007,       -0.6450195312,        0.0083007812,        0.0219726562,       45.3186035156,      -12.8784179688,       78.8269042969
1494293824.4141139984,       -0.6450195312,        0.0083007812,        0.0219726562,       37.8417968750,      -12.7716064453,       86.0595703125
1494293824.4168090820,       -0.6450195312,        0.0083007812,        0.0219726562,       37.8417968750,      -12.7716064453,       86.0595703125
1494293824.4195129871,       -0.6674804688,        0.1796875000,        0.0869140625,       33.8745117188,      -12.3596191406,       92.1325683594
1494293824.4221580029,       -0.6674804688,        0.1796875000,        0.0869140625,       33.8745117188,      -12.3596191406,       92.1325683594
1494293824.4247179031,       -0.6674804688,        0.1796875000,        0.0869140625,       35.1715087891,      -11.8865966797,       96.4508056641
1494293824.4272871017,       -0.6674804688,        0.4296875000,        0.1464843750,       35.1715087891,      -11.8865966797,       96.4508056641
1494293824.4298501015,       -0.7558593750,        0.3764648438,        0.1464843750,       39.0777587891,      -10.1928710938,       98.9990234375
1494293824.4325749874,       -0.7558593750,        0.3764648438,        0.1464843750,       39.4592285156,      -10.1928710938,       98.9990234375
1494293824.4352850914,       -0.7558593750,        0.3764648438,        0.1464843750,       43.3654785156,       -7.4920654297,      101.7608642578
1494293824.4379830360,       -0.8710937500,        0.2817382812,        0.1777343750,       44.4641113281,       -7.4920654297,      101.7608642578
1494293824.4406940937,       -0.8710937500,        0.2817382812,        0.1777343750,       48.3703613281,       -3.8452148438,      105.6518554688
1494293824.4433970451,       -0.8710937500,        0.2817382812,        0.1777343750,       48.2940673828,       -3.8452148438,      105.6518554688
1494293824.4460930824,       -0.8710937500,        0.2817382812,        0.1777343750,       51.7883300781,        0.1678466797,      110.8093261719
1494293824.4489789009,       -0.9433593750,        0.1284179688,        0.2617187500,       51.7883300781,        0.1678466797,      110.8093261719
1494293824.4519989491,       -0.9433593750,        0.1284179688,        0.2617187500,       53.4057617188,        3.1127929688,      115.9210205078
1494293824.4546990395,       -0.9433593750,        0.1284179688,        0.2617187500,       53.4057617188,        3.1127929688,      115.9210205078
1494293824.4573988914,       -0.9433593750,        0.1284179688,        0.3500976562,       52.7954101562,        4.1656494141,      121.9482421875
1494293824.4600889683,       -0.9550781250,        0.1025390625,        0.3500976562,       52.7954101562,        4.1656494141,      121.9482421875
1494293824.4628040791,       -0.9550781250,        0.1025390625,        0.3500976562,       53.0090332031,        4.1809082031,      128.0822753906
1494293824.4656078815,       -0.9550781250,        0.1025390625,        0.3500976562,       53.0090332031,        4.1809082031,      128.0822753906
1494293824.4682979584,       -0.9560546875,        0.1684570312,        0.3540039062,       54.7027587891,        3.7078857422,      133.2550048828
1494293824.4709980488,       -0.9560546875,        0.1684570312,        0.3540039062,       54.7027587891,        3.7078857422,      133.2550048828
1494293824.4735560417,       -0.9560546875,        0.1684570312,        0.3540039062,       59.6160888672,        1.9989013672,      137.2528076172
1494293824.4761059284,       -0.9560546875,        0.1684570312,        0.3540039062,       59.6160888672,        1.9989013672,      137.2528076172
1494293824.4786660671,       -0.9594726562,        0.2441406250,        0.2480468750,       59.6160888672,       -0.0762939453,      139.9993896484
1494293824.4812281132,       -0.9594726562,        0.2441406250,        0.2480468750,       65.3533935547,       -0.0762939453,      139.9993896484
1494293824.4837880135,       -0.9594726562,        0.2441406250,        0.2480468750,       65.3533935547,       -0.0762939453,      141.3116455078
1494293824.4863390923,       -0.9594726562,        0.2441406250,        0.2480468750,       69.9615478516,       -1.8157958984,      141.3116455078
1494293824.4888920784,       -1.1870117188,        0.2631835938,        0.0634765625,       69.9615478516,       -1.8157958984,      141.3116455078
1494293824.4914560318,       -1.1870117188,        0.2631835938,        0.0634765625,       71.2585449219,       -2.5787353516,      144.1650390625
1494293824.4940109253,       -1.1870117188,        0.2631835938,        0.0634765625,       71.2585449219,       -2.5787353516,      144.1650390625
1494293824.4965651035,       -1.1870117188,        0.2631835938,        0.0634765625,       71.9299316406,       -1.7395019531,      148.3612060547
1494293824.4991269112,       -1.4033203125,        0.1718750000,       -0.1049804688,       71.9299316406,       -1.7395019531,      148.3612060547
1494293824.5018401146,       -1.4033203125,        0.1718750000,       -0.1049804688,       72.6013183594,       -0.4272460938,      152.8625488281
1494293824.5044009686,       -1.4033203125,        0.1718750000,       -0.1049804688,       72.6013183594,       -0.4272460938,      152.8625488281
1494293824.5069570541,       -1.4033203125,        0.1718750000,       -0.1049804688,       72.5097656250,        1.1901855469,      158.9050292969
1494293824.5095129013,       -1.5092773438,        0.0791015625,       -0.1127929688,       72.5097656250,        1.1901855469,      158.9050292969
1494293824.5122919083,       -1.5092773438,        0.0791015625,       -0.1127929688,       71.4111328125,        3.0517578125,      164.4287109375
1494293824.5149869919,       -1.5092773438,        0.0791015625,       -0.1127929688,       71.4111328125,        3.0517578125,      164.4287109375
1494293824.5176749229,       -1.5092773438,        0.0791015625,       -0.1127929688,       70.5566406250,        5.1574707031,      169.4641113281
1494293824.5203750134,       -1.6020507812,       -0.0766601562,       -0.0073242188,       70.5566406250,        5.1574707031,      169.4641113281
1494293824.5229549408,       -1.6020507812,       -0.0766601562,       -0.0073242188,       70.3735351562,        5.9509277344,      174.6063232422
1494293824.5255160332,       -1.6020507812,       -0.0766601562,       -0.0073242188,       70.3735351562,        5.9509277344,      174.6063232422
1494293824.5280640125,       -1.6020507812,       -0.0766601562,        0.1689453125,       71.5179443359,        5.1727294922,      179.8706054688
1494293824.5306160450,       -1.6225585938,       -0.1733398438,        0.1689453125,       71.5179443359,        5.1727294922,      179.8706054688
1494293824.5333609581,       -1.6225585938,       -0.1733398438,        0.1689453125,       75.8819580078,        3.7231445312,      184.7381591797
1494293824.5361609459,       -1.6225585938,       -0.1733398438,        0.1689453125,       75.8819580078,        3.7231445312,      184.7381591797
1494293824.5388519764,       -1.5561523438,       -0.2241210938,        0.3046875000,       84.3200683594,        0.5187988281,      188.4918212891
1494293824.5415549278,       -1.5561523438,       -0.2241210938,        0.3046875000,       84.3200683594,        0.5187988281,      188.4918212891
1494293824.5442450047,       -1.5561523438,       -0.2241210938,        0.3046875000,       96.4355468750,       -2.5482177734,      189.2700195312
1494293824.5469429493,       -1.5561523438,       -0.2241210938,        0.3046875000,       96.4355468750,       -2.5482177734,      189.2700195312
1494293824.5496349335,       -1.6103515625,       -0.3901367188,        0.3989257812,      110.4888916016,       -5.2490234375,      190.7501220703
1494293824.5523719788,       -1.6103515625,       -0.3901367188,        0.3989257812,      110.4888916016,       -5.2490234375,      190.7501220703
1494293824.5550680161,       -1.6103515625,       -0.3901367188,        0.3989257812,      122.2076416016,       -7.8582763672,      192.3522949219
