time_stamp before, Acceleration x, Acceleration y, Acceleration z, Gyro x, Gyro y, Gyro z
1494294926.4897110462,       -0.0239257812,        0.0097656250,       -0.0170898438,       24.4445800781,        3.1127929688,       32.6538085938
1494294926.4942820072,       -0.0239257812,        0.0097656250,       -0.0170898438,       24.4445800781,        3.1127929688,       38.0401611328
1494294926.4969580173,       -0.0488281250,        0.1606445312,       -0.0683593750,       18.2495117188,        2.5787353516,       38.0401611328
1494294926.4995179176,       -0.0488281250,        0.1606445312,       -0.0683593750,       18.2495117188,        2.5787353516,       45.7305908203
1494294926.5023140907,       -0.0488281250,        0.1606445312,       -0.0683593750,        6.5460205078,        1.1901855469,       45.7305908203
1494294926.5049519539,       -0.0488281250,        0.1606445312,       -0.0683593750,        6.5460205078,       -2.7160644531,       55.7250976562
1494294926.5078380108,       -0.1391601562,        0.4721679688,       -0.0810546875,       -7.0190429688,       -0.4272460938,       55.7250976562
1494294926.5105280876,       -0.1391601562,        0.4721679688,       -0.0810546875,       -7.0190429688,       -0.4272460938,       66.0095214844
1494294926.5132238865,       -0.1391601562,        0.4721679688,       -0.0810546875,      -19.3786621094,       -1.0375976562,       66.0095214844
1494294926.5159130096,       -0.1391601562,        0.8823242188,        0.1918945312,      -19.3786621094,       -1.0375976562,       70.6481933594
1494294926.5185980797,       -0.1611328125,        0.8823242188,        0.1918945312,      -36.1175537109,       -3.4942626953,       70.6481933594
1494294926.5212829113,       -0.1611328125,        0.8823242188,        0.1918945312,      -36.1175537109,       -3.4942626953,       65.9484863281
1494294926.5239670277,       -0.1611328125,        0.8823242188,        0.1918945312,      -60.1196289062,        5.5236816406,       65.9484863281
1494294926.5266470909,       -0.3457031250,        2.0776367188,        0.6401367188,      -60.1196289062,        5.5236816406,       53.3142089844
1494294926.5293309689,       -0.3457031250,        2.0776367188,        0.6401367188,      -59.2041015625,        9.8724365234,       53.3142089844
1494294926.5319740772,       -0.3457031250,        2.0776367188,        0.6401367188,      -59.2041015625,        9.8724365234,       65.0329589844
1494294926.5345239639,       -0.3457031250,        2.0776367188,        0.6401367188,      -51.6815185547,      -22.7661132812,       62.9425048828
1494294926.5370690823,       -1.5502929688,        2.3676757812,        0.1347656250,      -51.6815185547,      -22.7661132812,       62.9425048828
1494294926.5396149158,       -1.5502929688,        2.3676757812,        0.1347656250,      -76.7974853516,      -25.6042480469,      102.6153564453
1494294926.5421869755,       -1.5502929688,        2.3676757812,        0.1347656250,      -76.7974853516,      -25.6042480469,      102.6153564453
1494294926.5447430611,       -1.5502929688,        2.3676757812,        0.1347656250,      -21.9268798828,      -19.2260742188,      101.8829345703
1494294926.5472929478,       -1.5507812500,       -0.4819335938,       -0.1040039062,      -21.9268798828,      -19.2260742188,      101.8829345703
1494294926.5498459339,       -1.5507812500,       -0.4819335938,       -0.1040039062,       42.1295166016,      -28.0151367188,      104.8583984375
1494294926.5524499416,       -1.5507812500,       -0.4819335938,       -0.1040039062,       42.1295166016,      -28.0151367188,      104.8583984375
1494294926.5550060272,       -1.5507812500,       -0.4819335938,       -0.1040039062,       20.3094482422,      -34.8663330078,      108.8562011719
1494294926.5575599670,       -1.5024414062,       -2.1572265625,       -0.3393554688,       20.3094482422,      -34.8663330078,      108.8562011719
1494294926.5601110458,       -1.5024414062,       -2.1572265625,       -0.3393554688,       20.0805664062,      -43.9758300781,       88.8671875000
1494294926.5629019737,       -1.5024414062,       -2.1572265625,       -0.3393554688,       20.0805664062,      -43.9758300781,       88.8671875000
1494294926.5657401085,       -1.5024414062,       -2.1572265625,        0.4106445312,      -11.0168457031,      -49.3621826172,       60.3790283203
1494294926.5684320927,       -1.2915039062,       -1.9096679688,        0.4375000000,      -11.0168457031,      -49.3621826172,       60.3790283203
1494294926.5711660385,       -1.2915039062,       -1.9096679688,        0.4375000000,      -70.2056884766,      -59.5245361328,       45.9442138672
1494294926.5738599300,       -1.2915039062,       -1.9096679688,        0.4375000000,      -70.2056884766,      -59.5245361328,       45.9442138672
1494294926.5765590668,       -1.2915039062,       -0.1245117188,        0.1416015625,     -111.2670898438,      -59.9365234375,       51.1779785156
1494294926.5792589188,       -1.3583984375,       -0.1245117188,        0.1416015625,     -111.2670898438,      -59.9365234375,       51.1779785156
1494294926.5819079876,       -1.3583984375,       -0.1245117188,        0.1416015625,     -144.9432373047,      -44.0826416016,       92.9565429688
1494294926.5844719410,       -1.3583984375,       -0.1245117188,        0.1416015625,     -144.9432373047,      -44.0826416016,       92.9565429688
1494294926.5870299339,       -1.4790039062,        0.4345703125,       -0.0561523438,     -144.9432373047,      -34.5764160156,      100.8453369141
1494294926.5895891190,       -1.4790039062,        0.4345703125,       -0.0561523438,     -154.6936035156,      -34.5764160156,      100.8453369141
1494294926.5922520161,       -1.4790039062,        0.4345703125,       -0.0561523438,     -154.6936035156,      -38.4826660156,       70.0836181641
1494294926.5949509144,       -1.4790039062,        0.4345703125,       -0.0561523438,     -103.5766601562,      -37.5366210938,       70.0836181641
1494294926.5976469517,       -0.0146484375,       -0.5756835938,        0.4287109375,     -103.5766601562,      -37.5366210938,       23.4680175781
1494294926.6003420353,       -0.0146484375,       -0.5756835938,        0.4287109375,      -34.6374511719,      -35.6292724609,       23.4680175781
1494294926.6029839516,       -0.0146484375,       -0.5756835938,        0.4287109375,      -34.6374511719,      -35.6292724609,       25.4669189453
1494294926.6055459976,       -0.0146484375,       -0.5756835938,        0.4287109375,      -27.4810791016,       -0.3967285156,       25.4669189453
1494294926.6081080437,       -2.5810546875,        0.1787109375,       -0.1513671875,      -27.4810791016,       11.3220214844,       61.4776611328
1494294926.6114170551,       -2.5810546875,        0.1787109375,       -0.1513671875,      -54.6417236328,        8.8958740234,       61.4776611328
1494294926.6139700413,       -2.5810546875,        0.1787109375,       -0.1513671875,      -54.6417236328,        8.8958740234,       75.5767822266
1494294926.6165139675,       -2.5810546875,        0.1787109375,       -0.7739257812,      -73.5473632812,       -0.5950927734,       75.5767822266
1494294926.6191399097,       -3.3701171875,       -0.1884765625,       -0.7739257812,      -73.5473632812,       -0.5950927734,       83.3892822266
1494294926.6217379570,       -3.3701171875,       -0.1884765625,       -0.7739257812,      -57.7239990234,      -13.4735107422,       82.6568603516
1494294926.6242930889,       -3.3701171875,       -0.1884765625,       -0.7739257812,      -57.7239990234,      -13.4735107422,       82.6568603516
1494294926.6268470287,       -3.3701171875,       -0.9384765625,       -0.3930664062,      -49.5910644531,      -24.7497558594,       96.9390869141
1494294926.6294000149,       -1.5083007812,       -0.9062500000,       -0.3930664062,      -49.5910644531,      -24.7497558594,       96.9390869141
1494294926.6320528984,       -1.5083007812,       -0.9062500000,       -0.3930664062,      -67.4285888672,      -31.1584472656,      115.8752441406
1494294926.6346189976,       -1.5083007812,       -0.9062500000,       -0.3930664062,      -67.4285888672,      -31.1584472656,      115.8752441406
1494294926.6381149292,       -0.3867187500,        0.1176757812,        0.1733398438,     -110.6872558594,      -33.7829589844,      119.8577880859
1494294926.6407120228,       -0.3867187500,        0.1176757812,        0.1733398438,     -110.6872558594,      -33.7829589844,      112.0452880859
1494294926.6434140205,       -0.3867187500,        0.1176757812,        0.1733398438,     -152.2827148438,      -35.2478027344,      112.7777099609
1494294926.6461119652,       -0.3867187500,        0.1176757812,        0.1733398438,     -152.2827148438,      -35.2478027344,      101.0589599609
1494294926.6488039494,       -0.0395507812,        0.9316406250,        0.3730468750,     -140.3045654297,      -31.2194824219,      100.1739501953
1494294926.6515109539,       -0.0395507812,        0.9316406250,        0.3730468750,     -140.3045654297,      -31.2194824219,      100.1739501953
1494294926.6540739536,       -0.0395507812,        0.9316406250,        0.3730468750,     -101.6998291016,      -21.1486816406,       79.9407958984
1494294926.6566329002,       -0.0395507812,        0.9316406250,        0.1230468750,     -101.6998291016,      -21.1486816406,       79.9407958984
1494294926.6591920853,       -0.1787109375,        1.1972656250,        0.0991210938,      -56.9458007812,      -11.2457275391,       57.9528808594
1494294926.6618270874,       -0.1787109375,        1.1972656250,        0.0991210938,      -56.9458007812,      -11.2457275391,       57.9528808594
1494294926.6645340919,       -0.1787109375,        1.1972656250,        0.0991210938,      -15.8996582031,       -2.6702880859,       33.4625244141
1494294926.6672289371,       -0.1787109375,        0.6918945312,       -0.0356445312,      -15.8996582031,       -2.6702880859,       33.4625244141
1494294926.6699240208,       -0.5429687500,        0.6918945312,       -0.0356445312,        4.5013427734,        4.1046142578,       12.4359130859
1494294926.6725358963,       -0.5429687500,        0.6918945312,       -0.0356445312,        4.5013427734,        4.1046142578,       12.4359130859
1494294926.6750919819,       -0.5429687500,        0.6918945312,       -0.0356445312,        8.1481933594,        6.3476562500,        0.6866455078
1494294926.6776421070,       -0.9179687500,        0.1708984375,       -0.0180664062,        8.1481933594,        6.3476562500,        0.6866455078
1494294926.6801900864,       -0.8867187500,        0.1708984375,       -0.0180664062,        1.7242431641,        4.3945312500,       -4.1809082031
1494294926.6828479767,       -0.8867187500,        0.1708984375,       -0.0180664062,        1.7242431641,        4.3945312500,       -4.1809082031
1494294926.6853990555,       -0.8867187500,        0.1708984375,       -0.0180664062,       -5.7067871094,        2.4871826172,       -5.4931640625
1494294926.6879510880,       -1.0180664062,        0.1445312500,       -0.0722656250,       -5.7067871094,        2.4871826172,       -5.4931640625
1494294926.6904981136,       -1.0180664062,        0.1445312500,       -0.0722656250,      -13.5192871094,        0.7171630859,       -4.8522949219
1494294926.6933250427,       -1.0180664062,        0.1445312500,       -0.0722656250,      -15.4266357422,        0.7171630859,       -4.8522949219
1494294926.6960239410,       -1.0180664062,        0.1445312500,       -0.0722656250,      -27.1453857422,        0.5645751953,       -5.5847167969
1494294926.6987140179,       -0.7988281250,        0.3115234375,       -0.0654296875,      -24.8565673828,        0.5645751953,       -5.5847167969
1494294926.7014179230,       -0.7988281250,        0.3115234375,       -0.0654296875,      -32.6690673828,        1.3427734375,       -8.7890625000
1494294926.7041161060,       -0.7988281250,        0.3115234375,       -0.0654296875,      -32.3181152344,        1.3427734375,       -8.7890625000
1494294926.7068049908,       -0.7988281250,        0.3115234375,       -0.0654296875,      -32.3181152344,        2.8991699219,      -14.4348144531
1494294926.7095038891,       -0.6606445312,        0.4619140625,        0.0009765625,      -34.6221923828,        2.8991699219,      -14.4348144531
1494294926.7123229504,       -0.6606445312,        0.4619140625,        0.0009765625,      -30.7159423828,        5.8746337891,      -20.9655761719
1494294926.7150189877,       -0.6606445312,        0.4619140625,        0.0009765625,      -30.9753417969,        5.8746337891,      -20.9655761719
1494294926.7177169323,       -0.6606445312,        0.4594726562,        0.0659179688,      -30.9753417969,        8.6212158203,      -27.7099609375
1494294926.7204070091,       -0.6362304688,        0.4594726562,        0.0659179688,      -24.1546630859,        8.6212158203,      -27.7099609375
1494294926.7229790688,       -0.6362304688,        0.4594726562,        0.0659179688,      -24.1546630859,        8.6212158203,      -34.6527099609
1494294926.7255320549,       -0.6362304688,        0.4594726562,        0.0659179688,      -17.8833007812,       11.7034912109,      -34.6527099609
1494294926.7280840874,       -0.6362304688,        0.3339843750,        0.0703125000,      -17.8833007812,       11.7034912109,      -40.4968261719
1494294926.7306990623,       -0.7036132812,        0.3339843750,        0.0703125000,      -12.0849609375,       13.3361816406,      -40.4968261719
1494294926.7334001064,       -0.7036132812,        0.3339843750,        0.0703125000,      -12.0849609375,       13.3361816406,      -45.0744628906
1494294926.7360939980,       -0.7036132812,        0.3339843750,        0.0703125000,       -7.6293945312,       14.3737792969,      -45.0744628906
1494294926.7387890816,       -0.7578125000,        0.2612304688,        0.0581054688,       -7.6293945312,       14.3737792969,      -48.9807128906
1494294926.7414979935,       -0.7578125000,        0.2612304688,        0.0581054688,       -3.6315917969,       14.7247314453,      -49.1638183594
1494294926.7441949844,       -0.7578125000,        0.2612304688,        0.0581054688,       -3.6315917969,       14.7247314453,      -53.0700683594
1494294926.7471299171,       -0.7578125000,        0.2612304688,        0.0581054688,       -2.2735595703,       14.3280029297,      -51.6357421875
1494294926.7498309612,       -0.7685546875,        0.2119140625,        0.0224609375,       -2.2735595703,       14.3280029297,      -52.4444580078
1494294926.7525680065,       -0.7685546875,        0.2119140625,        0.0224609375,       -2.5787353516,       13.7481689453,      -52.4444580078
1494294926.7552590370,       -0.7685546875,        0.2119140625,        0.0224609375,       -2.5787353516,       13.7481689453,      -53.4057617188
1494294926.7579550743,       -0.7685546875,        0.2333984375,       -0.0034179688,       -3.3874511719,       13.3056640625,      -53.4057617188
1494294926.7606639862,       -0.7470703125,        0.2333984375,       -0.0034179688,       -3.3874511719,       13.3056640625,      -54.6112060547
1494294926.7633600235,       -0.7470703125,        0.2333984375,       -0.0034179688,       -3.9978027344,       12.8326416016,      -54.6112060547
1494294926.7660520077,       -0.7470703125,        0.2333984375,       -0.0034179688,       -3.9978027344,       12.8326416016,      -56.1523437500
1494294926.7687430382,       -0.7143554688,        0.2626953125,       -0.0029296875,       -4.0130615234,       12.5274658203,      -56.1523437500
1494294926.7714209557,       -0.7143554688,        0.2626953125,       -0.0029296875,       -4.0130615234,       12.5274658203,      -56.1523437500
1494294926.7739799023,       -0.7143554688,        0.2626953125,       -0.0029296875,       -3.1433105469,       12.7258300781,      -57.8765869141
1494294926.7765378952,       -0.7143554688,        0.2626953125,       -0.0029296875,       -3.1433105469,       12.7258300781,      -57.8765869141
1494294926.7790949345,       -0.7070312500,        0.2744140625,       -0.0009765625,       -2.1667480469,       13.2446289062,      -59.6771240234
1494294926.7816989422,       -0.7070312500,        0.2744140625,       -0.0009765625,       -2.1667480469,       13.2446289062,      -59.6771240234
1494294926.7842540741,       -0.7070312500,        0.2744140625,       -0.0009765625,       -0.6866455078,       13.0310058594,      -60.9741210938
1494294926.7869229317,       -0.7070312500,        0.2744140625,       -0.0009765625,       -0.6866455078,       13.0310058594,      -60.9741210938
1494294926.7894840240,       -0.6987304688,        0.2695312500,        0.0126953125,        1.8463134766,       12.8784179688,      -62.2406005859
1494294926.7921950817,       -0.6987304688,        0.2695312500,        0.0126953125,        1.8463134766,       12.8784179688,      -62.2406005859
1494294926.7947518826,       -0.6987304688,        0.2695312500,        0.0126953125,        4.2724609375,       13.2751464844,      -63.5070800781
1494294926.7973060608,       -0.6987304688,        0.2695312500,        0.0126953125,        4.2724609375,       13.2751464844,      -63.5070800781
1494294926.7998559475,       -0.6938476562,        0.2016601562,        0.0292968750,        6.8817138672,       13.0615234375,      -63.9190673828
1494294926.8026640415,       -0.6938476562,        0.2016601562,        0.0292968750,        6.8817138672,       13.0615234375,      -63.9190673828
1494294926.8053550720,       -0.6938476562,        0.2016601562,        0.0292968750,        9.2926025391,       13.1683349609,      -63.8885498047
1494294926.8080420494,       -0.6938476562,        0.2016601562,        0.0405273438,        9.2926025391,       13.1683349609,      -63.8885498047
1494294926.8107450008,       -0.7172851562,        0.1367187500,        0.0405273438,       10.5743408203,       12.9852294922,      -63.1561279297
1494294926.8134419918,       -0.7172851562,        0.1367187500,        0.0405273438,       10.5743408203,       12.9852294922,      -63.1561279297
1494294926.8161489964,       -0.7172851562,        0.1367187500,        0.0405273438,       10.8184814453,       12.0086669922,      -61.0504150391
1494294926.8188519478,       -0.7172851562,        0.1259765625,        0.0581054688,       10.8184814453,       12.0086669922,      -61.0504150391
1494294926.8215229511,       -0.7270507812,        0.1259765625,        0.0581054688,       11.4898681641,       11.4746093750,      -58.7005615234
1494294926.8240840435,       -0.7270507812,        0.1259765625,        0.0581054688,       11.4898681641,       11.4746093750,      -58.7005615234
1494294926.8266420364,       -0.7270507812,        0.1259765625,        0.0581054688,       11.4898681641,       11.3067626953,      -56.2591552734
1494294926.8291990757,       -0.7104492188,        0.0971679688,        0.0537109375,       13.0920410156,       11.3067626953,      -56.2591552734
1494294926.8318281174,       -0.7104492188,        0.0971679688,        0.0537109375,       13.0920410156,       11.3067626953,      -52.9632568359
1494294926.8345260620,       -0.7104492188,        0.0971679688,        0.0537109375,       13.4124755859,       10.5438232422,      -52.9632568359
1494294926.8372259140,       -0.7104492188,        0.0971679688,        0.0537109375,       13.4124755859,       10.5438232422,      -49.8657226562
1494294926.8400199413,       -0.7133789062,        0.0654296875,        0.0439453125,       14.5721435547,        9.6130371094,      -49.8657226562
1494294926.8427200317,       -0.7133789062,        0.0654296875,        0.0439453125,       14.5721435547,        9.6130371094,      -46.5850830078
1494294926.8453760147,       -0.7133789062,        0.0654296875,        0.0439453125,       15.6707763672,        9.4299316406,      -46.5850830078
1494294926.8481290340,       -0.7133789062,        0.0654296875,        0.0439453125,       15.6707763672,        9.4299316406,      -43.2586669922
1494294926.8509569168,       -0.7148437500,        0.0219726562,        0.0209960938,       16.3269042969,        9.4757080078,      -43.2586669922
1494294926.8536660671,       -0.7148437500,        0.0219726562,        0.0209960938,       16.3269042969,        8.9569091797,      -39.3218994141
1494294926.8563659191,       -0.7148437500,        0.0219726562,        0.0209960938,       17.1051025391,        8.9569091797,      -39.3218994141
1494294926.8591780663,       -0.7148437500,        0.0102539062,        0.0234375000,       17.1051025391,        8.1939697266,      -34.7595214844
1494294926.8618810177,       -0.7221679688,        0.0102539062,        0.0234375000,       15.7165527344,        8.1939697266,      -34.7595214844
1494294926.8645780087,       -0.7221679688,        0.0102539062,        0.0234375000,       15.7165527344,        7.3852539062,      -29.8004150391
1494294926.8672719002,       -0.7221679688,        0.0102539062,        0.0234375000,       13.8397216797,        7.3852539062,      -29.8004150391
1494294926.8699669838,       -0.7207031250,       -0.0019531250,        0.0434570312,       13.8397216797,        7.3852539062,      -24.6429443359
1494294926.8725779057,       -0.7207031250,       -0.0019531250,        0.0434570312,       11.9018554688,        6.6070556641,      -24.6429443359
1494294926.8751330376,       -0.7207031250,       -0.0019531250,        0.0434570312,       11.9018554688,        6.6070556641,      -19.1040039062
1494294926.8776888847,       -0.7207031250,       -0.0019531250,        0.0434570312,        8.9721679688,        5.2032470703,      -19.1040039062
1494294926.8802449703,       -0.7373046875,       -0.0029296875,        0.0351562500,        8.9721679688,        5.2032470703,      -15.1977539062
1494294926.8828470707,       -0.7373046875,       -0.0029296875,        0.0351562500,        6.1645507812,        4.0283203125,      -13.2904052734
1494294926.8854041100,       -0.7373046875,       -0.0029296875,        0.0351562500,        6.1645507812,        4.0283203125,      -13.2904052734
1494294926.8879570961,       -0.7373046875,       -0.0029296875,        0.0351562500,        4.3182373047,        2.8686523438,       -7.0343017578
1494294926.8905060291,       -0.7241210938,       -0.0463867188,        0.0078125000,        4.3182373047,        2.8686523438,       -7.0343017578
1494294926.8930919170,       -0.7241210938,       -0.0463867188,        0.0078125000,        1.3580322266,        2.0294189453,       -0.9307861328
1494294926.8956410885,       -0.7241210938,       -0.0463867188,        0.0078125000,        1.3580322266,        2.0294189453,       -0.9307861328
1494294926.8981909752,       -0.7241210938,       -0.0463867188,        0.0078125000,       -1.7852783203,        1.3427734375,        5.3405761719
1494294926.9008100033,       -0.6987304688,       -0.1166992188,       -0.0332031250,       -1.7852783203,        1.3427734375,        5.3405761719
1494294926.9033689499,       -0.6987304688,       -0.1166992188,       -0.0332031250,       -5.8441162109,       -0.3509521484,       12.3596191406
1494294926.9059300423,       -0.6987304688,       -0.1166992188,       -0.0332031250,       -5.8441162109,       -0.3509521484,       12.3596191406
1494294926.9084808826,       -0.6987304688,       -0.1166992188,       -0.0332031250,      -13.6566162109,       -3.1738281250,       20.0042724609
1494294926.9111819267,       -0.6708984375,       -0.1870117188,       -0.0170898438,      -12.8784179688,       -3.1738281250,       20.0042724609
1494294926.9137430191,       -0.6708984375,       -0.1870117188,       -0.0170898438,      -12.8784179688,       -6.0272216797,       27.6641845703
1494294926.9162919521,       -0.6708984375,       -0.1870117188,       -0.0170898438,      -19.5770263672,       -6.0272216797,       27.6641845703
1494294926.9188489914,       -0.6708984375,       -0.1870117188,        0.1079101562,      -19.5770263672,       -6.0272216797,       35.0036621094
1494294926.9214620590,       -0.6640625000,       -0.1098632812,        0.0444335938,      -25.7568359375,       -9.3231201172,       35.0036621094
1494294926.9241719246,       -0.6640625000,       -0.1098632812,        0.0444335938,      -25.7568359375,       -9.3231201172,       42.1447753906
1494294926.9268729687,       -0.6640625000,       -0.1098632812,        0.0444335938,      -32.2418212891,      -10.8947753906,       42.1447753906
1494294926.9295749664,       -0.6640625000,        0.0527343750,        0.0634765625,      -32.2418212891,      -10.8947753906,       48.3856201172
1494294926.9323980808,       -0.6889648438,        0.0527343750,        0.0634765625,      -37.0788574219,      -13.0004882812,       48.3856201172
1494294926.9351069927,       -0.6889648438,        0.0527343750,        0.0634765625,      -37.0788574219,      -13.0004882812,       51.7425537109
1494294926.9378058910,       -0.6889648438,        0.0527343750,        0.0634765625,      -38.4674072266,      -13.3056640625,       51.7425537109
1494294926.9405028820,       -0.6899414062,        0.1743164062,        0.0400390625,      -38.4674072266,      -13.3056640625,       53.4973144531
1494294926.9430930614,       -0.6899414062,        0.1743164062,        0.0400390625,      -36.3006591797,      -12.5732421875,       53.4973144531
1494294926.9456489086,       -0.6899414062,        0.1743164062,        0.0400390625,      -36.3006591797,      -12.5732421875,       53.4973144531
1494294926.9482090473,       -0.6899414062,        0.1743164062,        0.0400390625,      -32.2113037109,      -11.5814208984,       54.1076660156
1494294926.9508430958,       -0.7167968750,        0.2597656250,       -0.0195312500,      -32.2113037109,      -11.5814208984,       54.1076660156
1494294926.9534199238,       -0.7167968750,        0.2597656250,       -0.0195312500,      -26.0314941406,      -11.0473632812,       54.0618896484
1494294926.9559829235,       -0.7167968750,        0.2597656250,       -0.0195312500,      -26.0314941406,      -11.0473632812,       54.0618896484
1494294926.9585371017,       -0.7167968750,        0.2597656250,       -0.0195312500,      -18.3868408203,       -9.9792480469,       53.4973144531
1494294926.9611659050,       -0.7656250000,        0.2583007812,       -0.0615234375,      -18.3868408203,       -9.9792480469,       53.4973144531
1494294926.9637250900,       -0.7656250000,        0.2583007812,       -0.0615234375,      -11.9628906250,       -8.5296630859,       53.7719726562
1494294926.9662749767,       -0.7656250000,        0.2583007812,       -0.0615234375,      -11.9628906250,       -8.5296630859,       53.7719726562
1494294926.9689700603,       -0.7656250000,        0.2583007812,       -0.0615234375,       -7.3394775391,       -7.7819824219,       54.1076660156
1494294926.9718289375,       -0.7817382812,        0.1469726562,       -0.0200195312,       -7.3394775391,       -7.7819824219,       54.1076660156
1494294926.9745240211,       -0.7817382812,        0.1469726562,       -0.0200195312,       -4.7454833984,       -7.7972412109,       55.1300048828
1494294926.9772160053,       -0.7817382812,        0.1469726562,       -0.0200195312,       -4.7454833984,       -7.7972412109,       55.1300048828
1494294926.9799079895,       -0.7817382812,        0.0268554688,        0.0136718750,       -3.9520263672,       -7.5531005859,       57.6934814453
1494294926.9826118946,       -0.7695312500,        0.0268554688,        0.0136718750,       -3.9520263672,       -7.5531005859,       57.6934814453
1494294926.9853010178,       -0.7695312500,        0.0268554688,        0.0136718750,       -6.1798095703,       -8.4075927734,       61.6455078125
1494294926.9879949093,       -0.7695312500,        0.0268554688,        0.0136718750,       -6.1798095703,       -8.4075927734,       61.6455078125
1494294926.9906980991,       -0.6196289062,       -0.1274414062,        0.0756835938,      -12.7410888672,      -10.3149414062,       65.3228759766
1494294926.9933979511,       -0.6196289062,       -0.1274414062,        0.0756835938,      -12.7410888672,      -10.3149414062,       65.3228759766
1494294926.9960939884,       -0.6196289062,       -0.1274414062,        0.0756835938,      -20.1568603516,      -12.3291015625,       68.0236816406
1494294926.9988000393,       -0.6196289062,       -0.1274414062,        0.0756835938,      -20.1568603516,      -12.3291015625,       68.0236816406
1494294927.0015039444,       -0.6606445312,        0.1108398438,        0.1694335938,      -26.2756347656,      -14.0380859375,       70.5566406250
1494294927.0040719509,       -0.6606445312,        0.1108398438,        0.1694335938,      -26.2756347656,      -14.0380859375,       70.5566406250
1494294927.0067410469,       -0.6606445312,        0.1108398438,        0.1694335938,      -26.7028808594,      -14.4653320312,       70.9533691406
1494294927.0093019009,       -0.6606445312,        0.1108398438,        0.1694335938,      -26.7028808594,      -14.4653320312,       70.9533691406
1494294927.0119180679,       -0.7680664062,        0.4252929688,        0.0908203125,      -22.3083496094,      -13.5955810547,       67.5811767578
1494294927.0144760609,       -0.7680664062,        0.4252929688,        0.0908203125,      -22.3083496094,      -13.5955810547,       67.5811767578
1494294927.0170290470,       -0.7680664062,        0.4252929688,        0.0908203125,      -22.3083496094,       -9.6893310547,       63.6138916016
1494294927.0195879936,       -0.7680664062,        0.4252929688,        0.0908203125,       -9.2773437500,      -10.2081298828,       63.6138916016
1494294927.0222558975,       -0.7456054688,        0.4433593750,       -0.0463867188,       -9.2773437500,      -10.2081298828,       60.4705810547
1494294927.0248179436,       -0.7456054688,        0.4433593750,       -0.0463867188,        1.5716552734,       -6.5002441406,       60.4705810547
1494294927.0273690224,       -0.7456054688,        0.4433593750,       -0.0463867188,        1.5716552734,       -6.5002441406,       56.5643310547
1494294927.0299251080,       -0.7456054688,        0.4433593750,       -0.0888671875,       11.0473632812,       -3.2653808594,       57.8918457031
1494294927.0327110291,       -0.7197265625,        0.2539062500,       -0.0888671875,       11.0473632812,       -3.2653808594,       57.8918457031
1494294927.0354061127,       -0.7197265625,        0.2539062500,       -0.0888671875,       13.3666992188,       -2.9907226562,       58.3038330078
1494294927.0381009579,       -0.7197265625,        0.2539062500,       -0.0888671875,       13.3666992188,       -2.9907226562,       62.2100830078
1494294927.0408120155,       -0.5947265625,        0.0522460938,        0.0249023438,        5.5847167969,       -6.6833496094,       61.4776611328
1494294927.0435030460,       -0.6230468750,        0.0522460938,        0.0249023438,        5.5847167969,       -6.6833496094,       65.3839111328
1494294927.0462009907,       -0.6230468750,        0.0522460938,        0.0249023438,       -6.3934326172,      -10.5438232422,       63.1408691406
1494294927.0488948822,       -0.6230468750,        0.0522460938,        0.0249023438,       -6.3934326172,      -10.5438232422,       63.1408691406
1494294927.0515999794,       -0.6210937500,        0.2153320312,        0.1381835938,       -8.3770751953,      -12.6190185547,       63.0645751953
1494294927.0543019772,       -0.6210937500,        0.2153320312,        0.1381835938,       -8.3770751953,      -12.6190185547,       63.0645751953
1494294927.0569939613,       -0.6210937500,        0.2153320312,        0.1381835938,       -3.6926269531,      -13.0004882812,       60.9436035156
1494294927.0596768856,       -0.6210937500,        0.2153320312,        0.1381835938,       -3.6926269531,      -13.0004882812,       60.9436035156
1494294927.0623030663,       -0.7636718750,        0.3940429688,        0.0112304688,        4.2572021484,      -12.3291015625,       58.4259033203
1494294927.0648550987,       -0.7636718750,        0.3940429688,        0.0112304688,        4.2572021484,      -12.3291015625,       58.4259033203
1494294927.0674140453,       -0.7636718750,        0.3940429688,        0.0112304688,       12.9699707031,      -10.9710693359,       56.8084716797
1494294927.0699639320,       -0.7636718750,        0.3940429688,       -0.1137695312,       12.9699707031,      -10.9710693359,       56.8084716797
1494294927.0727019310,       -0.7451171875,        0.2465820312,       -0.0927734375,       17.3492431641,      -11.4135742188,       55.4962158203
1494294927.0752670765,       -0.7451171875,        0.2465820312,       -0.0927734375,       17.3492431641,      -11.4135742188,       55.4962158203
1494294927.0779349804,       -0.7451171875,        0.2465820312,       -0.0927734375,       16.2353515625,      -12.3901367188,       55.2520751953
1494294927.0804920197,       -0.7451171875,        0.2465820312,       -0.0263671875,       16.2353515625,      -12.3901367188,       55.2520751953
1494294927.0832169056,       -0.7221679688,        0.1542968750,       -0.0263671875,       11.8713378906,      -13.2904052734,       56.0302734375
1494294927.0859060287,       -0.7221679688,        0.1542968750,       -0.0263671875,       11.8713378906,      -13.2904052734,       56.0302734375
1494294927.0888299942,       -0.7221679688,        0.1542968750,       -0.0263671875,        5.3405761719,      -16.8304443359,       56.8695068359
1494294927.0919559002,       -0.6240234375,        0.2177734375,        0.1186523438,        5.3405761719,      -16.8304443359,       56.8695068359
1494294927.0946440697,       -0.6240234375,        0.2177734375,        0.1186523438,        0.2899169922,      -20.2941894531,       56.0455322266
1494294927.0973379612,       -0.6240234375,        0.2177734375,        0.1186523438,        0.2899169922,      -20.2941894531,       56.0455322266
1494294927.1000230312,       -0.6240234375,        0.2177734375,        0.1186523438,        3.6315917969,      -19.1802978516,       52.2613525391
1494294927.1027920246,       -0.7241210938,        0.4223632812,        0.1450195312,        3.6315917969,      -19.1802978516,       52.2613525391
1494294927.1054499149,       -0.7241210938,        0.4223632812,        0.1450195312,       11.9781494141,      -15.6402587891,       45.9289550781
1494294927.1081070900,       -0.7241210938,        0.4223632812,        0.1450195312,       11.9781494141,      -15.6402587891,       45.9289550781
1494294927.1107740402,       -0.7241210938,        0.4223632812,        0.0263671875,       21.5911865234,      -12.6647949219,       39.0319824219
1494294927.1134710312,       -0.7290039062,        0.4594726562,        0.0263671875,       21.5911865234,      -12.6647949219,       39.0319824219
1494294927.1161661148,       -0.7290039062,        0.4594726562,        0.0263671875,       26.0314941406,      -10.5743408203,       32.1044921875
1494294927.1188681126,       -0.7290039062,        0.4594726562,        0.0263671875,       26.0314941406,      -10.5743408203,       32.1044921875
1494294927.1215419769,       -0.7290039062,        0.3447265625,        0.0175781250,       24.1241455078,       -9.5062255859,       27.9693603516
1494294927.1240971088,       -0.7109375000,        0.3447265625,        0.0175781250,       24.1241455078,       -9.5062255859,       27.9693603516
1494294927.1266500950,       -0.7109375000,        0.3447265625,        0.0175781250,       20.1568603516,       -8.3465576172,       25.0091552734
1494294927.1292009354,       -0.7109375000,        0.3447265625,        0.0175781250,       20.1568603516,       -8.3465576172,       25.0091552734
1494294927.1317710876,       -0.7827148438,        0.3554687500,        0.1000976562,       18.5699462891,       -5.9661865234,       21.2707519531
1494294927.1343240738,       -0.7827148438,        0.3554687500,        0.1000976562,       18.5699462891,       -5.9661865234,       21.2707519531
1494294927.1368780136,       -0.7827148438,        0.3554687500,        0.1000976562,       18.5699462891,       -1.9531250000,       16.2353515625
1494294927.1394379139,       -0.7827148438,        0.3554687500,        0.1000976562,       20.2941894531,       -1.9531250000,       16.2353515625
1494294927.1421189308,       -0.8598632812,        0.3481445312,        0.1142578125,       20.2941894531,        1.9531250000,       11.4898681641
1494294927.1446740627,       -0.8598632812,        0.3481445312,        0.1142578125,       22.4761962891,        0.8087158203,       11.4898681641
1494294927.1472260952,       -0.8598632812,        0.3481445312,        0.1142578125,       22.4761962891,        0.8087158203,        4.6691894531
1494294927.1497759819,       -0.8598632812,        0.3481445312,        0.1142578125,       23.4680175781,        2.3651123047,        4.6691894531
1494294927.1526539326,       -0.8579101562,        0.3598632812,        0.1210937500,       23.4680175781,        2.3651123047,       -2.4108886719
1494294927.1553471088,       -0.8579101562,        0.3598632812,        0.1210937500,       24.9023437500,        2.6397705078,       -2.4108886719
1494294927.1580390930,       -0.8579101562,        0.3598632812,        0.1210937500,       24.9023437500,        2.6397705078,      -10.4980468750
1494294927.1607511044,       -0.8579101562,        0.3598632812,        0.1210937500,       28.7475585938,        2.7313232422,      -10.4980468750
1494294927.1633059978,       -0.8237304688,        0.4716796875,        0.1210937500,       28.7475585938,        2.7313232422,      -10.4980468750
1494294927.1658680439,       -0.8237304688,        0.4716796875,        0.1210937500,       34.3933105469,        3.4637451172,      -20.9350585938
1494294927.1684229374,       -0.8237304688,        0.4716796875,        0.1210937500,       34.3933105469,        3.4637451172,      -20.9350585938
1494294927.1710090637,       -0.8237304688,        0.4716796875,        0.1210937500,       39.4439697266,        4.3029785156,      -33.5083007812
1494294927.1737079620,       -0.8178710938,        0.5219726562,        0.0332031250,       39.4439697266,        4.3029785156,      -33.5083007812
1494294927.1764059067,       -0.8178710938,        0.5219726562,        0.0332031250,       43.9758300781,        7.0495605469,      -45.9747314453
1494294927.1791050434,       -0.8178710938,        0.5219726562,        0.0332031250,       43.9758300781,        7.0495605469,      -45.9747314453
1494294927.1817629337,       -0.8178710938,        0.5576171875,       -0.0483398438,       46.5240478516,        9.7198486328,      -58.0444335938
1494294927.1843230724,       -0.8740234375,        0.5576171875,       -0.0483398438,       46.5240478516,        9.7198486328,      -58.0444335938
1494294927.1868851185,       -0.8740234375,        0.5576171875,       -0.0483398438,       50.0488281250,       12.3748779297,      -70.5566406250
1494294927.1894490719,       -0.8740234375,        0.5576171875,       -0.0483398438,       50.0488281250,       12.3748779297,      -70.5566406250
1494294927.1921091080,       -0.9990234375,        0.4990234375,       -0.0708007812,       55.0079345703,       16.0980224609,      -87.0361328125
1494294927.1946690083,       -0.9863281250,        0.4990234375,       -0.0708007812,       55.0079345703,       16.0980224609,      -87.0361328125
1494294927.1972260475,       -0.9863281250,        0.4990234375,       -0.0708007812,       58.8531494141,       18.7835693359,     -101.3641357422
1494294927.1997830868,       -0.9863281250,        0.4990234375,       -0.0708007812,       58.8531494141,       18.7835693359,     -101.3641357422
1494294927.2025239468,       -1.0625000000,        0.4335937500,       -0.1250000000,       61.5234375000,       20.4010009766,     -111.4044189453
1494294927.2051889896,       -1.0625000000,        0.4335937500,       -0.1250000000,       61.5234375000,       20.4010009766,     -111.4044189453
1494294927.2081029415,       -1.0625000000,        0.4335937500,       -0.1250000000,       65.8874511719,       24.2919921875,     -122.4212646484
1494294927.2111890316,       -1.0625000000,        0.4335937500,       -0.1250000000,       65.8874511719,       24.2919921875,     -122.4212646484
1494294927.2137439251,       -1.3793945312,        0.3818359375,       -0.2348632812,       67.6727294922,       28.9611816406,     -135.5590820312
1494294927.2163031101,       -1.3793945312,        0.3818359375,       -0.2348632812,       67.6727294922,       28.9611816406,     -135.5590820312
1494294927.2188580036,       -1.3793945312,        0.3818359375,       -0.2348632812,       65.6738281250,       33.9660644531,     -150.1312255859
1494294927.2214629650,       -1.3793945312,        0.3818359375,       -0.4848632812,       65.6738281250,       33.9660644531,     -150.1312255859
1494294927.2241590023,       -1.7470703125,        0.3134765625,       -0.3999023438,       60.4248046875,       35.0036621094,     -160.9954833984
1494294927.2269730568,       -1.7470703125,        0.3134765625,       -0.3999023438,       60.4248046875,       35.0036621094,     -160.9954833984
1494294927.2296741009,       -1.7470703125,        0.3134765625,       -0.3999023438,       57.9986572266,       33.3557128906,     -164.0014648438
1494294927.2323799133,       -2.1220703125,        0.2495117188,       -0.4667968750,       57.9986572266,       33.3557128906,     -164.0014648438
1494294927.2350790501,       -2.0737304688,        0.2495117188,       -0.4667968750,       60.0128173828,       32.1960449219,     -161.9262695312
1494294927.2377750874,       -2.0737304688,        0.2495117188,       -0.4667968750,       60.0128173828,       32.1960449219,     -161.9262695312
1494294927.2404708862,       -2.0737304688,        0.2495117188,       -0.4667968750,       71.7315673828,       30.7006835938,     -161.2548828125
1494294927.2430570126,       -2.0180664062,        0.0019531250,       -0.3291015625,       71.7163085938,       30.7006835938,     -161.2548828125
1494294927.2456169128,       -2.0180664062,        0.0019531250,       -0.3291015625,       71.7163085938,       30.7006835938,     -162.2619628906
1494294927.2481749058,       -2.0180664062,        0.0019531250,       -0.3291015625,       90.0421142578,       28.9459228516,     -162.2619628906
1494294927.2507441044,       -2.0180664062,        0.0019531250,       -0.3291015625,       90.0421142578,       28.9459228516,     -159.6832275391
1494294927.2533020973,       -1.5541992188,       -0.3330078125,       -0.1811523438,      101.9592285156,       29.6630859375,     -159.6832275391
1494294927.2558579445,       -1.5541992188,       -0.3330078125,       -0.1811523438,      101.9592285156,       29.6630859375,     -151.8707275391
1494294927.2584159374,       -1.5541992188,       -0.3330078125,       -0.1811523438,      113.0371093750,       30.4718017578,     -151.1840820312
1494294927.2611069679,       -1.5541992188,       -0.3330078125,       -0.1811523438,      113.0371093750,       30.4718017578,     -151.1840820312
1494294927.2636721134,       -0.8066406250,       -0.6523437500,       -0.0327148438,      124.3438720703,       30.8990478516,     -139.6636962891
1494294927.2662310600,       -0.8066406250,       -0.6523437500,       -0.0327148438,      124.3438720703,       30.8990478516,     -139.6636962891
1494294927.2687919140,       -0.8066406250,       -0.6523437500,       -0.0327148438,      138.2904052734,       36.0107421875,     -127.8381347656
1494294927.2715148926,       -0.8066406250,       -0.6523437500,       -0.0327148438,      138.2904052734,       36.0107421875,     -127.8381347656
1494294927.2742168903,       -0.4042968750,       -0.6967773438,        0.0649414062,      143.4020996094,       40.6341552734,     -124.5727539062
1494294927.2769179344,       -0.4042968750,       -0.6967773438,        0.0649414062,      143.4020996094,       40.6341552734,     -124.5727539062
1494294927.2796239853,       -0.4042968750,       -0.6967773438,        0.0649414062,      127.0446777344,       37.7960205078,     -132.0648193359
1494294927.2823770046,       -0.4042968750,       -0.0717773438,        0.1416015625,      127.0446777344,       37.7960205078,     -132.0648193359
1494294927.2850799561,       -0.6411132812,       -0.0751953125,        0.1416015625,       99.4720458984,       30.7159423828,     -143.6004638672
1494294927.2877759933,       -0.6411132812,       -0.0751953125,        0.1416015625,       99.4720458984,       30.7159423828,     -143.6004638672
1494294927.2904810905,       -0.6411132812,       -0.0751953125,        0.1416015625,       76.0192871094,       32.1960449219,     -137.0544433594
1494294927.2931959629,       -1.0546875000,        0.8779296875,        0.1040039062,       76.0192871094,       32.1960449219,     -137.0544433594
1494294927.2958950996,       -1.0546875000,        0.8779296875,        0.1040039062,       60.1501464844,       37.6892089844,     -111.4196777344
1494294927.2987060547,       -1.0546875000,        0.8779296875,        0.1040039062,       60.1501464844,       37.6892089844,     -111.4196777344
1494294927.3014240265,       -1.0546875000,        0.8779296875,        0.1040039062,       49.0417480469,       44.0216064453,      -99.4567871094
1494294927.3041179180,       -0.8427734375,        1.1997070312,        0.3212890625,       49.0417480469,       44.0216064453,      -99.4567871094
1494294927.3068249226,       -0.8427734375,        1.1997070312,        0.3212890625,       36.1785888672,       45.7611083984,      -97.7935791016
1494294927.3095209599,       -0.8427734375,        1.1997070312,        0.3212890625,       36.1785888672,       45.7611083984,      -97.7935791016
1494294927.3121581078,       -0.8427734375,        1.1997070312,        0.5712890625,       18.9666748047,       38.9556884766,      -88.6077880859
1494294927.3147189617,       -0.2070312500,        0.8959960938,        0.5664062500,       18.9666748047,       38.9556884766,      -88.6077880859
1494294927.3172769547,       -0.2070312500,        0.8959960938,        0.5664062500,       -3.2653808594,       29.3884277344,      -73.4863281250
1494294927.3198258877,       -0.2070312500,        0.8959960938,        0.5664062500,       -3.2653808594,       29.3884277344,      -73.4863281250
1494294927.3223888874,       -0.2070312500,        0.8959960938,        0.6914062500,      -32.8826904297,       18.1121826172,      -63.2781982422
1494294927.3249440193,       -0.2216796875,        0.8022460938,        0.7402343750,      -32.8826904297,       18.1121826172,      -63.2781982422
1494294927.3276519775,       -0.2216796875,        0.8022460938,        0.7402343750,      -49.6520996094,       21.1029052734,      -67.9473876953
1494294927.3302140236,       -0.2216796875,        0.8022460938,        0.7402343750,      -49.6520996094,       21.1029052734,      -67.9473876953
1494294927.3332059383,       -0.2216796875,        0.4042968750,        0.2563476562,      -42.7856445312,       18.0206298828,      -61.1267089844
1494294927.3359119892,       -0.1513671875,        0.4042968750,        0.2563476562,      -42.7856445312,       18.0206298828,      -61.1267089844
1494294927.3386120796,       -0.1513671875,        0.4042968750,        0.2563476562,      -31.0974121094,        4.1656494141,      -40.0390625000
1494294927.3413600922,       -0.1513671875,        0.4042968750,        0.2563476562,      -31.0974121094,        4.1656494141,      -40.0390625000
1494294927.3440558910,       -0.1181640625,        0.2856445312,        0.0751953125,      -21.2860107422,       -2.1820068359,      -23.9868164062
1494294927.3467519283,       -0.1181640625,        0.2856445312,        0.0751953125,      -21.2860107422,       -2.1820068359,      -23.9868164062
1494294927.3494570255,       -0.1181640625,        0.2856445312,        0.0751953125,       -3.3264160156,       -7.8735351562,      -10.7421875000
1494294927.3521590233,       -0.1181640625,        0.2856445312,        0.0751953125,       -3.3264160156,       -7.8735351562,      -10.7421875000
1494294927.3548550606,       -0.2065429688,        0.2153320312,        0.0122070312,        9.2315673828,      -10.9558105469,       -0.8697509766
1494294927.3575489521,       -0.2065429688,        0.2153320312,        0.0122070312,        9.2315673828,      -10.9558105469,       -0.8697509766
1494294927.3602349758,       -0.2065429688,        0.2153320312,        0.0122070312,       14.1754150391,      -11.5051269531,        1.5869140625
1494294927.3628649712,       -0.2065429688,        0.2153320312,        0.0893554688,       14.1754150391,      -11.5051269531,        1.5869140625
1494294927.3654179573,       -0.1328125000,        0.1049804688,        0.0893554688,       14.1754150391,      -12.1765136719,        1.1749267578
1494294927.3679740429,       -0.1328125000,        0.1049804688,        0.0893554688,       12.0544433594,      -12.1765136719,        1.1749267578
1494294927.3705339432,       -0.1328125000,        0.1049804688,        0.0893554688,       12.0544433594,      -12.1765136719,        0.2288818359
1494294927.3732130527,       -0.1328125000,       -0.0200195312,        0.1020507812,        3.4027099609,      -13.0767822266,        0.2288818359
1494294927.3757770061,       -0.1069335938,       -0.0659179688,        0.1020507812,        3.4027099609,      -13.0767822266,       -3.6773681641
1494294927.3783299923,       -0.1069335938,       -0.0659179688,        0.1020507812,       -6.5765380859,      -12.7410888672,       -2.1820068359
1494294927.3810629845,       -0.1069335938,       -0.0659179688,        0.1020507812,       -6.5765380859,      -12.7410888672,       -6.0882568359
1494294927.3836159706,       -0.1069335938,       -0.1176757812,        0.0273437500,      -16.9982910156,      -12.2833251953,       -6.2255859375
1494294927.3861749172,       -0.0932617188,       -0.1176757812,        0.0273437500,      -16.9982910156,      -12.2833251953,       -6.2255859375
1494294927.3887290955,       -0.0932617188,       -0.1176757812,        0.0273437500,      -26.5350341797,      -11.2152099609,      -10.9558105469
1494294927.3914740086,       -0.0932617188,       -0.1176757812,        0.0273437500,      -26.5350341797,      -11.2152099609,      -10.9558105469
1494294927.3941719532,       -0.0878906250,       -0.0756835938,       -0.0703125000,      -33.8897705078,       -9.8724365234,      -15.8538818359
1494294927.3968679905,       -0.0878906250,       -0.0756835938,       -0.0703125000,      -33.8897705078,       -9.8724365234,      -15.8538818359
1494294927.3995599747,       -0.0878906250,       -0.0756835938,       -0.0703125000,      -38.1774902344,       -8.7127685547,      -19.5312500000
1494294927.4022669792,       -0.0878906250,       -0.0756835938,       -0.0703125000,      -38.1774902344,       -8.7127685547,      -19.5312500000
1494294927.4049649239,       -0.0703125000,       -0.0083007812,       -0.0815429688,      -41.5496826172,       -8.2702636719,      -22.1252441406
1494294927.4076600075,       -0.0703125000,       -0.0083007812,       -0.0815429688,      -41.5496826172,       -8.2702636719,      -22.1252441406
1494294927.4103529453,       -0.0703125000,       -0.0083007812,       -0.0815429688,      -44.1131591797,       -8.5601806641,      -23.5595703125
1494294927.4129478931,       -0.0703125000,       -0.0083007812,       -0.0815429688,      -44.1131591797,       -8.5601806641,      -23.5595703125
1494294927.4155030251,       -0.0507812500,        0.0488281250,       -0.0590820312,      -46.0052490234,       -7.9498291016,      -23.7121582031
1494294927.4180610180,       -0.0507812500,        0.0488281250,       -0.0590820312,      -46.0052490234,       -7.9498291016,      -23.7121582031
1494294927.4206130505,       -0.0507812500,        0.0488281250,       -0.0590820312,      -46.8750000000,       -7.6599121094,      -23.2849121094
1494294927.4233510494,       -0.0507812500,        0.0488281250,       -0.0444335938,      -46.8750000000,       -7.6599121094,      -23.2849121094
1494294927.4260470867,       -0.0283203125,        0.1152343750,       -0.0444335938,      -47.1954345703,       -7.3547363281,      -21.8963623047
1494294927.4287409782,       -0.0283203125,        0.1152343750,       -0.0444335938,      -47.1954345703,       -7.3547363281,      -21.8963623047
1494294927.4314470291,       -0.0283203125,        0.1152343750,       -0.0444335938,      -46.5087890625,       -6.8359375000,      -20.0653076172
1494294927.4341468811,       -0.0283203125,        0.1884765625,       -0.0380859375,      -46.5087890625,       -6.8359375000,      -20.0653076172
1494294927.4368379116,       -0.0185546875,        0.1884765625,       -0.0380859375,      -43.6859130859,       -6.8664550781,      -17.1813964844
1494294927.4395349026,       -0.0185546875,        0.1884765625,       -0.0380859375,      -43.6859130859,       -6.8664550781,      -17.1813964844
1494294927.4422399998,       -0.0185546875,        0.1884765625,       -0.0380859375,      -39.3524169922,       -6.3018798828,      -13.2598876953
1494294927.4449360371,       -0.0249023438,        0.2495117188,       -0.0366210938,      -39.3524169922,       -6.3018798828,      -13.2598876953
1494294927.4478540421,       -0.0249023438,        0.2495117188,       -0.0366210938,      -29.6936035156,       -5.2032470703,       -8.2550048828
1494294927.4506280422,       -0.0249023438,        0.2495117188,       -0.0366210938,      -29.6936035156,       -5.2032470703,       -8.2550048828
1494294927.4534509182,       -0.0249023438,        0.2495117188,       -0.0366210938,      -16.8151855469,       -3.4942626953,       -3.3111572266
1494294927.4561429024,       -0.0166015625,        0.1928710938,       -0.0717773438,      -16.8151855469,       -3.4942626953,       -3.3111572266
1494294927.4588379860,       -0.0166015625,        0.1928710938,       -0.0717773438,       -4.6997070312,       -2.7313232422,        1.6479492188
1494294927.4615039825,       -0.0166015625,        0.1928710938,       -0.0717773438,       -4.6997070312,       -2.7313232422,        1.6479492188
1494294927.4640491009,       -0.0166015625,        0.0678710938,       -0.0751953125,        4.4555664062,       -3.1890869141,        8.6364746094
1494294927.4665949345,        0.0102539062,        0.0322265625,       -0.0751953125,        4.4555664062,       -3.1890869141,        8.6364746094
1494294927.4691419601,        0.0102539062,        0.0322265625,       -0.0751953125,       10.0097656250,       -5.6152343750,       16.8762207031
1494294927.4718050957,        0.0102539062,        0.0322265625,       -0.0751953125,       10.0097656250,       -5.6152343750,       16.8762207031
1494294927.4745090008,       -0.1147460938,        0.0102539062,       -0.0576171875,       13.9160156250,       -8.2244873047,       24.6124267578
1494294927.4772000313,       -0.0107421875,        0.0102539062,       -0.0576171875,       14.1906738281,       -8.2244873047,       24.6124267578
1494294927.4798929691,       -0.0107421875,        0.0102539062,       -0.0576171875,       18.0969238281,      -10.2081298828,       32.3181152344
1494294927.4825160503,       -0.0107421875,        0.0102539062,       -0.0576171875,       17.6086425781,      -10.2081298828,       32.3181152344
1494294927.4850769043,       -0.0561523438,        0.2397460938,       -0.0170898438,       17.6086425781,      -14.1143798828,       40.8172607422
1494294927.4876310825,       -0.0561523438,        0.2397460938,       -0.0170898438,       20.7977294922,      -11.9781494141,       40.8172607422
1494294927.4901959896,       -0.0561523438,        0.2397460938,       -0.0170898438,       20.7977294922,      -11.9781494141,       51.3763427734
1494294927.4927570820,       -0.0561523438,        0.2397460938,       -0.0170898438,       21.1181640625,      -13.4124755859,       51.3763427734
1494294927.4953210354,       -0.1083984375,        0.4423828125,        0.0366210938,       21.1181640625,      -13.4124755859,       51.3763427734
1494294927.4978818893,       -0.1083984375,        0.4423828125,        0.0366210938,       18.4020996094,      -13.2598876953,       61.8591308594
1494294927.5004439354,       -0.1083984375,        0.4423828125,        0.0366210938,       18.4020996094,      -13.2598876953,       61.8591308594
1494294927.5031731129,       -0.1083984375,        0.4423828125,        0.0366210938,       16.7846679688,      -11.3067626953,       70.0683593750
1494294927.5057289600,       -0.1562500000,        0.4389648438,       -0.0112304688,       16.7846679688,      -11.3067626953,       70.0683593750
1494294927.5082869530,       -0.1562500000,        0.4389648438,       -0.0112304688,       16.1285400391,       -9.0789794922,       74.5391845703
1494294927.5110049248,       -0.1562500000,        0.4389648438,       -0.0112304688,       16.1285400391,       -9.0789794922,       74.5391845703
1494294927.5135629177,       -0.1562500000,        0.4389648438,       -0.0112304688,       15.3808593750,       -8.4991455078,       76.0955810547
1494294927.5161209106,       -0.0747070312,        0.2021484375,       -0.0385742188,       15.3808593750,       -8.4991455078,       76.0955810547
1494294927.5187849998,       -0.0747070312,        0.2021484375,       -0.0385742188,       10.6811523438,      -10.5590820312,       77.8656005859
1494294927.5214090347,       -0.0747070312,        0.2021484375,       -0.0385742188,       10.6811523438,      -10.5590820312,       77.8656005859
1494294927.5241138935,       -0.0747070312,        0.2021484375,       -0.0385742188,        1.5258789062,      -13.1835937500,       78.1097412109
1494294927.5268080235,       -0.0419921875,        0.0546875000,       -0.0429687500,        1.5258789062,      -13.1835937500,       78.1097412109
1494294927.5295019150,       -0.0419921875,        0.0546875000,       -0.0429687500,       -9.8114013672,      -15.9606933594,       77.8961181641
1494294927.5322139263,       -0.0419921875,        0.0546875000,       -0.0429687500,       -9.8114013672,      -15.9606933594,       77.8961181641
1494294927.5349059105,       -0.0419921875,        0.8950195312,        0.0893554688,      -22.3999023438,      -20.3094482422,       77.1179199219
1494294927.5375990868,       -0.0849609375,        0.8950195312,        0.0893554688,      -22.3999023438,      -20.3094482422,       77.1179199219
1494294927.5402970314,       -0.0849609375,        0.8950195312,        0.0893554688,      -30.9906005859,       -7.0190429688,       71.5332031250
1494294927.5429980755,       -0.0849609375,        0.8950195312,        0.0893554688,      -30.9906005859,       -7.0190429688,       71.5332031250
1494294927.5456941128,       -0.4311523438,        3.9736328125,        1.3188476562,        3.7689208984,      -19.5770263672,       56.7321777344
1494294927.5483839512,       -0.4311523438,        3.9736328125,        1.3188476562,        3.7689208984,      -19.5770263672,       56.7321777344
1494294927.5510809422,       -0.4311523438,        3.9736328125,        1.3188476562,      -41.4733886719,      -47.6837158203,       81.3903808594
1494294927.5537869930,       -0.4311523438,        3.9736328125,        1.3188476562,      -41.4733886719,      -47.6837158203,       81.3903808594
1494294927.5564858913,       -2.4458007812,        1.1474609375,       -0.3813476562,      -70.0225830078,      -15.7928466797,      104.8431396484
1494294927.5591909885,       -2.4458007812,        1.1474609375,       -0.3813476562,      -70.0225830078,      -15.7928466797,      104.8431396484
1494294927.5618450642,       -2.4458007812,        1.1474609375,       -0.3813476562,       51.6815185547,      -14.3280029297,      103.6834716797
1494294927.5643990040,       -2.4458007812,        1.1474609375,       -0.5063476562,       51.6815185547,      -14.3280029297,      103.6834716797
1494294927.5670099258,       -1.5371093750,       -1.8686523438,       -0.5161132812,       67.3065185547,      -21.4385986328,      149.0325927734
1494294927.5695869923,       -1.5371093750,       -1.8686523438,       -0.5161132812,       67.8558349609,      -21.4385986328,      149.0325927734
1494294927.5724339485,       -1.5371093750,       -1.8686523438,       -0.5161132812,       17.0745849609,      -22.3999023438,      148.0712890625
1494294927.5751309395,       -1.5371093750,       -3.0698242188,       -0.1850585938,       16.4337158203,      -22.3999023438,      148.0712890625
1494294927.5778250694,       -1.7768554688,       -3.0698242188,       -0.1850585938,       28.1524658203,      -34.3627929688,      113.7847900391
1494294927.5805230141,       -1.7768554688,       -3.0698242188,       -0.1850585938,       27.9083251953,      -34.3627929688,      113.7847900391
1494294927.5832350254,       -1.7768554688,       -3.0698242188,       -0.1850585938,       -3.3416748047,      -39.7186279297,       87.0513916016
1494294927.5859251022,       -2.0092773438,       -1.5478515625,        0.5224609375,       -2.4566650391,      -39.7186279297,       87.0513916016
1494294927.5886230469,       -2.0092773438,       -1.5478515625,        0.5224609375,      -92.3004150391,      -31.7382812500,      100.0823974609
1494294927.5913650990,       -2.0092773438,       -1.5478515625,        0.5224609375,      -91.7205810547,      -31.7382812500,      100.0823974609
1494294927.5941729546,       -2.0092773438,       -1.5478515625,        0.5224609375,     -169.8455810547,      -31.0821533203,      141.6778564453
1494294927.5968720913,       -2.1645507812,        0.6352539062,       -0.0151367188,     -171.8750000000,      -31.0821533203,      141.6778564453
1494294927.5995690823,       -2.1645507812,        0.6352539062,       -0.0151367188,     -191.4062500000,      -14.2364501953,      126.5411376953
1494294927.6022050381,       -2.1645507812,        0.6352539062,       -0.0151367188,     -187.6068115234,      -14.2364501953,      126.5411376953
1494294927.6047570705,       -2.1645507812,        0.6352539062,        0.1098632812,     -187.6068115234,       13.1072998047,       62.7746582031
1494294927.6073160172,       -0.6645507812,        0.0356445312,        0.0981445312,     -121.2615966797,       13.5650634766,       62.7746582031
1494294927.6098830700,       -0.6645507812,        0.0356445312,        0.0981445312,     -121.2615966797,       13.5650634766,       42.2210693359
1494294927.6124920845,       -0.6645507812,        0.0356445312,        0.0981445312,      -68.9086914062,       24.8565673828,       42.2210693359
1494294927.6150588989,       -0.6645507812,        0.0356445312,       -0.1982421875,      -68.9086914062,       24.8565673828,       42.2210693359
1494294927.6176118851,       -1.2978515625,        0.4575195312,       -0.1982421875,      -60.2111816406,       31.2347412109,       88.6535644531
1494294927.6201689243,       -1.2978515625,        0.4575195312,       -0.1982421875,      -60.2111816406,       31.2347412109,       88.6535644531
1494294927.6228721142,       -1.2978515625,        0.4575195312,       -0.1982421875,      -51.4678955078,       31.8145751953,       95.5352783203
1494294927.6254301071,       -1.2978515625,       -0.0424804688,       -0.7592773438,      -51.4678955078,       31.8145751953,       95.5352783203
1494294927.6279830933,       -3.1025390625,       -0.0942382812,       -0.7592773438,      -37.6892089844,       21.2097167969,       84.3505859375
1494294927.6305439472,       -3.1025390625,       -0.0942382812,       -0.7592773438,      -37.6892089844,       21.2097167969,       84.3505859375
1494294927.6333529949,       -3.1025390625,       -0.0942382812,       -0.7592773438,      -31.0211181641,        3.8604736328,       82.2906494141
1494294927.6360530853,       -1.8618164062,       -0.5820312500,       -0.4306640625,      -31.0211181641,        3.8604736328,       82.2906494141
1494294927.6387529373,       -1.8618164062,       -0.5820312500,       -0.4306640625,      -55.3588867188,      -15.5334472656,       93.8873291016
1494294927.6414599419,       -1.8618164062,       -0.5820312500,       -0.4306640625,      -55.3588867188,      -15.5334472656,       93.8873291016
1494294927.6441559792,       -1.8618164062,       -0.5820312500,       -0.4306640625,      -95.0469970703,      -25.8026123047,      102.9815673828
1494294927.6468520164,       -0.3251953125,        0.0917968750,        0.0449218750,      -95.0469970703,      -25.8026123047,      102.9815673828
1494294927.6495430470,       -0.3251953125,        0.0917968750,        0.0449218750,     -134.6893310547,      -24.3682861328,      100.8300781250
1494294927.6522579193,       -0.3251953125,        0.0917968750,        0.0449218750,     -134.6893310547,      -24.3682861328,      100.8300781250
1494294927.6549549103,       -0.3251953125,        0.0917968750,        0.0449218750,     -148.1781005859,      -21.4538574219,       89.5538330078
1494294927.6576550007,       -0.0463867188,        0.6074218750,        0.4746093750,     -148.1781005859,      -21.4538574219,       89.5538330078
1494294927.6603589058,       -0.0463867188,        0.6074218750,        0.4746093750,     -134.1400146484,      -22.6287841797,       72.3876953125
1494294927.6629540920,       -0.0463867188,        0.6074218750,        0.4746093750,     -134.1400146484,      -22.6287841797,       72.3876953125
1494294927.6655170918,       -0.0463867188,        0.6074218750,        0.1948242188,      -99.0600585938,      -19.6685791016,       52.9632568359
1494294927.6681890488,       -0.1538085938,        1.0024414062,        0.1948242188,      -99.0600585938,      -19.6685791016,       52.9632568359
1494294927.6708250046,       -0.1538085938,        1.0024414062,        0.1948242188,      -55.8471679688,      -11.2915039062,       31.3415527344
1494294927.6734070778,       -0.1538085938,        1.0024414062,        0.1948242188,      -55.8471679688,      -11.2915039062,       31.3415527344
1494294927.6759629250,       -0.1538085938,        0.7866210938,        0.0761718750,      -16.7846679688,       -2.0904541016,        8.6059570312
1494294927.6785230637,       -0.6269531250,        0.7866210938,        0.0761718750,      -15.8843994141,       -2.0904541016,        8.6059570312
1494294927.6810910702,       -0.6269531250,        0.7866210938,        0.0761718750,        6.5002441406,        2.7618408203,       -9.4146728516
1494294927.6849410534,       -0.6269531250,        0.7866210938,        0.0761718750,        6.5002441406,        2.7618408203,       -9.4146728516
1494294927.6877560616,       -1.0014648438,        0.2163085938,       -0.0161132812,        6.5002441406,        0.9765625000,      -21.1029052734
1494294927.6907479763,       -1.0014648438,        0.2163085938,       -0.0161132812,        6.5002441406,        0.9765625000,      -21.1029052734
1494294927.6936149597,       -1.0014648438,        0.2163085938,       -0.0161132812,      -10.0250244141,       -1.9378662109,      -29.7698974609
1494294927.6963150501,       -1.0014648438,        0.1093750000,       -0.0888671875,      -10.0250244141,       -1.9378662109,      -29.7698974609
1494294927.6990139484,       -1.0000000000,        0.1093750000,       -0.0888671875,      -29.1595458984,       -3.4637451172,      -36.3922119141
1494294927.7017591000,       -1.0000000000,        0.1093750000,       -0.0888671875,      -29.1595458984,       -3.4637451172,      -36.3922119141
1494294927.7044510841,       -1.0000000000,        0.1093750000,       -0.0888671875,      -44.0673828125,       -0.8697509766,      -35.3393554688
1494294927.7071459293,       -0.7519531250,        0.3964843750,       -0.1093750000,      -44.0673828125,       -0.8697509766,      -35.3393554688
1494294927.7098369598,       -0.7519531250,        0.3964843750,       -0.1093750000,      -53.5430908203,        2.6397705078,      -33.7219238281
1494294927.7125740051,       -0.7519531250,        0.3964843750,       -0.1093750000,      -53.5430908203,        2.6397705078,      -33.7219238281
1494294927.7152729034,       -0.7519531250,        0.3964843750,       -0.1093750000,      -55.2062988281,        6.2103271484,      -36.0870361328
1494294927.7179598808,       -0.6406250000,        0.5747070312,       -0.0117187500,      -55.2062988281,        6.2103271484,      -36.0870361328
1494294927.7206869125,       -0.6406250000,        0.5747070312,       -0.0117187500,      -50.1251220703,        9.5062255859,      -39.4744873047
1494294927.7232429981,       -0.6406250000,        0.5747070312,       -0.0117187500,      -50.1251220703,        9.5062255859,      -39.4744873047
1494294927.7257950306,       -0.6406250000,        0.5747070312,        0.1132812500,      -40.7867431641,       11.7034912109,      -45.3491210938
1494294927.7283549309,       -0.6289062500,        0.5566406250,        0.0424804688,      -40.7867431641,       11.7034912109,      -45.3491210938
1494294927.7309570312,       -0.6289062500,        0.5566406250,        0.0424804688,      -30.2429199219,       14.8010253906,      -51.5747070312
1494294927.7335190773,       -0.6289062500,        0.5566406250,        0.0424804688,      -30.2429199219,       14.8010253906,      -51.5747070312
1494294927.7360808849,       -0.6289062500,        0.5566406250,        0.0693359375,      -22.9492187500,       16.8609619141,      -57.3272705078
1494294927.7386369705,       -0.7109375000,        0.4086914062,        0.0693359375,      -22.9492187500,       16.8609619141,      -57.3272705078
1494294927.7414779663,       -0.7109375000,        0.4086914062,        0.0693359375,      -16.6931152344,       18.3258056641,      -63.0340576172
1494294927.7440469265,       -0.7109375000,        0.4086914062,        0.0693359375,      -16.6931152344,       18.3258056641,      -63.0340576172
1494294927.7466099262,       -0.7109375000,        0.3071289062,        0.0649414062,       -8.8806152344,       19.1192626953,      -68.4814453125
1494294927.7491710186,       -0.7509765625,        0.3071289062,        0.0649414062,      -10.3759765625,       19.1192626953,      -68.4814453125
1494294927.7518510818,       -0.7509765625,        0.3071289062,        0.0649414062,      -10.3759765625,       23.0255126953,      -73.1964111328
1494294927.7544090748,       -0.7509765625,        0.3071289062,        0.0649414062,       -4.4250488281,       19.5312500000,      -73.1964111328
1494294927.7569699287,       -0.7509765625,        0.2783203125,        0.0366210938,       -4.4250488281,       19.5312500000,      -76.8127441406
1494294927.7595250607,       -0.7666015625,        0.2783203125,        0.0366210938,       -1.0986328125,       20.1721191406,      -76.8127441406
1494294927.7622020245,       -0.7666015625,        0.2783203125,        0.0366210938,       -1.0986328125,       20.1721191406,      -79.5288085938
1494294927.7649040222,       -0.7666015625,        0.2783203125,        0.0366210938,       -0.0305175781,       19.1955566406,      -79.5288085938
1494294927.7675991058,       -0.7324218750,        0.2500000000,       -0.0219726562,       -0.0305175781,       19.1955566406,      -81.8328857422
1494294927.7703039646,       -0.7324218750,        0.2500000000,       -0.0219726562,        0.9765625000,       17.7917480469,      -81.8328857422
1494294927.7730100155,       -0.7324218750,        0.2500000000,       -0.0219726562,        0.9765625000,       17.7917480469,      -85.7391357422
1494294927.7757101059,       -0.7324218750,        0.2500000000,       -0.0219726562,        1.4801025391,       17.1051025391,      -83.1756591797
1494294927.7784130573,       -0.6914062500,        0.2456054688,       -0.0600585938,        1.4801025391,       17.1051025391,      -83.1756591797
1494294927.7811388969,       -0.6914062500,        0.2456054688,       -0.0600585938,        2.1209716797,       16.7388916016,      -85.0677490234
1494294927.7836990356,       -0.6914062500,        0.2456054688,       -0.0600585938,        2.1209716797,       16.7388916016,      -85.0677490234
1494294927.7862629890,       -0.6914062500,        0.2456054688,       -0.0600585938,        2.6397705078,       15.4418945312,      -86.8530273438
1494294927.7888209820,       -0.6860351562,        0.2553710938,       -0.0419921875,        2.6397705078,       15.4418945312,      -86.8530273438
1494294927.7914988995,       -0.6860351562,        0.2553710938,       -0.0419921875,        2.5024414062,       14.6942138672,      -87.8295898438
1494294927.7940549850,       -0.6860351562,        0.2553710938,       -0.0419921875,        2.5024414062,       14.6942138672,      -87.8295898438
1494294927.7966120243,       -0.6860351562,        0.2553710938,       -0.0546875000,        3.5095214844,       13.9007568359,      -88.7298583984
1494294927.7991719246,       -0.6870117188,        0.2465820312,       -0.0546875000,        3.5095214844,       13.9007568359,      -88.7298583984
1494294927.8017590046,       -0.6870117188,        0.2465820312,       -0.0546875000,        5.7373046875,       13.8244628906,      -89.0960693359
1494294927.8043160439,       -0.6870117188,        0.2465820312,       -0.0546875000,        5.7373046875,       13.8244628906,      -89.0960693359
1494294927.8070731163,       -0.6870117188,        0.2412109375,       -0.0249023438,        8.3923339844,       14.2517089844,      -87.9211425781
1494294927.8096480370,       -0.6787109375,        0.2412109375,       -0.0249023438,        8.3923339844,       14.2517089844,      -87.9211425781
1494294927.8125379086,       -0.6787109375,        0.2412109375,       -0.0249023438,       11.4288330078,       13.7481689453,      -86.1968994141
1494294927.8152089119,       -0.6787109375,        0.2412109375,       -0.0249023438,       11.4288330078,       13.7481689453,      -86.1968994141
1494294927.8177731037,       -0.6440429688,        0.1977539062,       -0.0224609375,       13.6566162109,       12.5885009766,      -84.0606689453
1494294927.8203339577,       -0.6440429688,        0.1977539062,       -0.0224609375,       13.6566162109,       12.5885009766,      -84.0606689453
1494294927.8230319023,       -0.6440429688,        0.1977539062,       -0.0224609375,       13.0157470703,       10.0708007812,      -81.4666748047
1494294927.8257339001,       -0.6440429688,        0.1977539062,       -0.0224609375,       13.0157470703,       10.0708007812,      -81.4666748047
1494294927.8284330368,       -0.4501953125,        0.0000000000,        0.0463867188,       17.6696777344,        2.1514892578,      -87.3718261719
1494294927.8311619759,       -0.4501953125,        0.0000000000,        0.0463867188,       17.6696777344,        2.1514892578,      -87.3718261719
1494294927.8338589668,       -0.4501953125,        0.0000000000,        0.0463867188,       27.5421142578,        8.4381103516,      -87.4938964844
1494294927.8365569115,       -0.4501953125,        0.0000000000,        0.0463867188,       27.5421142578,        8.4381103516,      -87.4938964844
1494294927.8392570019,       -0.8549804688,        0.1289062500,        0.0410156250,       20.3704833984,       10.3912353516,      -79.0710449219
1494294927.8419120312,       -0.8549804688,        0.1289062500,        0.0410156250,       20.3704833984,       10.3912353516,      -79.0710449219
1494294927.8444719315,       -0.8549804688,        0.1289062500,        0.0410156250,       20.3704833984,       11.6882324219,      -73.6999511719
1494294927.8470299244,       -0.8549804688,        0.1289062500,        0.0620117188,       22.0642089844,       11.6882324219,      -73.6999511719
1494294927.8495919704,       -0.7583007812,        0.0517578125,        0.0620117188,       22.0642089844,       11.6882324219,      -70.5261230469
1494294927.8521559238,       -0.7583007812,        0.0517578125,        0.0620117188,       25.1312255859,       12.6647949219,      -70.5261230469
1494294927.8547170162,       -0.7583007812,        0.0517578125,        0.0620117188,       25.1312255859,       12.6647949219,      -66.6198730469
1494294927.8572750092,       -0.7583007812,        0.0517578125,        0.0981445312,       28.9611816406,       14.7857666016,      -66.8182373047
1494294927.8598330021,       -0.7207031250,        0.0068359375,        0.0981445312,       28.9611816406,       14.7857666016,      -66.8182373047
1494294927.8624401093,       -0.7207031250,        0.0068359375,        0.0981445312,       32.9742431641,       15.8691406250,      -62.6373291016
1494294927.8650000095,       -0.7207031250,        0.0068359375,        0.0981445312,       32.9742431641,       15.8691406250,      -62.6373291016
1494294927.8675661087,       -0.7207031250,       -0.0356445312,        0.1176757812,       34.9426269531,       16.6473388672,      -58.8836669922
1494294927.8701269627,       -0.7016601562,       -0.0356445312,        0.1176757812,       34.9426269531,       16.6473388672,      -58.8836669922
1494294927.8729200363,       -0.7016601562,       -0.0356445312,        0.1176757812,       35.3393554688,       16.7236328125,      -55.0842285156
1494294927.8756220341,       -0.7016601562,       -0.0356445312,        0.1176757812,       35.3393554688,       16.7236328125,      -55.0842285156
1494294927.8783199787,       -0.6728515625,       -0.1308593750,        0.1425781250,       32.7758789062,       15.5792236328,      -50.9490966797
1494294927.8810238838,       -0.6728515625,       -0.1308593750,        0.1425781250,       32.7758789062,       15.5792236328,      -50.9490966797
1494294927.8837249279,       -0.6728515625,       -0.1308593750,        0.1425781250,       26.3061523438,       14.5568847656,      -47.0275878906
1494294927.8864200115,       -0.6728515625,       -0.1308593750,        0.1425781250,       26.3061523438,       14.5568847656,      -47.0275878906
1494294927.8892300129,       -0.6655273438,       -0.2333984375,        0.1181640625,       18.8903808594,       12.5274658203,      -42.5262451172
1494294927.8919770718,       -0.6655273438,       -0.2333984375,        0.1181640625,       18.8903808594,       12.5274658203,      -42.5262451172
1494294927.8946740627,       -0.6655273438,       -0.2333984375,        0.1181640625,       10.9100341797,       10.9252929688,      -37.5213623047
1494294927.8973739147,       -0.6655273438,       -0.2333984375,        0.0307617188,       10.9100341797,       10.9252929688,      -37.5213623047
1494294927.9000709057,       -0.6894531250,       -0.2753906250,        0.0307617188,        0.9613037109,        8.8958740234,      -32.2113037109
1494294927.9026670456,       -0.6894531250,       -0.2753906250,        0.0307617188,        0.9613037109,        8.8958740234,      -32.2113037109
1494294927.9052209854,       -0.6894531250,       -0.2753906250,        0.0307617188,       -8.9263916016,        6.3018798828,      -26.4434814453
1494294927.9077670574,       -0.6894531250,       -0.1503906250,       -0.0708007812,       -8.9263916016,        6.3018798828,      -26.4434814453
1494294927.9103229046,       -0.7250976562,       -0.2397460938,       -0.0708007812,      -17.6239013672,        4.1503906250,      -19.8211669922
1494294927.9130110741,       -0.7250976562,       -0.2397460938,       -0.0708007812,      -17.6239013672,        4.1503906250,      -19.8211669922
1494294927.9157071114,       -0.7250976562,       -0.2397460938,       -0.0708007812,      -25.6042480469,        2.4414062500,      -12.7410888672
1494294927.9184079170,       -0.7436523438,       -0.1118164062,       -0.1289062500,      -25.6042480469,        2.4414062500,      -12.7410888672
1494294927.9211471081,       -0.7436523438,       -0.1118164062,       -0.1289062500,      -30.7464599609,        0.5340576172,       -5.5847167969
1494294927.9238390923,       -0.7436523438,       -0.1118164062,       -0.1289062500,      -30.7464599609,        0.5340576172,       -5.5847167969
1494294927.9265348911,       -0.7436523438,       -0.1118164062,       -0.1289062500,      -33.7829589844,       -1.2054443359,        0.7019042969
1494294927.9293279648,       -0.7392578125,       -0.0039062500,       -0.1337890625,      -33.7829589844,       -1.2054443359,        0.7019042969
1494294927.9321761131,       -0.7392578125,       -0.0039062500,       -0.1337890625,      -33.1115722656,       -3.0212402344,        5.7220458984
1494294927.9348740578,       -0.7392578125,       -0.0039062500,       -0.1337890625,      -33.1115722656,       -3.0212402344,        5.7220458984
1494294927.9375710487,       -0.7392578125,       -0.0039062500,       -0.0087890625,      -31.7230224609,       -5.2795410156,       11.1694335938
1494294927.9402720928,       -0.7446289062,        0.0786132812,       -0.1245117188,      -31.7230224609,       -5.2795410156,       11.1694335938
1494294927.9429829121,       -0.7446289062,        0.0786132812,       -0.1245117188,      -28.8391113281,       -7.0648193359,       16.2506103516
1494294927.9456889629,       -0.7446289062,        0.0786132812,       -0.1245117188,      -28.8391113281,       -7.0648193359,       16.2506103516
1494294927.9483819008,       -0.7446289062,        0.0673828125,       -0.1264648438,      -24.9176025391,       -8.1634521484,       21.5301513672
1494294927.9510600567,       -0.7670898438,        0.0673828125,       -0.1264648438,      -24.9176025391,       -8.1634521484,       21.5301513672
1494294927.9536249638,       -0.7670898438,        0.0673828125,       -0.1264648438,      -21.5301513672,       -9.4757080078,       26.0620117188
1494294927.9561760426,       -0.7670898438,        0.0673828125,       -0.1264648438,      -21.5301513672,       -9.4757080078,       26.0620117188
1494294927.9587309361,       -0.7583007812,       -0.0468750000,       -0.0986328125,      -21.5301513672,      -11.2609863281,       30.0750732422
1494294927.9614479542,       -0.7583007812,       -0.0468750000,       -0.0986328125,      -19.0429687500,      -11.2609863281,       30.0750732422
1494294927.9640100002,       -0.7583007812,       -0.0468750000,       -0.0986328125,      -19.0429687500,      -15.1672363281,       34.1186523438
1494294927.9665789604,       -0.7583007812,       -0.0468750000,       -0.0986328125,      -17.3034667969,      -12.9241943359,       34.1186523438
1494294927.9691410065,       -0.7514648438,       -0.0913085938,       -0.0571289062,      -17.3034667969,      -12.9241943359,       37.6281738281
1494294927.9717469215,       -0.7514648438,       -0.0913085938,       -0.0571289062,      -16.8304443359,      -15.2435302734,       37.6281738281
1494294927.9743089676,       -0.7514648438,       -0.0913085938,       -0.0571289062,      -16.8304443359,      -15.2435302734,       37.6281738281
1494294927.9768660069,       -0.7514648438,       -0.0913085938,       -0.0571289062,      -17.6239013672,      -17.2576904297,       40.9851074219
1494294927.9794239998,       -0.7534179688,       -0.0449218750,       -0.0424804688,      -17.6239013672,      -17.2576904297,       40.9851074219
1494294927.9821069241,       -0.7534179688,       -0.0449218750,       -0.0424804688,      -18.8293457031,      -18.8903808594,       43.4112548828
1494294927.9846680164,       -0.7534179688,       -0.0449218750,       -0.0424804688,      -18.8293457031,      -18.8903808594,       43.4112548828
1494294927.9872319698,       -0.7534179688,       -0.0449218750,       -0.0424804688,      -20.3399658203,      -20.4925537109,       45.6237792969
1494294927.9897880554,       -0.7382812500,        0.0249023438,       -0.0244140625,      -20.3399658203,      -20.4925537109,       45.6237792969
1494294927.9925229549,       -0.7382812500,        0.0249023438,       -0.0244140625,      -20.5993652344,      -21.5148925781,       47.9888916016
1494294927.9952290058,       -0.7382812500,        0.0249023438,       -0.0244140625,      -20.5993652344,      -21.5148925781,       47.9888916016
1494294927.9979250431,       -0.7382812500,        0.0249023438,       -0.0244140625,      -19.3328857422,      -22.3999023438,       50.0183105469
1494294928.0006229877,       -0.7451171875,        0.0966796875,       -0.0136718750,      -19.3328857422,      -22.3999023438,       50.0183105469
1494294928.0032320023,       -0.7451171875,        0.0966796875,       -0.0136718750,      -17.3492431641,      -23.7579345703,       51.5136718750
1494294928.0057930946,       -0.7451171875,        0.0966796875,       -0.0136718750,      -17.3492431641,      -23.7579345703,       51.5136718750
1494294928.0083570480,       -0.7451171875,        0.0966796875,       -0.0258789062,      -14.1296386719,      -23.5137939453,       52.2308349609
1494294928.0109710693,       -0.7338867188,        0.1049804688,       -0.0258789062,      -14.1296386719,      -23.5137939453,       52.2308349609
1494294928.0136740208,       -0.7338867188,        0.1049804688,       -0.0258789062,      -10.5438232422,      -22.5067138672,       52.5512695312
1494294928.0163800716,       -0.7338867188,        0.1049804688,       -0.0258789062,      -10.5438232422,      -22.5067138672,       52.5512695312
1494294928.0190780163,       -0.7338867188,        0.1406250000,        0.0092773438,       -7.3394775391,      -22.4761962891,       52.3681640625
1494294928.0217380524,       -0.7294921875,        0.1406250000,        0.0092773438,       -7.3394775391,      -22.4761962891,       52.3681640625
1494294928.0243010521,       -0.7294921875,        0.1406250000,        0.0092773438,       -7.3394775391,      -22.2320556641,       51.8341064453
1494294928.0268530846,       -0.7294921875,        0.1406250000,        0.0092773438,       -4.1656494141,      -22.2320556641,       51.8341064453
1494294928.0294148922,       -0.7348632812,        0.1850585938,        0.0400390625,       -4.1656494141,      -19.3023681641,       50.8728027344
1494294928.0320808887,       -0.7348632812,        0.1850585938,        0.0400390625,       -0.5950927734,      -19.3023681641,       50.8728027344
1494294928.0347459316,       -0.7348632812,        0.1850585938,        0.0400390625,       -0.5950927734,      -19.3023681641,       50.6134033203
1494294928.0373098850,       -0.7348632812,        0.1850585938,        0.0400390625,        0.7019042969,      -18.7225341797,       50.6134033203
1494294928.0398650169,       -0.6938476562,        0.2021484375,        0.0722656250,        0.7019042969,      -18.7225341797,       49.7589111328
1494294928.0425860882,       -0.6938476562,        0.2021484375,        0.0722656250,        2.1820068359,      -17.7154541016,       49.7589111328
1494294928.0452890396,       -0.6938476562,        0.2021484375,        0.0722656250,        2.1820068359,      -17.7154541016,       49.8046875000
1494294928.0481579304,       -0.6938476562,        0.2021484375,        0.0722656250,        2.8076171875,      -17.4407958984,       49.8046875000
1494294928.0512869358,       -0.6860351562,        0.1674804688,        0.0371093750,        2.8076171875,      -15.1977539062,       49.8046875000
1494294928.0538480282,       -0.6860351562,        0.1674804688,        0.0371093750,        2.8686523438,      -15.1977539062,       49.8046875000
1494294928.0564060211,       -0.6860351562,        0.1674804688,        0.0371093750,        2.8686523438,      -15.1977539062,       50.0946044922
1494294928.0589659214,       -0.6860351562,        0.0424804688,        0.0405273438,        0.7324218750,      -14.2364501953,       50.0946044922
1494294928.0616030693,       -0.6347656250,        0.0898437500,        0.0405273438,        0.7324218750,      -14.2364501953,       49.4079589844
1494294928.0643041134,       -0.6347656250,        0.0898437500,        0.0405273438,       -2.1362304688,      -12.9699707031,       49.4079589844
1494294928.0669980049,       -0.6347656250,        0.0898437500,        0.0405273438,       -2.1362304688,      -12.9699707031,       49.8657226562
1494294928.0696930885,       -0.6342773438,        0.0810546875,        0.0341796875,       -6.3018798828,      -13.3972167969,       49.8657226562
1494294928.0724029541,       -0.6342773438,        0.0810546875,        0.0341796875,       -6.3018798828,      -13.3972167969,       51.0253906250
1494294928.0750970840,       -0.6342773438,        0.0810546875,        0.0341796875,      -10.7116699219,      -14.0533447266,       51.0253906250
1494294928.0778000355,       -0.6342773438,        0.0810546875,        0.0341796875,      -10.7116699219,      -14.0533447266,       51.0253906250
1494294928.0805020332,       -0.6748046875,        0.1269531250,        0.0312500000,      -14.1296386719,      -14.5416259766,       51.4221191406
1494294928.0830810070,       -0.6748046875,        0.1269531250,        0.0312500000,      -14.1296386719,      -14.5416259766,       51.4221191406
1494294928.0856430531,       -0.6748046875,        0.1269531250,        0.0312500000,      -16.2200927734,      -14.6789550781,       52.4139404297
1494294928.0882029533,       -0.6748046875,        0.1269531250,        0.0312500000,      -16.2200927734,      -14.6789550781,       52.4139404297
1494294928.0907599926,       -0.7363281250,        0.1669921875,        0.0112304688,      -17.5933837891,      -14.7399902344,       53.9245605469
1494294928.0933270454,       -0.7363281250,        0.1669921875,        0.0112304688,      -17.5933837891,      -14.7399902344,       53.9245605469
1494294928.0958890915,       -0.7363281250,        0.1669921875,        0.0112304688,      -18.4631347656,      -14.6484375000,       55.7098388672
1494294928.0984430313,       -0.7363281250,        0.1669921875,        0.0112304688,      -18.4631347656,      -14.6484375000,       55.7098388672
1494294928.1011281013,       -0.7045898438,        0.1777343750,        0.0288085938,      -15.9454345703,      -14.2059326172,       57.0678710938
1494294928.1036899090,       -0.7045898438,        0.1777343750,        0.0288085938,      -15.9454345703,      -14.2059326172,       57.0678710938
1494294928.1062519550,       -0.7045898438,        0.1777343750,        0.0288085938,      -12.9547119141,      -13.0615234375,       57.3577880859
1494294928.1089189053,       -0.7045898438,        0.1777343750,        0.0288085938,      -12.9547119141,      -13.0615234375,       57.3577880859
1494294928.1116909981,       -0.7050781250,        0.1557617188,        0.0268554688,       -9.7198486328,      -11.5356445312,       57.2204589844
1494294928.1143929958,       -0.7050781250,        0.1557617188,        0.0268554688,       -9.7198486328,      -11.5356445312,       57.2204589844
1494294928.1170918941,       -0.7050781250,        0.1557617188,        0.0268554688,       -7.9040527344,       -9.8266601562,       56.6558837891
1494294928.1197869778,       -0.7050781250,        0.0717773438,        0.0620117188,       -7.9040527344,       -9.8266601562,       56.6558837891
1494294928.1224880219,       -0.6875000000,        0.0717773438,        0.0620117188,       -6.8969726562,       -8.7890625000,       55.5877685547
1494294928.1251759529,       -0.6875000000,        0.0717773438,        0.0620117188,       -6.8969726562,       -8.7890625000,       55.5877685547
1494294928.1278719902,       -0.6875000000,        0.0717773438,        0.0620117188,       -8.6975097656,       -9.5367431641,       55.4351806641
1494294928.1305630207,       -0.7084960938,        0.1518554688,        0.0722656250,       -8.6975097656,       -9.5367431641,       55.4351806641
1494294928.1332690716,       -0.7084960938,        0.1518554688,        0.0722656250,       -8.0566406250,      -11.1999511719,       55.9844970703
1494294928.1359701157,       -0.7084960938,        0.1518554688,        0.0722656250,       -8.0566406250,      -11.1999511719,       55.9844970703
1494294928.1386649609,       -0.7084960938,        0.1518554688,        0.0722656250,       -2.7923583984,      -11.4135742188,       55.1757812500
1494294928.1413679123,       -0.7583007812,        0.3291015625,       -0.0468750000,       -2.7923583984,      -11.4135742188,       55.1757812500
1494294928.1440629959,       -0.7583007812,        0.3291015625,       -0.0468750000,        2.9754638672,      -10.8947753906,       53.5430908203
1494294928.1467590332,       -0.7583007812,        0.3291015625,       -0.0468750000,        2.9754638672,      -10.8947753906,       53.5430908203
1494294928.1494579315,       -0.7583007812,        0.3291015625,       -0.1083984375,       11.5356445312,       -9.2468261719,       51.9714355469
1494294928.1522181034,       -0.7294921875,        0.3168945312,       -0.1083984375,       11.5356445312,       -9.2468261719,       51.9714355469
1494294928.1547739506,       -0.7294921875,        0.3168945312,       -0.1083984375,       11.5356445312,       -9.3841552734,       50.4608154297
1494294928.1573350430,       -0.7294921875,        0.3168945312,       -0.1083984375,       12.0239257812,       -9.3841552734,       50.4608154297
1494294928.1598949432,       -0.7294921875,        0.1918945312,       -0.0131835938,       12.0239257812,       -9.3841552734,       49.1485595703
1494294928.1626069546,       -0.6684570312,        0.2451171875,       -0.0131835938,        7.5836181641,      -10.8337402344,       49.1485595703
1494294928.1653048992,       -0.6684570312,        0.2451171875,       -0.0131835938,        7.5836181641,      -11.7645263672,       48.0957031250
1494294928.1682128906,       -0.6684570312,        0.2451171875,       -0.0131835938,        7.4157714844,      -11.7645263672,       48.0957031250
1494294928.1713480949,       -0.6684570312,        0.2089843750,        0.0649414062,        9.1247558594,      -13.3819580078,       46.4782714844
1494294928.1740438938,       -0.6684570312,        0.2089843750,        0.0649414062,        9.1247558594,      -13.3819580078,       46.4782714844
1494294928.1767420769,       -0.6684570312,        0.2089843750,        0.0649414062,        8.5906982422,      -16.9372558594,       44.3115234375
1494294928.1794400215,       -0.6684570312,        0.2089843750,        0.0649414062,        8.5906982422,      -16.9372558594,       44.3115234375
1494294928.1822769642,       -0.7114257812,        0.1728515625,        0.0175781250,        8.6517333984,      -20.8892822266,       42.5109863281
1494294928.1849811077,       -0.7114257812,        0.1728515625,        0.0175781250,        8.6517333984,      -20.8892822266,       42.5109863281
1494294928.1876759529,       -0.7114257812,        0.1728515625,        0.0175781250,        9.6435546875,      -22.5677490234,       40.8782958984
1494294928.1903729439,       -0.7114257812,        0.2729492188,        0.0039062500,        9.6435546875,      -22.5677490234,       40.8782958984
1494294928.1930840015,       -0.8608398438,        0.2729492188,        0.0039062500,       11.6882324219,      -22.8118896484,       37.8875732422
1494294928.1957800388,       -0.8608398438,        0.2729492188,        0.0039062500,       11.6882324219,      -22.8118896484,       37.8875732422
1494294928.1984779835,       -0.8608398438,        0.2729492188,        0.0039062500,       13.4887695312,      -23.3459472656,       33.2946777344
1494294928.2011709213,       -0.7724609375,        0.4086914062,        0.0478515625,       13.4887695312,      -23.3459472656,       33.2946777344
1494294928.2037250996,       -0.7724609375,        0.4086914062,        0.0478515625,       13.4887695312,      -24.3530273438,       26.7486572266
1494294928.2062840462,       -0.7724609375,        0.4086914062,        0.0478515625,       18.5241699219,      -24.3530273438,       26.7486572266
1494294928.2088389397,       -0.7724609375,        0.4086914062,        0.0478515625,       18.5241699219,      -24.3530273438,       19.2718505859
1494294928.2114028931,       -0.7871093750,        0.3881835938,        0.0996093750,       26.9470214844,      -23.2086181641,       19.2718505859
1494294928.2139708996,       -0.7871093750,        0.3881835938,        0.0996093750,       26.9470214844,      -23.2086181641,       15.3656005859
1494294928.2165329456,       -0.7871093750,        0.3881835938,        0.0996093750,       31.4483642578,      -21.8811035156,       13.2293701172
1494294928.2190968990,       -0.7871093750,        0.3881835938,        0.0996093750,       31.4483642578,      -21.8811035156,       13.2293701172
1494294928.2218210697,       -0.8857421875,        0.3354492188,        0.1040039062,       34.6832275391,      -19.6380615234,        5.9661865234
1494294928.2243740559,       -0.8857421875,        0.3354492188,        0.1040039062,       34.6832275391,      -19.6380615234,        5.9661865234
1494294928.2269289494,       -0.8857421875,        0.3354492188,        0.1040039062,       34.6527099609,      -18.5852050781,       -1.9989013672
1494294928.2294840813,       -0.8857421875,        0.3354492188,        0.1040039062,       34.6527099609,      -18.5852050781,       -1.9989013672
1494294928.2322719097,       -0.9086914062,        0.2861328125,        0.1230468750,       32.6843261719,      -18.3868408203,       -9.5214843750
1494294928.2349700928,       -0.9086914062,        0.2861328125,        0.1230468750,       32.6843261719,      -18.3868408203,       -9.5214843750
1494294928.2376630306,       -0.9086914062,        0.2861328125,        0.1230468750,       31.6467285156,      -16.6778564453,      -17.3339843750
1494294928.2403650284,       -0.9086914062,        0.4111328125,        0.1435546875,       31.6467285156,      -16.6778564453,      -17.3339843750
1494294928.2430670261,       -0.8793945312,        0.4023437500,        0.1435546875,       34.8358154297,      -12.9547119141,      -25.5279541016
1494294928.2457609177,       -0.8793945312,        0.4023437500,        0.1435546875,       34.8358154297,      -12.9547119141,      -25.5279541016
1494294928.2484569550,       -0.8793945312,        0.4023437500,        0.1435546875,       41.2139892578,       -8.4838867188,      -35.4461669922
1494294928.2511470318,       -0.8867187500,        0.4804687500,        0.1240234375,       41.2139892578,       -8.4838867188,      -35.4461669922
1494294928.2536940575,       -0.8867187500,        0.4804687500,        0.1240234375,       50.2929687500,       -3.9825439453,      -47.8515625000
1494294928.2563569546,       -0.8867187500,        0.4804687500,        0.1240234375,       50.2929687500,       -3.9825439453,      -47.8515625000
1494294928.2589070797,       -0.8867187500,        0.4804687500,        0.1240234375,       61.0504150391,        2.0141601562,      -64.4836425781
1494294928.2615571022,       -0.9345703125,        0.4082031250,        0.1303710938,       61.0504150391,        2.0141601562,      -64.4836425781
1494294928.2642560005,       -0.9345703125,        0.4082031250,        0.1303710938,       69.1070556641,        8.4381103516,      -77.3925781250
1494294928.2669448853,       -0.9345703125,        0.4082031250,        0.1303710938,       69.1070556641,        8.4381103516,      -77.3925781250
1494294928.2696449757,       -0.9345703125,        0.4082031250,        0.1303710938,       71.9146728516,       15.3808593750,      -88.3789062500
1494294928.2723879814,       -1.0488281250,        0.3969726562,        0.0781250000,       71.9146728516,       15.3808593750,      -88.3789062500
1494294928.2750849724,       -1.0488281250,        0.3969726562,        0.0781250000,       74.0203857422,       21.3623046875,      -99.8992919922
1494294928.2777841091,       -1.0488281250,        0.3969726562,        0.0781250000,       74.0203857422,       21.3623046875,      -99.8992919922
1494294928.2804830074,       -1.0488281250,        0.3969726562,       -0.0629882812,       75.4699707031,       27.4810791016,     -109.9700927734
1494294928.2832009792,       -1.1875000000,        0.4570312500,       -0.0629882812,       75.4699707031,       27.4810791016,     -109.9700927734
1494294928.2858960629,       -1.1875000000,        0.4570312500,       -0.0629882812,       77.4688720703,       35.6903076172,     -123.8555908203
1494294928.2887079716,       -1.1875000000,        0.4570312500,       -0.0629882812,       77.4688720703,       35.6903076172,     -123.8555908203
1494294928.2916278839,       -1.5771484375,        0.3110351562,       -0.2817382812,       76.0498046875,       41.4123535156,     -142.2271728516
1494294928.2943329811,       -1.5771484375,        0.3110351562,       -0.2817382812,       76.0498046875,       41.4123535156,     -142.2271728516
1494294928.2970380783,       -1.5771484375,        0.3110351562,       -0.2817382812,       72.5402832031,       46.6308593750,     -149.6887207031
1494294928.2997379303,       -1.5771484375,        0.3110351562,       -0.2817382812,       72.5402832031,       46.6308593750,     -149.6887207031
1494294928.3023679256,       -2.0917968750,        0.2480468750,       -0.4931640625,       64.4531250000,       55.9082031250,     -153.0609130859
1494294928.3049259186,       -2.0917968750,        0.2480468750,       -0.4931640625,       64.4531250000,       55.9082031250,     -153.0609130859
1494294928.3074820042,       -2.0917968750,        0.2480468750,       -0.4931640625,       61.1877441406,       56.9458007812,     -149.1699218750
1494294928.3100490570,       -2.0917968750,        0.2480468750,       -0.4931640625,       61.1877441406,       56.9458007812,     -149.1699218750
1494294928.3127799034,       -2.2294921875,       -0.0180664062,       -0.5976562500,       71.7620849609,       52.6733398438,     -138.7176513672
1494294928.3154780865,       -2.2294921875,       -0.0180664062,       -0.5976562500,       71.7620849609,       52.6733398438,     -138.7176513672
1494294928.3181779385,       -2.2294921875,       -0.0180664062,       -0.5976562500,       83.4808349609,       50.3997802734,     -129.1961669922
1494294928.3209140301,       -2.2294921875,       -0.0180664062,       -0.4238281250,       85.5102539062,       50.3997802734,     -129.1961669922
1494294928.3234701157,       -1.8271484375,       -0.3173828125,       -0.4238281250,       85.5102539062,       49.9114990234,     -124.1607666016
1494294928.3260378838,       -1.8271484375,       -0.3173828125,       -0.4238281250,      100.1281738281,       49.9114990234,     -124.1607666016
1494294928.3285911083,       -1.8271484375,       -0.3173828125,       -0.4238281250,      100.1281738281,       49.9114990234,     -123.9318847656
1494294928.3312909603,       -1.8271484375,       -0.5673828125,       -0.2089843750,      112.9913330078,       49.8046875000,     -123.9318847656
1494294928.3338489532,       -1.0517578125,       -0.5625000000,       -0.2089843750,      112.9913330078,       49.8046875000,     -120.4223632812
1494294928.3364078999,       -1.0517578125,       -0.5625000000,       -0.2089843750,      116.1804199219,       46.2036132812,     -120.4223632812
1494294928.3389699459,       -1.0517578125,       -0.5625000000,       -0.2089843750,      116.1804199219,       46.2036132812,     -112.6098632812
1494294928.3416690826,       -1.0517578125,       -0.6840820312,       -0.0615234375,      124.3286132812,       49.5452880859,     -111.7553710938
1494294928.3442220688,       -0.5717773438,       -0.6840820312,       -0.0615234375,      124.3286132812,       49.5452880859,     -111.7553710938
1494294928.3467829227,       -0.5717773438,       -0.6840820312,       -0.0615234375,      133.0718994141,       53.4057617188,     -107.4066162109
1494294928.3493421078,       -0.5717773438,       -0.6840820312,       -0.0615234375,      133.0718994141,       53.4057617188,     -107.4066162109
1494294928.3521070480,       -0.4965820312,       -0.4311523438,        0.1079101562,      131.5460205078,       52.9327392578,     -114.4409179688
1494294928.3548109531,       -0.4965820312,       -0.4311523438,        0.1079101562,      131.5460205078,       52.9327392578,     -114.4409179688
1494294928.3575100899,       -0.4965820312,       -0.4311523438,        0.1079101562,      119.3847656250,       41.2597656250,     -133.0413818359
1494294928.3602199554,       -0.4965820312,       -0.4311523438,        0.1079101562,      119.3847656250,       41.2597656250,     -133.0413818359
1494294928.3629589081,       -0.9462890625,        0.6875000000,        0.2690429688,      114.5935058594,       34.4390869141,     -134.1705322266
1494294928.3656530380,       -0.9462890625,        0.6875000000,        0.2690429688,      114.5935058594,       34.4390869141,     -134.1705322266
1494294928.3683509827,       -0.9462890625,        0.6875000000,        0.2690429688,       94.8791503906,       36.9873046875,     -117.0043945312
1494294928.3710589409,       -0.9462890625,        0.6875000000,        0.3940429688,       94.8791503906,       36.9873046875,     -117.0043945312
1494294928.3737568855,       -1.0161132812,        1.3945312500,        0.4204101562,       69.2749023438,       41.9769287109,     -107.9711914062
1494294928.3764588833,       -1.0161132812,        1.3945312500,        0.4204101562,       69.2749023438,       41.9769287109,     -107.9711914062
1494294928.3791530132,       -1.0161132812,        1.3945312500,        0.4204101562,       58.4106445312,       41.8548583984,     -102.7984619141
1494294928.3818569183,       -1.0161132812,        1.2944335938,        0.5253906250,       58.4106445312,       41.8548583984,     -102.7984619141
1494294928.3845539093,       -0.0312500000,        1.2944335938,        0.5253906250,       41.8243408203,       36.4837646484,      -82.9772949219
1494294928.3872499466,       -0.0312500000,        1.2944335938,        0.5253906250,       41.8243408203,       36.4837646484,      -82.9772949219
1494294928.3899500370,       -0.0312500000,        1.2944335938,        0.5253906250,       19.2260742188,       24.7344970703,      -55.2673339844
1494294928.3925600052,        0.0380859375,        1.1010742188,        0.7299804688,       19.2260742188,       24.7344970703,      -55.2673339844
1494294928.3951160908,        0.0380859375,        1.1010742188,        0.7299804688,       -2.7313232422,        8.7738037109,      -36.7431640625
1494294928.3976719379,        0.0380859375,        1.1010742188,        0.7299804688,       -2.7313232422,        8.7738037109,      -36.7431640625
1494294928.4002230167,        0.0380859375,        1.1010742188,        0.7299804688,       -9.1247558594,        6.2255859375,      -25.7873535156
1494294928.4028799534,       -0.1816406250,        0.4580078125,        0.2890625000,       -9.1247558594,        6.2255859375,      -25.7873535156
1494294928.4054288864,       -0.1816406250,        0.4580078125,        0.2890625000,        7.1411132812,       -1.7089843750,       -5.6152343750
1494294928.4081819057,       -0.1816406250,        0.4580078125,        0.2890625000,        7.1411132812,       -1.7089843750,       -5.6152343750
1494294928.4110870361,       -0.1816406250,        0.4580078125,        0.2890625000,       16.3116455078,       -9.5825195312,       14.7552490234
1494294928.4137899876,       -0.2080078125,        0.3271484375,        0.1347656250,       16.3116455078,       -9.5825195312,       14.7552490234
1494294928.4164950848,       -0.2080078125,        0.3271484375,        0.1347656250,       24.7192382812,      -15.6250000000,       30.6854248047
1494294928.4191930294,       -0.2080078125,        0.3271484375,        0.1347656250,       24.7192382812,      -15.6250000000,       30.6854248047
1494294928.4218990803,       -0.2080078125,        0.3271484375,        0.0937500000,       32.6232910156,      -19.2565917969,       41.1529541016
1494294928.4246010780,       -0.2749023438,        0.2827148438,        0.0937500000,       32.6232910156,      -19.2565917969,       41.1529541016
1494294928.4272999763,       -0.2749023438,        0.2827148438,        0.0937500000,       29.4647216797,      -19.0124511719,       42.3431396484
1494294928.4299950600,       -0.2749023438,        0.2827148438,        0.0937500000,       29.4647216797,      -19.0124511719,       42.3431396484
1494294928.4326989651,       -0.1503906250,       -0.0537109375,        0.0488281250,       22.4151611328,      -18.5546875000,       39.6118164062
1494294928.4353981018,       -0.1503906250,       -0.0537109375,        0.0488281250,       22.4151611328,      -18.5546875000,       39.6118164062
1494294928.4381029606,       -0.1503906250,       -0.0537109375,        0.0488281250,       11.0168457031,      -17.2729492188,       35.2478027344
1494294928.4408121109,       -0.1503906250,       -0.0537109375,        0.0488281250,       11.0168457031,      -17.2729492188,       35.2478027344
1494294928.4433679581,       -0.0673828125,       -0.3618164062,       -0.0537109375,       -0.7019042969,      -15.2587890625,       27.6184082031
1494294928.4459300041,       -0.0673828125,       -0.3618164062,       -0.0537109375,       -1.8920898438,      -15.2587890625,       27.6184082031
1494294928.4484789371,       -0.0673828125,       -0.3618164062,       -0.0537109375,       -1.8920898438,      -15.2587890625,       18.6462402344
1494294928.4510350227,       -0.0673828125,       -0.3618164062,       -0.0537109375,      -14.0838623047,      -13.2293701172,       18.6462402344
1494294928.4536039829,       -0.0522460938,       -0.4248046875,       -0.1142578125,      -14.0838623047,      -13.2293701172,       10.1928710938
1494294928.4561600685,       -0.0522460938,       -0.4248046875,       -0.1142578125,      -25.1464843750,      -11.5509033203,       10.1928710938
1494294928.4587230682,       -0.0522460938,       -0.4248046875,       -0.1142578125,      -25.1464843750,      -11.5509033203,        2.3803710938
1494294928.4614489079,       -0.0522460938,       -0.4248046875,       -0.1142578125,      -35.3393554688,      -10.0708007812,        1.0986328125
1494294928.4639959335,       -0.0327148438,       -0.3706054688,       -0.0747070312,      -35.3393554688,      -10.0708007812,        1.0986328125
1494294928.4665529728,       -0.0327148438,       -0.3706054688,       -0.0747070312,      -46.8902587891,       -9.1857910156,       -6.9427490234
1494294928.4691050053,       -0.0327148438,       -0.3706054688,       -0.0747070312,      -46.8902587891,       -9.1857910156,       -6.9427490234
1494294928.4718561172,       -0.0327148438,       -0.3706054688,       -0.0747070312,      -58.1665039062,       -9.1552734375,      -14.4805908203
1494294928.4745569229,        0.0097656250,       -0.2890625000,       -0.0439453125,      -58.1665039062,       -9.1552734375,      -14.4805908203
1494294928.4773681164,        0.0097656250,       -0.2890625000,       -0.0439453125,      -68.8781738281,       -9.1705322266,      -20.9960937500
1494294928.4800679684,        0.0097656250,       -0.2890625000,       -0.0439453125,      -68.8781738281,       -9.1705322266,      -20.9960937500
1494294928.4827730656,        0.0097656250,       -0.2216796875,       -0.0190429688,      -79.4372558594,       -8.2550048828,      -26.4739990234
1494294928.4854691029,        0.0034179688,       -0.2216796875,       -0.0190429688,      -79.4372558594,       -8.2550048828,      -26.4739990234
1494294928.4881699085,        0.0034179688,       -0.2216796875,       -0.0190429688,      -87.8448486328,       -7.7819824219,      -31.4636230469
1494294928.4909060001,        0.0034179688,       -0.2216796875,       -0.0190429688,      -87.8448486328,       -7.7819824219,      -31.4636230469
1494294928.4934630394,       -0.0004882812,       -0.1459960938,       -0.0273437500,      -92.0257568359,       -7.5683593750,      -34.8052978516
1494294928.4960238934,       -0.0004882812,       -0.1459960938,       -0.0273437500,      -92.0257568359,       -7.5683593750,      -34.8052978516
1494294928.4985809326,       -0.0004882812,       -0.1459960938,       -0.0273437500,      -93.9636230469,       -7.6446533203,      -36.9415283203
1494294928.5012009144,       -0.0004882812,       -0.1459960938,       -0.0273437500,      -93.9636230469,       -7.6446533203,      -36.9415283203
1494294928.5038928986,       -0.0185546875,       -0.0639648438,       -0.0297851562,      -92.4682617188,       -7.0037841797,      -37.8875732422
1494294928.5065810680,       -0.0185546875,       -0.0639648438,       -0.0297851562,      -92.4682617188,       -7.0037841797,      -37.8875732422
1494294928.5092771053,       -0.0185546875,       -0.0639648438,       -0.0297851562,      -86.1358642578,       -6.0577392578,      -37.4603271484
1494294928.5119791031,       -0.0185546875,       -0.0639648438,       -0.0297851562,      -86.1358642578,       -6.0577392578,      -37.4603271484
1494294928.5146679878,       -0.0268554688,        0.0419921875,       -0.0727539062,      -71.9146728516,       -3.3874511719,      -35.6597900391
1494294928.5173649788,       -0.0268554688,        0.0419921875,       -0.0727539062,      -71.9146728516,       -3.3874511719,      -35.6597900391
1494294928.5200591087,       -0.0268554688,        0.0419921875,       -0.0727539062,      -50.9643554688,       -0.8087158203,      -31.1279296875
1494294928.5227720737,       -0.0268554688,       -0.0830078125,       -0.0854492188,      -50.9643554688,       -0.8087158203,      -31.1279296875
1494294928.5254719257,        0.0112304688,       -0.0214843750,       -0.0854492188,      -32.1655273438,       -0.7781982422,      -24.6887207031
1494294928.5282909870,        0.0112304688,       -0.0214843750,       -0.0854492188,      -32.1655273438,       -0.7781982422,      -24.6887207031
1494294928.5313720703,        0.0112304688,       -0.0214843750,       -0.0854492188,      -20.0042724609,       -2.0904541016,      -17.5781250000
1494294928.5340709686,        0.0019531250,       -0.0356445312,       -0.0307617188,      -20.0042724609,       -2.0904541016,      -17.5781250000
1494294928.5367739201,        0.0019531250,       -0.0356445312,       -0.0307617188,       -9.5062255859,       -5.7525634766,       -8.0718994141
1494294928.5394690037,        0.0019531250,       -0.0356445312,       -0.0307617188,       -9.5062255859,       -5.7525634766,       -8.0718994141
1494294928.5420920849,        0.0019531250,       -0.0356445312,       -0.0307617188,        0.9613037109,       -8.1634521484,        0.9002685547
1494294928.5446419716,       -0.0810546875,        0.1518554688,        0.0029296875,        0.9613037109,       -8.1634521484,        0.9002685547
1494294928.5471870899,       -0.0810546875,        0.1518554688,        0.0029296875,       12.9547119141,       -9.6282958984,       10.1776123047
1494294928.5497400761,       -0.0810546875,        0.1518554688,        0.0029296875,       12.9547119141,       -9.6282958984,       10.1776123047
1494294928.5525379181,       -0.0810546875,        0.1518554688,        0.0029296875,       27.1759033203,      -10.5285644531,       21.6217041016
1494294928.5552399158,       -0.0444335938,        0.3793945312,        0.0488281250,       27.1759033203,      -10.5285644531,       21.6217041016
1494294928.5579431057,       -0.0444335938,        0.3793945312,        0.0488281250,       39.0014648438,      -12.4359130859,       34.6374511719
1494294928.5606811047,       -0.0444335938,        0.3793945312,        0.0488281250,       39.0014648438,      -12.4359130859,       34.6374511719
1494294928.5632410049,       -0.0444335938,        0.5043945312,        0.0942382812,       45.7458496094,      -16.2658691406,       48.1872558594
1494294928.5658071041,       -0.0610351562,        0.5756835938,        0.0942382812,       45.7458496094,      -16.2658691406,       48.1872558594
1494294928.5683670044,       -0.0610351562,        0.5756835938,        0.0942382812,       45.7458496094,      -18.8293457031,       60.8062744141
1494294928.5709800720,       -0.0610351562,        0.5756835938,        0.0942382812,       49.6826171875,      -18.8293457031,       60.8062744141
1494294928.5735459328,       -0.0610351562,        0.6738281250,        0.0883789062,       49.6826171875,      -18.8293457031,       72.0062255859
1494294928.5761079788,       -0.1196289062,        0.6738281250,        0.0883789062,       50.9796142578,      -19.4396972656,       72.0062255859
1494294928.5786709785,       -0.1196289062,        0.6738281250,        0.0883789062,       50.9796142578,      -19.4396972656,       79.8187255859
1494294928.5813739300,       -0.1196289062,        0.6738281250,        0.0883789062,       50.3997802734,      -19.3939208984,       81.6040039062
1494294928.5839350224,       -0.1420898438,        0.7788085938,        0.0722656250,       50.3997802734,      -19.3939208984,       81.6040039062
1494294928.5864999294,       -0.1420898438,        0.7788085938,        0.0722656250,       49.3164062500,      -20.7519531250,       88.2873535156
1494294928.5890600681,       -0.1420898438,        0.7788085938,        0.0722656250,       49.3164062500,      -20.7519531250,       88.2873535156
1494294928.5917320251,       -0.1420898438,        0.7788085938,        0.0722656250,       26.6113281250,      -27.1453857422,       90.5303955078
1494294928.5942959785,       -0.1752929688,        2.3618164062,        0.4853515625,       26.6113281250,      -27.1453857422,       90.5303955078
1494294928.5968539715,       -0.1752929688,        2.3618164062,        0.4853515625,       -2.8228759766,      -23.1628417969,       86.4715576172
1494294928.5994091034,       -0.1752929688,        2.3618164062,        0.4853515625,       -2.8228759766,      -23.1628417969,       86.4715576172
1494294928.6020450592,       -0.1752929688,        2.3618164062,        0.4853515625,      -22.2320556641,      -39.2456054688,       79.1168212891
1494294928.6047480106,       -1.6171875000,        3.0107421875,        1.4614257812,      -22.2320556641,      -39.2456054688,       79.1168212891
1494294928.6074500084,       -1.6171875000,        3.0107421875,        1.4614257812,     -115.3717041016,      -37.7502441406,      110.8093261719
1494294928.6101429462,       -1.6171875000,        3.0107421875,        1.4614257812,     -115.3717041016,      -37.7502441406,      110.8093261719
1494294928.6128499508,       -1.6171875000,        3.0107421875,        1.4614257812,     -126.6632080078,      -14.4042968750,      128.1127929688
1494294928.6155459881,       -1.6108398438,       -1.1318359375,       -0.9443359375,     -126.6632080078,      -14.4042968750,      128.1127929688
1494294928.6182420254,       -1.6108398438,       -1.1318359375,       -0.9443359375,      -23.6968994141,       -9.2315673828,      167.4499511719
1494294928.6209371090,       -1.6108398438,       -1.1318359375,       -0.9443359375,      -23.6968994141,       -9.2315673828,      167.4499511719
1494294928.6235899925,       -1.6108398438,       -1.1318359375,       -0.5434570312,      -24.0936279297,        0.8239746094,      194.9157714844
1494294928.6261429787,       -1.6518554688,       -2.4721679688,       -0.5434570312,      -24.0936279297,        0.8239746094,      194.9157714844
1494294928.6287009716,       -1.6518554688,       -2.4721679688,       -0.5434570312,      -25.7263183594,       -6.2255859375,      164.1998291016
1494294928.6312880516,       -1.6518554688,       -2.4721679688,       -0.5434570312,      -25.7263183594,       -6.2255859375,      164.1998291016
1494294928.6339859962,       -1.6518554688,       -2.4477539062,        0.0278320312,      -38.2232666016,      -27.8930664062,      120.7275390625
1494294928.6366839409,       -1.6362304688,       -2.4477539062,        0.0278320312,      -38.2232666016,      -27.8930664062,      120.7275390625
1494294928.6393809319,       -1.6362304688,       -2.4477539062,        0.0278320312,     -113.9678955078,      -31.0211181641,      136.8408203125
1494294928.6420168877,       -1.6362304688,       -2.4477539062,        0.0278320312,     -113.9678955078,      -31.0211181641,      136.8408203125
