time_stamp before, Acceleration x, Acceleration y, Acceleration z, Gyro x, Gyro y, Gyro z
1494295004.9277200699,       -0.5654296875,        0.0292968750,        0.0708007812,        0.4577636719,      -27.4658203125,       59.1125488281
1494295004.9347050190,       -0.5654296875,        0.0292968750,        0.0708007812,        0.4577636719,      -27.4658203125,       60.3027343750
1494295004.9378349781,       -0.5654296875,        0.1879882812,        0.2246093750,       -6.6986083984,      -28.1066894531,       60.3027343750
1494295004.9403860569,       -0.5561523438,        0.1879882812,        0.2246093750,       -6.6986083984,      -28.1066894531,       60.5010986328
1494295004.9431290627,       -0.5561523438,        0.1879882812,        0.2246093750,      -11.1236572266,      -28.2592773438,       60.5010986328
1494295004.9457750320,       -0.5561523438,        0.1879882812,        0.2246093750,      -11.1236572266,      -28.2592773438,       58.4411621094
1494295004.9487059116,       -0.6245117188,        0.4106445312,        0.2280273438,      -10.2844238281,      -26.4282226562,       58.4411621094
1494295004.9513900280,       -0.6245117188,        0.4106445312,        0.2280273438,      -10.2844238281,      -26.4282226562,       54.8248291016
1494295004.9540429115,       -0.6245117188,        0.4106445312,        0.2280273438,       -9.0789794922,      -22.7203369141,       54.8248291016
1494295004.9580650330,       -0.6245117188,        0.4741210938,        0.0712890625,       -5.5847167969,      -19.3634033203,       50.4150390625
1494295004.9607779980,       -0.6762695312,        0.4741210938,        0.0712890625,       -5.5847167969,      -19.3634033203,       50.4150390625
1494295004.9634690285,       -0.6762695312,        0.4741210938,        0.0712890625,       -0.6408691406,      -17.4255371094,       46.4935302734
1494295004.9661569595,       -0.6762695312,        0.4741210938,        0.0712890625,       -0.6408691406,      -17.4255371094,       46.4935302734
1494295004.9688489437,       -0.7143554688,        0.3110351562,       -0.0830078125,        5.3405761719,      -16.2200927734,       44.5556640625
1494295004.9715499878,       -0.7143554688,        0.3110351562,       -0.0830078125,        5.3405761719,      -16.2200927734,       44.5556640625
1494295004.9742429256,       -0.7143554688,        0.3110351562,       -0.0830078125,        7.3852539062,      -16.3574218750,       44.2199707031
1494295004.9769330025,       -0.7143554688,        0.3110351562,       -0.0830078125,        7.3852539062,      -16.3574218750,       44.2199707031
1494295004.9796180725,       -0.6909179688,        0.1791992188,        0.0209960938,        3.8909912109,      -19.0887451172,       44.6472167969
1494295004.9822900295,       -0.6909179688,        0.1791992188,        0.0209960938,        3.8909912109,      -19.0887451172,       44.6472167969
1494295004.9848461151,       -0.6909179688,        0.1791992188,        0.0209960938,       -1.6784667969,      -21.5759277344,       45.1507568359
1494295004.9873960018,       -0.6909179688,        0.1791992188,        0.0209960938,       -1.6784667969,      -21.5759277344,       45.1507568359
1494295004.9899508953,       -0.6850585938,        0.0996093750,        0.2158203125,       -5.5847167969,      -23.0560302734,       44.7235107422
1494295004.9926230907,       -0.6850585938,        0.0996093750,        0.2158203125,       -5.8135986328,      -23.0560302734,       44.7235107422
1494295004.9951839447,       -0.6850585938,        0.0996093750,        0.2158203125,       -5.8135986328,      -26.9622802734,       44.2962646484
1494295004.9977419376,       -0.6850585938,        0.0996093750,        0.2695312500,       -8.0261230469,      -25.5737304688,       44.2962646484
1494295005.0003058910,       -0.7187500000,        0.0737304688,        0.2695312500,       -8.0261230469,      -25.5737304688,       44.3725585938
1494295005.0031130314,       -0.7187500000,        0.0737304688,        0.2695312500,       -7.0648193359,      -27.4200439453,       44.3725585938
1494295005.0058159828,       -0.7187500000,        0.0737304688,        0.2695312500,       -7.0648193359,      -27.4200439453,       44.4488525391
1494295005.0086789131,       -0.7187500000,        0.1884765625,        0.2187500000,       -5.4931640625,      -28.1982421875,       44.4488525391
1494295005.0113859177,       -0.6918945312,        0.1884765625,        0.2187500000,       -5.4931640625,      -28.1982421875,       44.5861816406
1494295005.0140819550,       -0.6918945312,        0.1884765625,        0.2187500000,       -4.6997070312,      -28.8848876953,       44.5861816406
1494295005.0167789459,       -0.6918945312,        0.1884765625,        0.2187500000,       -4.6997070312,      -28.8848876953,       44.1589355469
1494295005.0194690228,       -0.6586914062,        0.2973632812,        0.1357421875,       -4.5623779297,      -27.6336669922,       44.1589355469
1494295005.0220990181,       -0.6586914062,        0.2973632812,        0.1357421875,       -4.5623779297,      -27.6336669922,       42.6177978516
1494295005.0246500969,       -0.6586914062,        0.2973632812,        0.1357421875,       -4.4860839844,      -25.8331298828,       42.6177978516
1494295005.0272030830,       -0.6586914062,        0.2973632812,        0.1357421875,       -4.4860839844,      -25.8331298828,       42.6177978516
1494295005.0297560692,       -0.6303710938,        0.3510742188,        0.0786132812,       -5.6152343750,      -22.5982666016,       40.3137207031
1494295005.0323200226,       -0.6303710938,        0.3510742188,        0.0786132812,       -5.6152343750,      -22.5982666016,       40.3137207031
1494295005.0348749161,       -0.6303710938,        0.3510742188,        0.0786132812,       -6.6223144531,      -18.3868408203,       38.5894775391
1494295005.0374329090,       -0.6303710938,        0.3510742188,        0.0786132812,       -6.6223144531,      -18.3868408203,       38.5894775391
1494295005.0399920940,       -0.6894531250,        0.4418945312,        0.0917968750,       -5.7983398438,      -13.7939453125,       37.0635986328
1494295005.0426518917,       -0.6894531250,        0.4418945312,        0.0917968750,       -5.7983398438,      -13.7939453125,       37.0635986328
1494295005.0452060699,       -0.6894531250,        0.4418945312,        0.0917968750,       -3.5705566406,       -9.3078613281,       35.4003906250
1494295005.0477540493,       -0.6894531250,        0.4418945312,        0.0917968750,       -3.5705566406,       -9.3078613281,       35.4003906250
1494295005.0503060818,       -0.6718750000,        0.2480468750,        0.1152343750,       -1.6632080078,       -5.7220458984,       35.4766845703
1494295005.0529870987,       -0.6718750000,        0.2480468750,        0.1152343750,       -1.6632080078,       -5.7220458984,       35.4766845703
1494295005.0556430817,       -0.6718750000,        0.2480468750,        0.1152343750,       -1.7547607422,       -2.3803710938,       36.5142822266
1494295005.0583488941,       -0.6718750000,        0.2480468750,        0.2241210938,       -1.7547607422,       -2.3803710938,       36.5142822266
1494295005.0610589981,       -0.6997070312,        0.1064453125,        0.2241210938,       -3.1890869141,        0.3356933594,       37.7807617188
1494295005.0637500286,       -0.6997070312,        0.1064453125,        0.2241210938,       -3.1890869141,        0.3356933594,       37.7807617188
1494295005.0664429665,       -0.6997070312,        0.1064453125,        0.2241210938,       -4.5013427734,        1.4343261719,       38.6810302734
1494295005.0691370964,       -0.8247070312,        0.2163085938,        0.1855468750,       -4.5013427734,        1.4343261719,       38.6810302734
1494295005.0719370842,       -0.8085937500,        0.2163085938,        0.1855468750,       -4.9743652344,        2.7923583984,       39.5507812500
1494295005.0744979382,       -0.8085937500,        0.2163085938,        0.1855468750,       -4.9743652344,        2.7923583984,       39.5507812500
1494295005.0778200626,       -0.8085937500,        0.2163085938,        0.1855468750,       -5.3100585938,        3.9978027344,       40.5273437500
1494295005.0804860592,       -0.7275390625,        0.3188476562,        0.0585937500,       -5.3100585938,        3.9978027344,       40.5273437500
1494295005.0832059383,       -0.7275390625,        0.3188476562,        0.0585937500,       -6.2561035156,        6.1340332031,       41.1529541016
1494295005.0858960152,       -0.7275390625,        0.3188476562,        0.0585937500,       -6.2561035156,        6.1340332031,       41.1529541016
1494295005.0885899067,       -0.7275390625,        0.3188476562,        0.0654296875,       -6.6070556641,        8.0261230469,       40.4205322266
1494295005.0912630558,       -0.7382812500,        0.3374023438,        0.0654296875,       -6.6070556641,        8.0261230469,       40.4205322266
1494295005.0938179493,       -0.7382812500,        0.3374023438,        0.0654296875,       -4.6386718750,        8.8806152344,       38.8336181641
1494295005.0963759422,       -0.7382812500,        0.3374023438,        0.0654296875,       -4.6386718750,        8.8806152344,       38.8336181641
1494295005.0989289284,       -0.7382812500,        0.3374023438,        0.0693359375,       -0.7324218750,       10.3759765625,       37.5366210938
1494295005.1016008854,       -0.7700195312,        0.3344726562,        0.0693359375,       -2.3803710938,       10.3759765625,       37.5366210938
1494295005.1042509079,       -0.7700195312,        0.3344726562,        0.0693359375,       -2.3803710938,       11.9171142578,       37.1398925781
1494295005.1069040298,       -0.7700195312,        0.3344726562,        0.0693359375,       -0.2899169922,       11.9171142578,       37.1398925781
1494295005.1095530987,       -0.7700195312,        0.2622070312,        0.0537109375,       -0.2899169922,        8.0108642578,       37.2467041016
1494295005.1121609211,       -0.7680664062,        0.2622070312,        0.0537109375,        0.9765625000,       10.9710693359,       37.2467041016
1494295005.1147110462,       -0.7680664062,        0.2622070312,        0.0537109375,        0.9765625000,       10.9710693359,       35.1562500000
1494295005.1172668934,       -0.7680664062,        0.2622070312,        0.0537109375,        1.2512207031,       11.2762451172,       35.1562500000
1494295005.1198210716,       -0.8515625000,        0.3452148438,        0.0434570312,        1.2512207031,       11.2762451172,       31.2500000000
1494295005.1224739552,       -0.8515625000,        0.3452148438,        0.0434570312,        2.3651123047,       11.6577148438,       32.8369140625
1494295005.1250219345,       -0.8515625000,        0.3452148438,        0.0434570312,        2.3651123047,       11.6577148438,       32.8369140625
1494295005.1275730133,       -0.8515625000,        0.3452148438,        0.0434570312,        3.7536621094,       12.6037597656,       30.7464599609
1494295005.1301269531,       -0.7768554688,        0.4414062500,       -0.0117187500,        3.7536621094,       12.6037597656,       30.7464599609
1494295005.1329100132,       -0.7768554688,        0.4414062500,       -0.0117187500,        5.7373046875,       14.5721435547,       28.7780761719
1494295005.1356110573,       -0.7768554688,        0.4414062500,       -0.0117187500,        5.7373046875,       14.5721435547,       28.7780761719
1494295005.1383099556,       -0.7768554688,        0.4414062500,       -0.0117187500,        6.9732666016,       16.1437988281,       26.0467529297
1494295005.1410160065,       -0.7250976562,        0.3789062500,        0.0415039062,        6.9732666016,       16.1437988281,       26.0467529297
1494295005.1437060833,       -0.7250976562,        0.3789062500,        0.0415039062,        5.1879882812,       16.9677734375,       23.3917236328
1494295005.1464040279,       -0.7250976562,        0.3789062500,        0.0415039062,        5.1879882812,       16.9677734375,       23.3917236328
1494295005.1490991116,       -0.7250976562,        0.3789062500,        0.1586914062,        2.7160644531,       16.6320800781,       19.8059082031
1494295005.1518070698,       -0.6416015625,        0.2871093750,        0.1586914062,        2.7160644531,       16.6320800781,       19.8059082031
1494295005.1546220779,       -0.6416015625,        0.2871093750,        0.1586914062,       -0.7629394531,       16.2353515625,       16.7541503906
1494295005.1573209763,       -0.6416015625,        0.2871093750,        0.1586914062,       -0.7629394531,       16.2353515625,       16.7541503906
1494295005.1600129604,       -0.6035156250,        0.3344726562,        0.1401367188,       -3.3569335938,       14.4500732422,       13.5650634766
1494295005.1626689434,       -0.6035156250,        0.3344726562,        0.1401367188,       -3.3569335938,       14.4500732422,       13.5650634766
1494295005.1652228832,       -0.6035156250,        0.3344726562,        0.1401367188,       -5.0506591797,       12.6800537109,        9.5520019531
1494295005.1677770615,       -0.6035156250,        0.3344726562,        0.1401367188,       -5.0506591797,       12.6800537109,        9.5520019531
1494295005.1703240871,       -0.6464843750,        0.4169921875,        0.0244140625,       -6.4239501953,       12.2528076172,        5.7525634766
1494295005.1729009151,       -0.6464843750,        0.4169921875,        0.0244140625,       -6.4239501953,       12.2528076172,        5.7525634766
1494295005.1754550934,       -0.6464843750,        0.4169921875,        0.0244140625,       -7.1868896484,       13.0157470703,        1.8005371094
1494295005.1780068874,       -0.6464843750,        0.4169921875,        0.0244140625,       -7.1868896484,       13.0157470703,        1.8005371094
1494295005.1805601120,       -0.6591796875,        0.4560546875,        0.0092773438,      -11.0931396484,       13.9617919922,       -1.9378662109
1494295005.1832458973,       -0.6591796875,        0.4560546875,        0.0092773438,       -8.3312988281,       13.9617919922,       -1.9378662109
1494295005.1859259605,       -0.6591796875,        0.4560546875,        0.0092773438,       -4.4250488281,       15.1214599609,       -5.9051513672
1494295005.1886579990,       -0.6591796875,        0.4560546875,        0.0092773438,       -7.3242187500,       15.1214599609,       -5.9051513672
1494295005.1913490295,       -0.7109375000,        0.4150390625,        0.0341796875,       -7.3242187500,       15.7928466797,      -10.0555419922
1494295005.1940329075,       -0.7109375000,        0.4150390625,        0.0341796875,       -5.4016113281,       15.7928466797,      -10.0555419922
1494295005.1967089176,       -0.7109375000,        0.4150390625,        0.0341796875,       -5.4016113281,       15.9454345703,      -12.6647949219
1494295005.1993889809,       -0.7109375000,        0.4150390625,        0.0727539062,       -4.4708251953,       15.9454345703,      -12.6647949219
1494295005.2020659447,       -0.7294921875,        0.2973632812,        0.0727539062,       -4.4708251953,       15.9454345703,      -14.7857666016
1494295005.2047190666,       -0.7294921875,        0.2973632812,        0.0727539062,       -4.6234130859,       15.9301757812,      -14.7857666016
1494295005.2073750496,       -0.7294921875,        0.2973632812,        0.0727539062,       -4.6234130859,       15.9301757812,      -15.0146484375
1494295005.2100250721,       -0.7294921875,        0.2827148438,        0.1269531250,       -3.8299560547,       17.4713134766,      -15.0146484375
1494295005.2127990723,       -0.7709960938,        0.2827148438,        0.1269531250,       -3.8299560547,       17.4713134766,      -15.8233642578
1494295005.2154951096,       -0.7709960938,        0.2827148438,        0.1269531250,       -0.5798339844,       18.9208984375,      -15.8233642578
1494295005.2181839943,       -0.7709960938,        0.2827148438,        0.1269531250,       -0.5798339844,       18.9208984375,      -16.6015625000
1494295005.2209188938,       -0.8247070312,        0.2626953125,        0.1333007812,        5.8746337891,       18.8903808594,      -16.6015625000
1494295005.2234840393,       -0.8247070312,        0.2626953125,        0.1333007812,        5.8746337891,       18.8903808594,      -17.9443359375
1494295005.2260389328,       -0.8247070312,        0.2626953125,        0.1333007812,       11.5814208984,       19.5465087891,      -17.9443359375
1494295005.2287108898,       -0.8247070312,        0.2626953125,        0.1333007812,       11.5814208984,       19.5465087891,      -17.9443359375
1494295005.2313010693,       -0.9023437500,        0.1879882812,        0.1567382812,       17.5018310547,       20.5078125000,      -18.4326171875
1494295005.2338569164,       -0.9023437500,        0.1879882812,        0.1567382812,       17.5018310547,       20.5078125000,      -18.4326171875
1494295005.2364199162,       -0.9023437500,        0.1879882812,        0.1567382812,       23.7579345703,       23.4375000000,      -18.1732177734
1494295005.2389719486,       -0.9023437500,        0.1879882812,        0.1567382812,       23.7579345703,       23.4375000000,      -18.1732177734
1494295005.2416949272,       -1.0039062500,        0.1884765625,        0.1142578125,       27.4658203125,       26.7181396484,      -19.2871093750
1494295005.2443931103,       -1.0039062500,        0.1884765625,        0.1142578125,       27.4658203125,       26.7181396484,      -19.2871093750
1494295005.2470879555,       -1.0039062500,        0.1884765625,        0.1142578125,       26.5655517578,       27.7709960938,      -23.0102539062
1494295005.2497820854,       -1.0039062500,        0.1884765625,       -0.0107421875,       26.5655517578,       27.7709960938,      -23.0102539062
1494295005.2524778843,       -1.0727539062,        0.2016601562,       -0.0166015625,       26.9622802734,       28.0914306641,      -23.8342285156
1494295005.2551679611,       -1.0727539062,        0.2016601562,       -0.0166015625,       26.9622802734,       28.0914306641,      -23.8342285156
1494295005.2578670979,       -1.0727539062,        0.2016601562,       -0.0166015625,       31.9671630859,       32.6690673828,      -24.8870849609
1494295005.2605650425,       -1.0727539062,        0.3193359375,       -0.0048828125,       31.9671630859,       32.6690673828,      -24.8870849609
1494295005.2632689476,       -1.1362304688,        0.3193359375,       -0.0048828125,       37.1551513672,       35.1867675781,      -31.3415527344
1494295005.2659740448,       -1.1362304688,        0.3193359375,       -0.0048828125,       37.1551513672,       35.1867675781,      -31.3415527344
1494295005.2686729431,       -1.1362304688,        0.3193359375,       -0.0048828125,       37.0483398438,       34.2712402344,      -41.1682128906
1494295005.2713539600,       -1.2324218750,        0.3188476562,       -0.0571289062,       37.0483398438,       34.2712402344,      -41.1682128906
1494295005.2739059925,       -1.2324218750,        0.3188476562,       -0.0571289062,       37.8112792969,       33.9355468750,      -54.2449951172
1494295005.2764580250,       -1.2324218750,        0.3188476562,       -0.0571289062,       37.8112792969,       33.9355468750,      -54.2449951172
1494295005.2790210247,       -1.2324218750,        0.3188476562,       -0.0571289062,       43.4265136719,       32.6232910156,      -66.2078857422
1494295005.2817499638,       -1.2075195312,        0.1889648438,       -0.0141601562,       43.4265136719,       32.6232910156,      -66.2078857422
1494295005.2844099998,       -1.2075195312,        0.1889648438,       -0.0141601562,       48.2330322266,       30.0598144531,      -77.9113769531
1494295005.2871780396,       -1.2075195312,        0.1889648438,       -0.0141601562,       48.2330322266,       30.0598144531,      -77.9113769531
1494295005.2902290821,       -1.2075195312,        0.1889648438,        0.0375976562,       49.8962402344,       28.7017822266,      -88.1042480469
1494295005.2929720879,       -1.1933593750,        0.2739257812,        0.0375976562,       49.8962402344,       28.7017822266,      -88.1042480469
1494295005.2956709862,       -1.1933593750,        0.2739257812,        0.0375976562,       52.8259277344,       27.1453857422,      -96.9696044922
1494295005.2983698845,       -1.1933593750,        0.2739257812,        0.0375976562,       52.8259277344,       27.1453857422,      -96.9696044922
1494295005.3011810780,       -1.0131835938,        0.4013671875,        0.0087890625,       59.4329833984,       20.1416015625,     -107.8491210938
1494295005.3038818836,       -1.0131835938,        0.4013671875,        0.0087890625,       59.4329833984,       20.1416015625,     -107.8491210938
1494295005.3065850735,       -1.0131835938,        0.4013671875,        0.0087890625,       69.8699951172,       16.0522460938,     -120.7885742188
1494295005.3092830181,       -1.0131835938,        0.4013671875,        0.0087890625,       69.8699951172,       16.0522460938,     -120.7885742188
1494295005.3120000362,       -0.9604492188,        0.4521484375,       -0.0927734375,       85.4492187500,       14.0838623047,     -135.1928710938
1494295005.3146960735,       -0.9604492188,        0.4521484375,       -0.0927734375,       85.4492187500,       14.0838623047,     -135.1928710938
1494295005.3173949718,       -0.9604492188,        0.4521484375,       -0.0927734375,       95.9320068359,        7.7667236328,     -152.3132324219
1494295005.3200809956,       -0.9604492188,        0.4521484375,       -0.0927734375,       95.9320068359,        7.7667236328,     -152.3132324219
1494295005.3226890564,       -0.9707031250,        0.4980468750,       -0.2333984375,      100.9521484375,        1.5258789062,     -168.4875488281
1494295005.3252480030,       -0.9707031250,        0.4980468750,       -0.2333984375,      100.9521484375,        1.5258789062,     -168.4875488281
1494295005.3278059959,       -0.9707031250,        0.4980468750,       -0.2333984375,      109.8175048828,        0.9155273438,     -184.8602294922
1494295005.3303599358,       -0.9707031250,        0.4980468750,       -0.4833984375,      109.8175048828,        0.9155273438,     -184.8602294922
1494295005.3330080509,       -1.1767578125,        0.4150390625,       -0.4707031250,      121.5362548828,        2.5939941406,     -203.2775878906
1494295005.3355610371,       -1.1767578125,        0.4150390625,       -0.4707031250,      122.8942871094,        2.5939941406,     -203.2775878906
1494295005.3381071091,       -1.1767578125,        0.4150390625,       -0.4707031250,      122.8942871094,       10.4064941406,     -221.6796875000
1494295005.3407890797,       -1.1767578125,        0.4150390625,       -0.8476562500,      144.0124511719,        9.3994140625,     -221.6796875000
1494295005.3434939384,       -1.6093750000,        0.1020507812,       -0.8476562500,      144.0124511719,       21.1181640625,     -243.6523437500
1494295005.3461940289,       -1.6093750000,        0.1020507812,       -0.8476562500,      173.4313964844,       21.8353271484,     -243.6523437500
1494295005.3488819599,       -1.6093750000,        0.1020507812,       -0.8476562500,      173.4313964844,       33.5540771484,     -270.4620361328
1494295005.3515911102,       -2.2788085938,       -0.6918945312,       -1.3549804688,      206.9702148438,       32.6080322266,     -270.4620361328
1494295005.3542850018,       -2.2788085938,       -0.6918945312,       -1.3549804688,      206.9702148438,       32.6080322266,     -301.3916015625
1494295005.3569788933,       -2.2788085938,       -0.6918945312,       -1.3549804688,      257.2326660156,       48.4771728516,     -301.3916015625
1494295005.3596749306,       -2.2788085938,       -0.6918945312,       -1.3549804688,      257.2326660156,       48.4771728516,     -333.5876464844
1494295005.3623769283,       -3.2749023438,       -1.0937500000,       -1.7216796875,      331.4514160156,       68.8323974609,     -333.5876464844
1494295005.3650679588,       -3.2749023438,       -1.0937500000,       -1.7216796875,      331.4514160156,       68.8323974609,     -353.3172607422
1494295005.3677570820,       -3.2749023438,       -1.0937500000,       -1.7216796875,      393.9666748047,       88.5467529297,     -353.3172607422
1494295005.3704481125,       -3.2749023438,       -1.0937500000,       -1.7216796875,      393.9666748047,       88.5467529297,     -309.2041015625
1494295005.3730509281,       -5.6059570312,        0.1635742188,       -1.2036132812,      407.8369140625,       78.5522460938,     -309.2041015625
1494295005.3757109642,       -5.6059570312,        0.1635742188,       -1.2036132812,      407.8369140625,       78.5522460938,     -231.0791015625
1494295005.3782711029,       -5.6059570312,        0.1635742188,       -1.2036132812,      405.8685302734,       16.9525146484,     -231.7504882812
1494295005.3808329105,       -5.6059570312,        0.1635742188,        1.6713867188,      405.8685302734,       16.9525146484,     -231.7504882812
1494295005.3835310936,       -4.7451171875,        4.6752929688,        1.6513671875,      391.1437988281,        2.1972656250,     -231.9335937500
1494295005.3862249851,       -4.7451171875,        4.6752929688,        1.6513671875,      391.1437988281,        2.1972656250,     -231.9335937500
1494295005.3889129162,       -4.7451171875,        4.6752929688,        1.6513671875,      266.3421630859,       54.4586181641,     -346.4355468750
1494295005.3916139603,       -4.7451171875,        5.1625976562,        1.9790039062,      266.3421630859,       54.4586181641,     -346.4355468750
1494295005.3943049908,        0.4545898438,        5.1625976562,        1.9790039062,      178.5888671875,       51.6052246094,     -389.0686035156
1494295005.3970429897,        0.4545898438,        5.1625976562,        1.9790039062,      178.5888671875,       51.6052246094,     -389.0686035156
1494295005.3997631073,        0.4545898438,        5.1625976562,        1.9790039062,      147.2473144531,       24.7039794922,     -272.5677490234
1494295005.4028611183,        2.4267578125,        0.0517578125,        1.2998046875,      147.2473144531,       24.7039794922,      -14.7552490234
1494295005.4055559635,        2.4267578125,        0.0517578125,        1.2998046875,       98.2360839844,       43.8690185547,      -12.4206542969
1494295005.4082500935,        2.4267578125,        0.0517578125,        1.2998046875,       98.2360839844,       43.8690185547,      233.6730957031
1494295005.4109499454,        2.4267578125,        0.0517578125,        1.2998046875,       43.6706542969,       20.0500488281,      231.2164306641
1494295005.4135100842,       -1.6176757812,        2.9804687500,        0.5498046875,       43.6706542969,       20.0500488281,      231.2164306641
1494295005.4160680771,       -1.6176757812,        2.9804687500,        0.5498046875,       -4.6539306641,       54.7637939453,      282.5012207031
1494295005.4186229706,       -1.6176757812,        2.9804687500,        0.5498046875,       -4.6539306641,       54.7637939453,      282.5012207031
1494295005.4212000370,       -1.6176757812,        2.9804687500,        1.1748046875,       30.3955078125,       50.9033203125,      236.6027832031
1494295005.4238929749,        0.0517578125,        0.5957031250,        1.1435546875,       30.3955078125,       50.9033203125,      236.6027832031
1494295005.4265890121,        0.0517578125,        0.5957031250,        1.1435546875,      -22.8118896484,       18.1427001953,      249.7100830078
1494295005.4292869568,        0.0517578125,        0.5957031250,        1.1435546875,      -22.8118896484,       18.1427001953,      249.7100830078
1494295005.4319369793,        0.0517578125,       -1.5034179688,        0.4692382812,     -125.2288818359,       -9.1094970703,      263.4887695312
1494295005.4344930649,       -0.7236328125,       -1.5034179688,        0.4692382812,     -125.2288818359,       -9.1094970703,      263.4887695312
1494295005.4370489120,       -0.7236328125,       -1.5034179688,        0.4692382812,     -140.5639648438,      -19.7143554688,      223.8006591797
1494295005.4396069050,       -0.7236328125,       -1.5034179688,        0.4692382812,     -140.5639648438,      -19.7143554688,      223.8006591797
1494295005.4421770573,       -0.7236328125,       -2.0009765625,       -0.7480468750,     -107.3913574219,      -24.1394042969,      165.7714843750
1494295005.4447369576,       -0.7446289062,       -2.0009765625,       -0.7480468750,     -107.3913574219,      -24.1394042969,      165.7714843750
1494295005.4472949505,       -0.7446289062,       -2.0009765625,       -0.7480468750,      -83.9538574219,      -23.1170654297,      116.5618896484
1494295005.4499619007,       -0.7446289062,       -2.0009765625,       -0.7480468750,      -82.3974609375,      -23.1170654297,      116.5618896484
1494295005.4526820183,       -0.0712890625,       -1.1547851562,       -0.3793945312,      -82.3974609375,      -17.3645019531,       70.6481933594
1494295005.4552400112,       -0.0712890625,       -1.1547851562,       -0.3793945312,      -48.2940673828,      -17.3645019531,       70.6481933594
1494295005.4577898979,       -0.0712890625,       -1.1547851562,       -0.3793945312,      -48.2940673828,      -17.3645019531,       16.8609619141
1494295005.4603478909,       -0.0712890625,       -1.1547851562,       -0.3793945312,      -17.4255371094,      -13.5498046875,       16.8609619141
1494295005.4630250931,        0.3408203125,       -1.1835937500,        0.2568359375,      -17.4255371094,      -13.5498046875,      -42.2058105469
1494295005.4655880928,        0.3408203125,       -1.1835937500,        0.2568359375,      -10.1013183594,       -9.6588134766,      -42.2058105469
1494295005.4681470394,        0.3408203125,       -1.1835937500,        0.2568359375,      -10.1013183594,       -9.6588134766,      -42.2058105469
1494295005.4707040787,        0.3408203125,       -1.1835937500,        0.2568359375,      -16.7083740234,       -1.8157958984,      -94.1009521484
1494295005.4734079838,       -0.0991210938,       -1.1591796875,        0.1674804688,      -16.7083740234,       -1.8157958984,      -94.1009521484
1494295005.4761068821,       -0.0991210938,       -1.1591796875,        0.1674804688,      -40.1153564453,        6.9580078125,     -121.1242675781
1494295005.4788000584,       -0.0991210938,       -1.1591796875,        0.1674804688,      -40.1153564453,        6.9580078125,     -121.1242675781
1494295005.4814970493,       -0.0991210938,       -1.1591796875,        0.1674804688,      -61.3250732422,       11.1236572266,     -131.3476562500
1494295005.4841940403,       -0.1503906250,       -0.3647460938,       -0.0620117188,      -61.3250732422,       11.1236572266,     -131.3476562500
1494295005.4868960381,       -0.1503906250,       -0.3647460938,       -0.0620117188,      -66.6046142578,        6.8511962891,     -132.5378417969
1494295005.4895939827,       -0.1503906250,       -0.3647460938,       -0.0620117188,      -66.6046142578,        6.8511962891,     -132.5378417969
1494295005.4922089577,       -0.1503906250,        0.0102539062,       -0.1342773438,      -63.6901855469,        2.6397705078,     -127.6092529297
1494295005.4947690964,       -0.0688476562,        0.1069335938,       -0.1342773438,      -63.6901855469,        2.6397705078,     -127.6092529297
1494295005.4973249435,       -0.0688476562,        0.1069335938,       -0.1342773438,      -51.1932373047,        3.6621093750,     -123.1079101562
1494295005.4998838902,       -0.0688476562,        0.1069335938,       -0.1342773438,      -51.1932373047,        3.6621093750,     -123.1079101562
1494295005.5024991035,       -0.0688476562,        0.5419921875,       -0.1816406250,      -21.1486816406,        0.6103515625,     -110.3210449219
1494295005.5050499439,        0.0610351562,        0.5419921875,       -0.1816406250,      -21.1486816406,        0.6103515625,     -110.3210449219
1494295005.5076079369,        0.0610351562,        0.5419921875,       -0.1816406250,       17.4407958984,       -5.1574707031,      -87.3260498047
1494295005.5101640224,        0.0610351562,        0.5419921875,       -0.1816406250,       17.4407958984,       -5.1574707031,      -87.3260498047
1494295005.5128688812,        0.1860351562,        0.9819335938,       -0.1621093750,       61.1877441406,       -9.2163085938,      -61.6607666016
1494295005.5155599117,        0.1337890625,        0.9819335938,       -0.1621093750,       61.1877441406,       -9.2163085938,      -61.6607666016
1494295005.5184640884,        0.1337890625,        0.9819335938,       -0.1621093750,      102.4322509766,      -12.6495361328,      -37.8723144531
1494295005.5213000774,        0.1337890625,        0.9819335938,       -0.1621093750,      102.4322509766,      -12.6495361328,      -37.8723144531
1494295005.5241529942,        0.1362304688,        0.7509765625,       -0.0898437500,      124.8321533203,      -14.7705078125,      -16.0675048828
1494295005.5268509388,        0.1362304688,        0.7509765625,       -0.0898437500,      124.8321533203,      -14.7705078125,      -16.0675048828
1494295005.5295488834,        0.1362304688,        0.7509765625,       -0.0898437500,      128.6010742188,      -12.8173828125,        4.6234130859
1494295005.5322570801,        0.1362304688,        0.7509765625,       -0.0878906250,      128.6010742188,      -12.8173828125,        4.6234130859
1494295005.5349481106,        0.0688476562,        0.4477539062,       -0.0878906250,      117.3553466797,       -8.5601806641,       26.0620117188
1494295005.5376400948,        0.0688476562,        0.4477539062,       -0.0878906250,      117.3553466797,       -8.5601806641,       26.0620117188
1494295005.5403349400,        0.0688476562,        0.4477539062,       -0.0878906250,       98.6938476562,       -4.6386718750,       43.5028076172
1494295005.5430390835,        0.0688476562,        0.2099609375,       -0.1191406250,       98.6938476562,       -4.6386718750,       43.5028076172
1494295005.5457370281,        0.0039062500,        0.2099609375,       -0.1191406250,       73.2879638672,       -1.5106201172,       58.7463378906
1494295005.5484359264,        0.0039062500,        0.2099609375,       -0.1191406250,       73.2879638672,       -1.5106201172,       58.7463378906
1494295005.5511569977,        0.0039062500,        0.2099609375,       -0.1191406250,       44.0673828125,        0.5950927734,       64.4226074219
1494295005.5537168980,       -0.0166015625,       -0.1259765625,       -0.1616210938,       44.0673828125,        0.5950927734,       64.4226074219
1494295005.5562698841,       -0.0166015625,       -0.1259765625,       -0.1616210938,        8.9111328125,        5.0964355469,       63.4002685547
1494295005.5588231087,       -0.0166015625,       -0.1259765625,       -0.1616210938,        8.5906982422,        5.0964355469,       63.4002685547
1494295005.5613820553,       -0.0166015625,       -0.1259765625,       -0.1616210938,        8.5906982422,        9.0026855469,       62.5152587891
1494295005.5639300346,       -0.0610351562,       -0.2905273438,       -0.2133789062,      -29.0832519531,        9.7351074219,       62.5152587891
1494295005.5664849281,       -0.0610351562,       -0.2905273438,       -0.2133789062,      -29.0832519531,        9.7351074219,       60.6994628906
1494295005.5690400600,       -0.0610351562,       -0.2905273438,       -0.2133789062,      -61.0961914062,       12.2985839844,       60.6994628906
1494295005.5716938972,       -0.0610351562,       -0.2905273438,       -0.2133789062,      -61.0961914062,       12.2985839844,       56.7932128906
1494295005.5742530823,       -0.0634765625,       -0.3461914062,       -0.2226562500,      -84.7320556641,       12.8631591797,       56.0302734375
1494295005.5768098831,       -0.0634765625,       -0.3461914062,       -0.2226562500,      -84.7320556641,       12.8631591797,       56.0302734375
1494295005.5793681145,       -0.0634765625,       -0.3461914062,       -0.2226562500,     -102.1423339844,       12.3443603516,       50.4150390625
1494295005.5821199417,       -0.0634765625,       -0.3461914062,       -0.2226562500,     -102.1423339844,       12.3443603516,       50.4150390625
1494295005.5848200321,       -0.0463867188,       -0.3603515625,       -0.1621093750,     -114.5477294922,       11.4746093750,       42.9229736328
1494295005.5875139236,       -0.0463867188,       -0.3603515625,       -0.1621093750,     -114.5477294922,       11.4746093750,       42.9229736328
1494295005.5902121067,       -0.0463867188,       -0.3603515625,       -0.1621093750,     -121.7956542969,       11.0473632812,       34.4238281250
1494295005.5929598808,       -0.0463867188,       -0.2353515625,       -0.0781250000,     -121.7956542969,       11.0473632812,       34.4238281250
1494295005.5957739353,       -0.0415039062,       -0.2387695312,       -0.0781250000,     -124.2828369141,       10.8032226562,       25.3753662109
1494295005.5984759331,       -0.0415039062,       -0.2387695312,       -0.0781250000,     -124.2828369141,       10.8032226562,       25.3753662109
1494295005.6011710167,       -0.0415039062,       -0.2387695312,       -0.0781250000,     -121.9787597656,       10.2844238281,       16.7083740234
1494295005.6037309170,       -0.0541992188,       -0.0849609375,        0.0048828125,     -121.9787597656,       10.2844238281,       16.7083740234
1494295005.6062960625,       -0.0541992188,       -0.0849609375,        0.0048828125,     -115.0512695312,        9.5672607422,        7.7362060547
1494295005.6088519096,       -0.0541992188,       -0.0849609375,        0.0048828125,     -115.0512695312,        9.5672607422,        7.7362060547
1494295005.6114130020,       -0.0541992188,       -0.0849609375,        0.0048828125,     -105.7128906250,        8.3312988281,        0.2288818359
1494295005.6139709949,       -0.0659179688,       -0.0053710938,        0.0434570312,     -105.7128906250,        8.3312988281,        0.2288818359
1494295005.6165330410,       -0.0659179688,       -0.0053710938,        0.0434570312,      -94.9707031250,        6.8664550781,       -5.8746337891
1494295005.6190838814,       -0.0659179688,       -0.0053710938,        0.0434570312,      -94.9707031250,        6.8664550781,       -5.8746337891
1494295005.6216979027,       -0.0659179688,       -0.0053710938,        0.0434570312,      -83.1146240234,        5.1879882812,      -11.1083984375
1494295005.6243989468,       -0.0512695312,        0.0517578125,        0.0273437500,      -83.1146240234,        5.1879882812,      -11.1083984375
1494295005.6270930767,       -0.0512695312,        0.0517578125,        0.0273437500,      -69.4274902344,        2.8839111328,      -14.2364501953
1494295005.6297879219,       -0.0512695312,        0.0517578125,        0.0273437500,      -69.4274902344,        2.8839111328,      -14.2364501953
1494295005.6324889660,       -0.0512695312,        0.0517578125,        0.0273437500,      -54.7027587891,        1.2359619141,      -14.7552490234
1494295005.6351819038,       -0.0483398438,        0.1030273438,        0.0170898438,      -54.7027587891,        1.2359619141,      -14.7552490234
1494295005.6381390095,       -0.0483398438,        0.1030273438,        0.0170898438,      -39.9322509766,       -0.6713867188,      -15.3808593750
1494295005.6412069798,       -0.0483398438,        0.1030273438,        0.0170898438,      -39.9322509766,       -0.6713867188,      -15.3808593750
1494295005.6439089775,       -0.0483398438,        0.1406250000,        0.0429687500,      -24.9328613281,       -2.2125244141,      -15.5029296875
1494295005.6465969086,       -0.0327148438,        0.1406250000,        0.0429687500,      -24.9328613281,       -2.2125244141,      -15.5029296875
1494295005.6492950916,       -0.0327148438,        0.1406250000,        0.0429687500,      -11.0015869141,       -4.3182373047,      -14.7247314453
1494295005.6519439220,       -0.0327148438,        0.1406250000,        0.0429687500,      -11.0015869141,       -4.3182373047,      -14.7247314453
1494295005.6545000076,       -0.0341796875,        0.1840820312,        0.0708007812,        2.8076171875,       -5.8746337891,      -13.0157470703
1494295005.6570539474,       -0.0341796875,        0.1840820312,        0.0708007812,        2.8076171875,       -5.8746337891,      -13.0157470703
1494295005.6596040726,       -0.0341796875,        0.1840820312,        0.0708007812,       18.4326171875,       -7.3394775391,      -11.5509033203
1494295005.6622519493,       -0.0341796875,        0.1840820312,        0.0708007812,       16.7083740234,       -7.3394775391,      -11.5509033203
1494295005.6649498940,       -0.0649414062,        0.2021484375,        0.0908203125,       28.4271240234,       -8.2550048828,       -9.7045898438
1494295005.6676371098,       -0.0649414062,        0.2021484375,        0.0908203125,       28.3203125000,       -8.2550048828,       -9.7045898438
1494295005.6704390049,       -0.0649414062,        0.2021484375,        0.0908203125,       36.1328125000,       -9.7503662109,       -7.2326660156
1494295005.6730439663,       -0.0649414062,        0.2021484375,        0.0908203125,       37.7960205078,       -9.7503662109,       -7.2326660156
1494295005.6755969524,       -0.0800781250,        0.1757812500,        0.1088867188,       37.7960205078,       -9.7503662109,       -4.3640136719
1494295005.6781480312,       -0.0800781250,        0.1757812500,        0.1088867188,       46.0662841797,      -10.8184814453,       -4.3640136719
1494295005.6807041168,       -0.0800781250,        0.1757812500,        0.1088867188,       46.0662841797,      -10.8184814453,       -1.5106201172
1494295005.6832559109,       -0.0800781250,        0.1757812500,        0.1088867188,       51.0864257812,      -12.4664306641,       -1.5106201172
1494295005.6858139038,       -0.0820312500,        0.1079101562,        0.1049804688,       51.0864257812,      -12.4664306641,       -1.5106201172
1494295005.6883680820,       -0.0820312500,        0.1079101562,        0.1049804688,       52.4749755859,      -14.4653320312,        0.6408691406
1494295005.6910688877,       -0.0820312500,        0.1079101562,        0.1049804688,       52.4749755859,      -14.4653320312,        0.6408691406
1494295005.6936259270,       -0.0820312500,        0.1079101562,        0.0859375000,       51.4373779297,      -16.0675048828,        2.9296875000
1494295005.6961801052,       -0.0747070312,        0.0439453125,        0.0859375000,       51.4373779297,      -16.0675048828,        2.9296875000
1494295005.6987259388,       -0.0747070312,        0.0439453125,        0.0859375000,       47.2259521484,      -17.7307128906,        5.2642822266
1494295005.7014319897,       -0.0747070312,        0.0439453125,        0.0859375000,       47.2259521484,      -17.7307128906,        5.2642822266
1494295005.7039809227,       -0.0747070312,       -0.0810546875,        0.0556640625,       40.1611328125,      -18.5852050781,        6.5155029297
1494295005.7065339088,       -0.0825195312,       -0.0068359375,        0.0556640625,       40.1611328125,      -18.5852050781,        6.5155029297
1494295005.7090849876,       -0.0825195312,       -0.0068359375,        0.0556640625,       32.4859619141,      -19.1497802734,        7.3852539062
1494295005.7116930485,       -0.0825195312,       -0.0068359375,        0.0556640625,       32.4859619141,      -19.1497802734,        7.3852539062
1494295005.7143859863,       -0.0825195312,       -0.0473632812,        0.0244140625,       22.3846435547,      -19.5159912109,        8.4228515625
1494295005.7170789242,       -0.0961914062,       -0.0473632812,        0.0244140625,       22.3846435547,      -19.5159912109,        8.4228515625
1494295005.7197709084,       -0.0961914062,       -0.0473632812,        0.0244140625,       11.5814208984,      -18.9208984375,        8.9569091797
1494295005.7224690914,       -0.0961914062,       -0.0473632812,        0.0244140625,       11.5814208984,      -18.9208984375,        8.9569091797
1494295005.7251610756,       -0.1005859375,       -0.0825195312,        0.0136718750,        0.6561279297,      -17.8222656250,        9.2163085938
1494295005.7278571129,       -0.1005859375,       -0.0825195312,        0.0136718750,        0.6561279297,      -17.8222656250,        9.2163085938
1494295005.7305378914,       -0.1005859375,       -0.0825195312,        0.0136718750,      -10.0860595703,      -16.3879394531,       10.0250244141
1494295005.7332448959,       -0.1005859375,       -0.0825195312,        0.0136718750,      -10.0860595703,      -16.3879394531,       10.0250244141
1494295005.7359430790,       -0.0942382812,       -0.0952148438,        0.0219726562,      -22.4456787109,      -15.3961181641,        9.9792480469
1494295005.7386350632,       -0.0942382812,       -0.0952148438,        0.0219726562,      -22.4456787109,      -15.3961181641,        9.9792480469
1494295005.7414839268,       -0.0942382812,       -0.0952148438,        0.0219726562,      -35.2020263672,      -15.5029296875,       10.5438232422
1494295005.7441849709,       -0.0942382812,       -0.0952148438,        0.0268554688,      -35.2020263672,      -15.5029296875,       10.5438232422
1494295005.7468719482,       -0.0869140625,       -0.0922851562,        0.0268554688,      -45.5627441406,      -15.6402587891,       10.6353759766
1494295005.7495660782,       -0.0869140625,       -0.0922851562,        0.0268554688,      -45.5627441406,      -15.6402587891,       10.6353759766
1494295005.7521979809,       -0.0869140625,       -0.0922851562,        0.0268554688,      -53.3752441406,      -15.4876708984,       10.5743408203
1494295005.7547519207,       -0.0869140625,       -0.0712890625,        0.0356445312,      -54.1992187500,      -15.4876708984,       10.5743408203
1494295005.7573959827,       -0.0952148438,       -0.0712890625,        0.0356445312,      -54.1992187500,      -15.2740478516,       11.1389160156
1494295005.7599680424,       -0.0952148438,       -0.0712890625,        0.0356445312,      -62.2863769531,      -15.2740478516,       11.1389160156
1494295005.7627658844,       -0.0952148438,       -0.0712890625,        0.0356445312,      -62.2863769531,      -15.2740478516,       11.5051269531
1494295005.7653279305,       -0.1088867188,       -0.0634765625,        0.0351562500,      -68.9849853516,      -14.9230957031,       11.5051269531
1494295005.7678890228,       -0.1088867188,       -0.0634765625,        0.0351562500,      -68.9849853516,      -14.9230957031,       11.5966796875
1494295005.7704510689,       -0.1088867188,       -0.0634765625,        0.0351562500,      -73.9593505859,      -14.5568847656,       11.5966796875
1494295005.7731809616,       -0.1088867188,       -0.0634765625,        0.0351562500,      -73.9593505859,      -14.5568847656,       11.9628906250
1494295005.7758839130,       -0.1269531250,       -0.0766601562,        0.0502929688,      -77.9571533203,      -14.8162841797,       11.9628906250
1494295005.7785880566,       -0.1269531250,       -0.0766601562,        0.0502929688,      -77.9571533203,      -14.8162841797,       12.3748779297
1494295005.7812979221,       -0.1269531250,       -0.0766601562,        0.0502929688,      -80.6427001953,      -14.9078369141,       12.3748779297
1494295005.7839970589,       -0.1269531250,       -0.0766601562,        0.0502929688,      -80.6427001953,      -14.9078369141,       13.4277343750
1494295005.7866950035,       -0.1455078125,       -0.1020507812,        0.0385742188,      -80.4595947266,      -15.4266357422,       13.4277343750
1494295005.7893929482,       -0.1455078125,       -0.1020507812,        0.0385742188,      -80.4595947266,      -15.4266357422,       13.4277343750
1494295005.7920250893,       -0.1455078125,       -0.1020507812,        0.0385742188,      -79.5745849609,      -15.7012939453,       14.7705078125
1494295005.7945868969,       -0.1455078125,       -0.1020507812,        0.0410156250,      -79.5745849609,      -15.7012939453,       14.7705078125
1494295005.7971479893,       -0.1630859375,       -0.1240234375,        0.0410156250,      -77.3315429688,      -16.2353515625,       15.3503417969
1494295005.7997140884,       -0.1630859375,       -0.1240234375,        0.0410156250,      -77.3315429688,      -16.2353515625,       15.3503417969
1494295005.8023200035,       -0.1630859375,       -0.1240234375,        0.0410156250,      -73.2269287109,      -16.9830322266,       16.5100097656
1494295005.8048830032,       -0.1630859375,       -0.2490234375,        0.0424804688,      -73.2269287109,      -16.9830322266,       16.5100097656
1494295005.8074460030,       -0.1733398438,       -0.1254882812,        0.0424804688,      -66.2078857422,      -17.6696777344,       18.2342529297
1494295005.8100059032,       -0.1733398438,       -0.1254882812,        0.0424804688,      -66.2078857422,      -17.6696777344,       18.2342529297
1494295005.8126480579,       -0.1733398438,       -0.1254882812,        0.0424804688,      -57.8613281250,      -18.1579589844,       20.6146240234
1494295005.8153159618,       -0.1733398438,       -0.1264648438,       -0.0249023438,      -57.8613281250,      -18.1579589844,       20.6146240234
1494295005.8178799152,       -0.1440429688,       -0.1264648438,       -0.0249023438,      -49.3469238281,      -19.7448730469,       24.6887207031
1494295005.8204419613,       -0.1440429688,       -0.1264648438,       -0.0249023438,      -49.3469238281,      -19.7448730469,       24.6887207031
1494295005.8232860565,       -0.1440429688,       -0.1264648438,       -0.0249023438,      -42.7856445312,      -21.6217041016,       30.0445556641
1494295005.8259820938,       -0.1254882812,       -0.2661132812,       -0.1318359375,      -42.7856445312,      -21.6217041016,       30.0445556641
1494295005.8286800385,       -0.1254882812,       -0.2661132812,       -0.1318359375,      -37.8723144531,      -22.8424072266,       34.8510742188
1494295005.8313920498,       -0.1254882812,       -0.2661132812,       -0.1318359375,      -37.8723144531,      -22.8424072266,       34.8510742188
1494295005.8340849876,       -0.1254882812,       -0.2661132812,       -0.1318359375,      -35.3546142578,      -21.5454101562,       37.7197265625
1494295005.8367879391,       -0.1943359375,       -0.3959960938,       -0.1127929688,      -35.3546142578,      -21.5454101562,       37.7197265625
1494295005.8394880295,       -0.1943359375,       -0.3959960938,       -0.1127929688,      -39.2456054688,      -18.2800292969,       40.0543212891
1494295005.8422060013,       -0.1943359375,       -0.3959960938,       -0.1127929688,      -39.2456054688,      -18.2800292969,       40.0543212891
1494295005.8449099064,       -0.1943359375,       -0.3959960938,       -0.1191406250,      -49.4232177734,      -16.4947509766,       42.0532226562
1494295005.8476130962,       -0.2622070312,       -0.4052734375,       -0.1191406250,      -49.4232177734,      -16.4947509766,       42.0532226562
1494295005.8503150940,       -0.2622070312,       -0.4052734375,       -0.1191406250,      -63.5375976562,      -15.0909423828,       45.1812744141
1494295005.8529059887,       -0.2622070312,       -0.4052734375,       -0.1191406250,      -63.5375976562,      -15.0909423828,       45.1812744141
1494295005.8554689884,       -0.2622070312,       -0.2915039062,       -0.1699218750,      -63.5375976562,      -11.4898681641,       51.2237548828
1494295005.8580250740,       -0.2558593750,       -0.2915039062,       -0.1699218750,      -78.3843994141,      -11.4898681641,       51.2237548828
1494295005.8605809212,       -0.2558593750,       -0.2915039062,       -0.1699218750,      -78.3843994141,       -7.5836181641,       57.8308105469
1494295005.8632431030,       -0.2558593750,       -0.2915039062,       -0.1699218750,      -92.7886962891,       -5.3558349609,       57.8308105469
1494295005.8657910824,       -0.1308593750,       -0.1250000000,       -0.3813476562,      -92.7886962891,       -5.3558349609,       62.6678466797
1494295005.8683450222,       -0.2377929688,       -0.1250000000,       -0.3813476562,     -107.5592041016,        0.8239746094,       62.6678466797
1494295005.8709731102,       -0.2377929688,       -0.1250000000,       -0.3813476562,     -107.5592041016,        0.8239746094,       62.6678466797
1494295005.8736710548,       -0.2377929688,       -0.1250000000,       -0.3813476562,     -118.7438964844,        9.5672607422,       65.4907226562
1494295005.8763649464,       -0.0205078125,        1.7626953125,        1.5141601562,     -118.7438964844,        9.5672607422,       61.5844726562
1494295005.8792068958,       -0.0205078125,        1.7626953125,        1.5141601562,        0.7934570312,       -6.6680908203,       62.3474121094
1494295005.8823440075,       -0.0205078125,        1.7626953125,        1.5141601562,        0.7934570312,     -127.7618408203,       98.5260009766
1494295005.8850400448,       -0.0205078125,        1.7626953125,        2.0141601562,      425.1556396484,     -128.2653808594,       98.5260009766
1494295005.8877379894,       -3.5458984375,       13.2104492188,        2.0439453125,      425.1556396484,      102.2033691406,      313.1103515625
1494295005.8905448914,       -3.5458984375,       13.2104492188,        2.0439453125,      -51.2390136719,      103.7139892578,      313.1103515625
1494295005.8931250572,       -3.5458984375,       13.2104492188,        2.0439453125,      -51.2390136719,      103.7139892578,      274.7650146484
1494295005.8956849575,       -3.5458984375,       -4.9145507812,       -5.1518554688,     -498.9929199219,      221.1456298828,      274.7650146484
1494295005.8982400894,       -6.8349609375,       -4.9350585938,       -5.1518554688,     -498.9929199219,      221.1456298828,      259.1400146484
1494295005.9008069038,       -6.8349609375,       -4.9350585938,       -5.1518554688,      -80.0781250000,      -78.0334472656,      261.0931396484
1494295005.9034969807,       -6.8349609375,       -4.9350585938,       -5.1518554688,      -80.0781250000,      -78.0334472656,      261.0931396484
1494295005.9061961174,       -4.2099609375,       -4.8349609375,       -1.3378906250,      454.2083740234,      -88.0279541016,      259.7656250000
1494295005.9088909626,       -4.1748046875,       -4.8349609375,       -1.3378906250,      454.2083740234,      -88.0279541016,      259.7656250000
1494295005.9115629196,       -4.1748046875,       -4.8349609375,       -1.3378906250,      207.9772949219,      -50.9338378906,      138.0615234375
1494295005.9141199589,       -4.1748046875,       -4.8349609375,       -1.3378906250,      207.9772949219,      -50.9338378906,      138.0615234375
1494295005.9166688919,       -0.2353515625,       -2.7646484375,        1.8149414062,       34.9426269531,       23.7731933594,      141.2048339844
1494295005.9192221165,       -0.2353515625,       -2.7646484375,        1.8149414062,       34.9426269531,       23.7731933594,      141.2048339844
1494295005.9217851162,       -0.2353515625,       -2.7646484375,        1.8149414062,        1.3885498047,       62.5000000000,      152.8167724609
1494295005.9243359566,       -0.2353515625,       -2.7646484375,        1.8149414062,        1.3885498047,       62.5000000000,      152.8167724609
1494295005.9268929958,       -1.8125000000,        1.0922851562,        2.3652343750,     -137.9699707031,       34.5764160156,      169.2504882812
1494295005.9294478893,       -1.8125000000,        1.0922851562,        2.3652343750,     -137.9699707031,       34.5764160156,      169.2504882812
1494295005.9320569038,       -1.8125000000,        1.0922851562,        2.3652343750,     -261.7645263672,       36.0565185547,      146.4843750000
1494295005.9346129894,       -1.8125000000,        1.0922851562,        2.3652343750,     -261.7645263672,       36.0565185547,      146.4843750000
1494295005.9371640682,       -1.5771484375,        0.8203125000,       -1.3012695312,     -113.3270263672,       12.1002197266,       92.4072265625
1494295005.9397180080,       -1.5771484375,        0.8203125000,       -1.3012695312,     -114.8223876953,       12.1002197266,       92.4072265625
1494295005.9425039291,       -1.5771484375,        0.8203125000,       -1.3012695312,       33.6151123047,       50.4302978516,      155.8227539062
1494295005.9452071190,       -1.5771484375,        0.8203125000,       -1.3012695312,       31.4025878906,       50.4302978516,      155.8227539062
1494295005.9479041100,       -4.2758789062,        0.2583007812,       -2.3671875000,       31.4025878906,       59.4482421875,      131.8511962891
1494295005.9505970478,       -4.2758789062,        0.2583007812,       -2.3671875000,       -9.2926025391,       59.4482421875,      131.8511962891
1494295005.9531500340,       -4.2758789062,        0.2583007812,       -2.3671875000,       -9.2926025391,       59.4482421875,      130.3405761719
1494295005.9556999207,       -4.2758789062,        0.2583007812,       -0.2421875000,      -45.3948974609,       12.6647949219,      130.3405761719
1494295005.9582600594,       -2.0600585938,       -0.5156250000,       -0.2382812500,      -45.3948974609,       12.6647949219,      157.6843261719
1494295005.9609899521,       -2.0600585938,       -0.5156250000,       -0.2382812500,      -80.0018310547,      -30.6243896484,      158.2489013672
1494295005.9636878967,       -2.0600585938,       -0.5156250000,       -0.2382812500,      -80.0018310547,      -30.6243896484,      152.6031494141
1494295005.9663848877,       -2.0600585938,        0.5971679688,        0.8701171875,     -127.4871826172,      -23.4985351562,      152.6031494141
1494295005.9690830708,        0.6782226562,        0.5971679688,        0.8701171875,     -127.4871826172,      -23.4985351562,      132.0190429688
1494295005.9717850685,        0.6782226562,        0.5971679688,        0.8701171875,     -104.8736572266,       -1.8310546875,      132.0190429688
1494295005.9744780064,        0.6782226562,        0.5971679688,        0.8701171875,     -104.8736572266,       -1.8310546875,      124.2065429688
1494295005.9771659374,        0.0190429688,        0.8066406250,        0.1958007812,      -57.9223632812,        0.3204345703,      121.1853027344
1494295005.9798569679,        0.0190429688,        0.8066406250,        0.1958007812,      -57.9223632812,        0.3204345703,      101.6540527344
1494295005.9825620651,        0.0190429688,        0.8066406250,        0.1958007812,      -38.7420654297,        0.9765625000,      105.4077148438
1494295005.9852540493,        0.0190429688,        0.8066406250,        0.1958007812,      -38.7420654297,        0.9765625000,       78.0639648438
1494295005.9879450798,       -0.4687500000,        0.8398437500,       -0.1855468750,      -25.5432128906,        1.8310546875,       76.0650634766
1494295005.9906840324,       -0.4687500000,        0.8398437500,       -0.1855468750,      -25.5432128906,        1.8310546875,       76.0650634766
1494295005.9932549000,       -0.4687500000,        0.8398437500,       -0.1855468750,        6.7138671875,       -0.7934570312,       50.3692626953
1494295005.9958050251,       -0.4687500000,        0.8398437500,       -0.1855468750,        6.7138671875,       -0.7934570312,       50.3692626953
1494295005.9985709190,       -0.9814453125,        0.6821289062,       -0.3491210938,       26.1688232422,       -2.8686523438,       32.9895019531
1494295006.0015780926,       -0.9814453125,        0.6821289062,       -0.3491210938,       26.1688232422,       -2.8686523438,       21.2707519531
1494295006.0042729378,       -0.9814453125,        0.6821289062,       -0.3491210938,       25.3601074219,       -5.0811767578,       22.3999023438
1494295006.0069661140,       -0.8564453125,        0.5073242188,       -0.1528320312,       25.3601074219,       -5.0811767578,       18.4936523438
1494295006.0096609592,       -0.8569335938,        0.5073242188,       -0.1528320312,       16.1437988281,       -9.3383789062,       16.7083740234
1494295006.0123710632,       -0.8569335938,        0.5073242188,       -0.1528320312,       16.1437988281,       -9.3383789062,       16.7083740234
1494295006.0150690079,       -0.8569335938,        0.5073242188,       -0.1528320312,        6.8054199219,      -10.7879638672,       12.0086669922
1494295006.0177650452,       -0.4165039062,        0.5380859375,       -0.0517578125,        6.8054199219,      -10.7879638672,       12.0086669922
1494295006.0204579830,       -0.4165039062,        0.5380859375,       -0.0517578125,       -0.1068115234,      -10.3607177734,        6.7901611328
1494295006.0231590271,       -0.4165039062,        0.5380859375,       -0.0517578125,       -0.1068115234,      -10.3607177734,        6.7901611328
1494295006.0258500576,       -0.4165039062,        0.5380859375,       -0.0517578125,       -6.4544677734,       -7.7209472656,        1.4801025391
1494295006.0285370350,       -0.3930664062,        0.6171875000,       -0.1049804688,       -6.4544677734,       -7.7209472656,        1.4801025391
1494295006.0312180519,       -0.3930664062,        0.6171875000,       -0.1049804688,       -8.8958740234,       -4.7149658203,       -4.0893554688
1494295006.0337638855,       -0.3930664062,        0.6171875000,       -0.1049804688,       -8.8958740234,       -4.7149658203,       -4.0893554688
1494295006.0364270210,       -0.3930664062,        0.6171875000,       -0.1049804688,       -9.3536376953,       -2.9602050781,       -9.9639892578
1494295006.0389819145,       -0.6743164062,        0.5434570312,       -0.0922851562,       -9.3536376953,       -2.9602050781,       -9.9639892578
1494295006.0415539742,       -0.6743164062,        0.5434570312,       -0.0922851562,       -8.8500976562,       -1.9836425781,      -15.7928466797
1494295006.0441050529,       -0.6743164062,        0.5434570312,       -0.0922851562,       -8.8500976562,       -1.9836425781,      -15.7928466797
1494295006.0466580391,       -0.6743164062,        0.5434570312,        0.1210937500,       -7.0800781250,       -2.3651123047,      -20.9045410156
1494295006.0492041111,       -0.7319335938,        0.3198242188,        0.1210937500,       -7.0800781250,       -2.3651123047,      -20.9045410156
1494295006.0518710613,       -0.7319335938,        0.3198242188,        0.1210937500,       -5.4473876953,       -2.8686523438,      -25.1464843750
1494295006.0544250011,       -0.7319335938,        0.3198242188,        0.1210937500,       -5.4473876953,       -2.8686523438,      -25.1464843750
1494295006.0569820404,       -0.7319335938,        0.3198242188,        0.3154296875,       -5.4473876953,       -1.9073486328,      -29.1137695312
1494295006.0595309734,       -0.6284179688,        0.2705078125,        0.3154296875,       -3.9367675781,       -1.9073486328,      -29.1137695312
1494295006.0622990131,       -0.6284179688,        0.2705078125,        0.3154296875,       -0.0305175781,       -0.1068115234,      -33.0505371094
1494295006.0649929047,       -0.6284179688,        0.2705078125,        0.3154296875,       -0.8544921875,       -0.1068115234,      -33.0505371094
1494295006.0676810741,       -0.6689453125,        0.3696289062,        0.2167968750,       -0.8544921875,        1.9226074219,      -37.3382568359
1494295006.0703709126,       -0.6689453125,        0.3696289062,        0.2167968750,        3.5247802734,        1.9226074219,      -37.3382568359
1494295006.0730619431,       -0.6689453125,        0.3696289062,        0.2167968750,        3.5247802734,        2.8686523438,      -41.6717529297
1494295006.0757510662,       -0.6689453125,        0.3696289062,        0.2167968750,        6.0424804688,        2.8686523438,      -41.6717529297
1494295006.0784409046,       -0.6738281250,        0.4145507812,        0.0131835938,        6.0424804688,        4.0283203125,      -45.2880859375
1494295006.0811450481,       -0.6738281250,        0.4145507812,        0.0131835938,        5.2185058594,        4.0283203125,      -45.2880859375
1494295006.0838320255,       -0.6738281250,        0.4145507812,        0.0131835938,        5.2185058594,        4.0283203125,      -47.8515625000
1494295006.0865230560,       -0.6738281250,        0.4145507812,        0.0131835938,        2.0446777344,        5.4779052734,      -47.8515625000
1494295006.0892100334,       -0.6845703125,        0.4277343750,       -0.0375976562,        2.0446777344,        5.4779052734,      -50.5828857422
1494295006.0918829441,       -0.6845703125,        0.4277343750,       -0.0375976562,       -2.3193359375,        6.8664550781,      -50.5828857422
1494295006.0944340229,       -0.6845703125,        0.4277343750,       -0.0375976562,       -2.3193359375,        6.8664550781,      -53.2073974609
1494295006.0969829559,       -0.6845703125,        0.4277343750,        0.0244140625,       -6.4697265625,        8.5601806641,      -53.2073974609
1494295006.0995380878,       -0.6650390625,        0.4106445312,        0.0244140625,       -6.4697265625,        8.5601806641,      -57.1136474609
1494295006.1022329330,       -0.6650390625,        0.4106445312,        0.0244140625,       -9.4299316406,       10.1623535156,      -55.6488037109
1494295006.1048820019,       -0.6650390625,        0.4106445312,        0.0244140625,       -9.4299316406,       10.1623535156,      -55.6488037109
1494295006.1075339317,       -0.6650390625,        0.3896484375,        0.0732421875,      -11.2152099609,       11.2152099609,      -58.6395263672
1494295006.1102991104,       -0.6757812500,        0.3896484375,        0.0732421875,      -11.2152099609,       11.2152099609,      -58.6395263672
1494295006.1130139828,       -0.6757812500,        0.3896484375,        0.0732421875,      -12.1765136719,       12.4053955078,      -62.0269775391
1494295006.1157140732,       -0.6757812500,        0.3896484375,        0.0732421875,      -12.1765136719,       12.4053955078,      -65.9332275391
1494295006.1186470985,       -0.6850585938,        0.3657226562,        0.0625000000,      -11.6882324219,       12.9089355469,      -65.4296875000
1494295006.1216111183,       -0.6850585938,        0.3657226562,        0.0625000000,      -11.6882324219,       12.9089355469,      -68.7713623047
1494295006.1243140697,       -0.6850585938,        0.3657226562,        0.0625000000,      -11.0015869141,       13.0462646484,      -68.7713623047
1494295006.1270120144,       -0.6850585938,        0.3657226562,        0.0625000000,      -11.0015869141,       13.0462646484,      -72.2351074219
1494295006.1297130585,       -0.7041015625,        0.3442382812,        0.0400390625,      -11.4746093750,       12.6190185547,      -72.2351074219
1494295006.1324219704,       -0.7041015625,        0.3442382812,        0.0400390625,      -11.4746093750,       12.6190185547,      -75.4089355469
1494295006.1351230145,       -0.7041015625,        0.3442382812,        0.0400390625,      -12.7258300781,       11.9171142578,      -75.4089355469
1494295006.1378300190,       -0.7041015625,        0.3481445312,        0.0234375000,      -12.7258300781,       11.9171142578,      -78.5980224609
1494295006.1405310631,       -0.6977539062,        0.3481445312,        0.0234375000,      -13.6718750000,       11.2152099609,      -78.5980224609
1494295006.1431150436,       -0.6977539062,        0.3481445312,        0.0234375000,      -13.6718750000,       11.2152099609,      -78.5980224609
1494295006.1456720829,       -0.6977539062,        0.3481445312,        0.0234375000,      -14.1296386719,       10.1013183594,      -81.3293457031
1494295006.1482350826,       -0.6977539062,        0.3549804688,        0.0200195312,      -14.1296386719,       10.1013183594,      -81.3293457031
1494295006.1507940292,       -0.6713867188,        0.3549804688,        0.0200195312,      -14.6179199219,        8.9263916016,      -84.5336914062
1494295006.1533529758,       -0.6713867188,        0.3549804688,        0.0200195312,      -14.6179199219,        8.9263916016,      -84.5336914062
1494295006.1559081078,       -0.6713867188,        0.3549804688,        0.0200195312,      -13.2446289062,        8.0413818359,      -87.2955322266
1494295006.1584639549,       -0.6704101562,        0.3686523438,        0.0166015625,      -13.2446289062,        8.0413818359,      -87.2955322266
1494295006.1610240936,       -0.6704101562,        0.3686523438,        0.0166015625,      -12.0391845703,        7.1716308594,      -90.1641845703
1494295006.1635830402,       -0.6704101562,        0.3686523438,        0.0166015625,      -12.0391845703,        7.1716308594,      -90.1641845703
1494295006.1661360264,       -0.6704101562,        0.3686523438,        0.0166015625,       -9.7808837891,        6.1187744141,      -93.5668945312
1494295006.1686899662,       -0.6938476562,        0.3598632812,        0.0205078125,       -9.7808837891,        6.1187744141,      -93.5668945312
1494295006.1713409424,       -0.6938476562,        0.3598632812,        0.0205078125,       -5.8746337891,        4.9896240234,      -96.5728759766
1494295006.1738929749,       -0.6938476562,        0.3598632812,        0.0205078125,       -6.5155029297,        4.9896240234,      -96.5728759766
1494295006.1764490604,       -0.6938476562,        0.3598632812,        0.0205078125,       -6.5155029297,        1.0833740234,      -99.4262695312
1494295006.1789979935,       -0.7128906250,        0.3281250000,        0.0190429688,       -4.4097900391,        3.3111572266,      -99.4262695312
1494295006.1817619801,       -0.7128906250,        0.3281250000,        0.0190429688,       -4.4097900391,        3.3111572266,     -100.8453369141
1494295006.1843199730,       -0.7128906250,        0.3281250000,        0.0190429688,       -1.0833740234,        2.2888183594,     -100.8453369141
1494295006.1868739128,       -0.7128906250,        0.3281250000,        0.0190429688,       -1.0833740234,        2.2888183594,     -104.7515869141
1494295006.1894240379,       -0.7324218750,        0.3178710938,        0.0117187500,        2.4261474609,        1.1596679688,     -101.8676757812
1494295006.1920590401,       -0.7324218750,        0.3178710938,        0.0117187500,        2.4261474609,        1.1596679688,     -101.8676757812
1494295006.1947519779,       -0.7324218750,        0.3178710938,        0.0117187500,        6.7901611328,       -0.3204345703,     -103.4851074219
1494295006.1974480152,       -0.7324218750,        0.3178710938,        0.0117187500,        6.7901611328,       -0.3204345703,     -103.4851074219
1494295006.2001380920,       -0.7431640625,        0.2968750000,        0.0097656250,        9.9945068359,       -1.8157958984,     -105.0720214844
1494295006.2028501034,       -0.7431640625,        0.2968750000,        0.0097656250,        9.9945068359,       -1.8157958984,     -105.0720214844
1494295006.2055490017,       -0.7431640625,        0.2968750000,        0.0097656250,       13.5192871094,       -3.0822753906,     -106.2927246094
1494295006.2082459927,       -0.7431640625,        0.2968750000,        0.0078125000,       13.5192871094,       -3.0822753906,     -106.2927246094
1494295006.2109420300,       -0.7153320312,        0.2641601562,        0.0078125000,       17.7307128906,       -4.0740966797,     -105.4687500000
1494295006.2134981155,       -0.7153320312,        0.2641601562,        0.0078125000,       17.7307128906,       -4.0740966797,     -105.4687500000
1494295006.2160530090,       -0.7153320312,        0.2641601562,        0.0078125000,       21.6064453125,       -5.9967041016,     -104.4769287109
1494295006.2186129093,       -0.7153320312,        0.1616210938,        0.0102539062,       21.6064453125,       -5.9967041016,     -104.4769287109
1494295006.2212278843,       -0.6889648438,        0.1616210938,        0.0102539062,       25.9704589844,       -5.9814453125,     -104.5074462891
1494295006.2239260674,       -0.6889648438,        0.1616210938,        0.0102539062,       25.9704589844,       -5.9814453125,     -104.5074462891
1494295006.2266199589,       -0.6889648438,        0.1616210938,        0.0102539062,       23.6511230469,       -8.5296630859,     -101.9134521484
1494295006.2293150425,       -0.6542968750,        0.0732421875,        0.0493164062,       23.6511230469,       -8.5296630859,     -101.9134521484
1494295006.2319591045,       -0.6542968750,        0.0732421875,        0.0493164062,       18.6614990234,       -9.6282958984,      -98.7548828125
1494295006.2345170975,       -0.6542968750,        0.0732421875,        0.0493164062,       18.6614990234,       -9.6282958984,      -98.7548828125
1494295006.2371060848,       -0.6542968750,        0.0732421875,        0.0493164062,       14.3280029297,      -10.5895996094,      -92.8497314453
1494295006.2396900654,       -0.6611328125,        0.0649414062,        0.0761718750,       14.3280029297,      -10.5895996094,      -92.8497314453
1494295006.2427780628,       -0.6611328125,        0.0649414062,        0.0761718750,       11.4898681641,       -7.4310302734,      -89.5843505859
1494295006.2454729080,       -0.6611328125,        0.0649414062,        0.0761718750,       11.4898681641,       -7.4310302734,      -89.5843505859
1494295006.2481670380,       -0.6611328125,        0.0649414062,        0.0761718750,       13.0615234375,       -2.8228759766,      -87.9821777344
1494295006.2509129047,       -0.7358398438,        0.0395507812,        0.0571289062,       13.0615234375,       -2.8228759766,      -87.9821777344
1494295006.2536079884,       -0.7358398438,        0.0395507812,        0.0571289062,       14.1448974609,       -1.2512207031,      -85.1135253906
1494295006.2564129829,       -0.7358398438,        0.0395507812,        0.0571289062,       14.1448974609,       -1.2512207031,      -85.1135253906
1494295006.2591149807,       -0.7358398438,        0.0297851562,        0.0400390625,       14.7399902344,       -1.4038085938,      -80.3833007812
1494295006.2618219852,       -0.6508789062,        0.0297851562,        0.0400390625,       14.7399902344,       -1.4038085938,      -80.3833007812
1494295006.2645189762,       -0.6508789062,        0.0297851562,        0.0400390625,       18.4020996094,       -0.3509521484,      -74.6154785156
1494295006.2672181129,       -0.6508789062,        0.0297851562,        0.0400390625,       18.4020996094,       -0.3509521484,      -74.6154785156
1494295006.2699120045,       -0.6875000000,       -0.0400390625,        0.0209960938,       21.4691162109,        0.6713867188,      -70.0378417969
1494295006.2725250721,       -0.6875000000,       -0.0400390625,        0.0209960938,       21.4691162109,        0.6713867188,      -70.0378417969
1494295006.2750809193,       -0.6875000000,       -0.0400390625,        0.0209960938,       22.3846435547,        1.5563964844,      -67.4896240234
1494295006.2776329517,       -0.6875000000,       -0.0400390625,        0.0209960938,       22.3846435547,        1.5563964844,      -67.4896240234
1494295006.2801849842,       -0.7407226562,       -0.0781250000,        0.0214843750,       18.4783935547,        1.6021728516,      -65.4602050781
1494295006.2827498913,       -0.7407226562,       -0.0781250000,        0.0214843750,       19.3023681641,        1.6021728516,      -65.4602050781
1494295006.2853050232,       -0.7407226562,       -0.0781250000,        0.0214843750,       19.3023681641,        1.6021728516,      -60.8215332031
1494295006.2878599167,       -0.7407226562,       -0.0781250000,        0.0214843750,       11.9323730469,        2.2735595703,      -60.8215332031
1494295006.2904050350,       -0.7470703125,        0.0092773438,        0.0488281250,       11.9323730469,        2.2735595703,      -56.9763183594
1494295006.2930068970,       -0.7470703125,        0.0092773438,        0.0488281250,        6.3476562500,        1.7700195312,      -56.9763183594
1494295006.2955579758,       -0.7470703125,        0.0092773438,        0.0488281250,        6.3476562500,        1.7700195312,      -56.9763183594
1494295006.2981069088,       -0.7470703125,        0.0092773438,        0.0488281250,        1.8463134766,        0.7934570312,      -49.4995117188
1494295006.3007810116,       -0.6835937500,        0.0292968750,        0.0502929688,        1.8463134766,        0.7934570312,      -49.4995117188
1494295006.3034760952,       -0.6835937500,        0.0292968750,        0.0502929688,        0.8697509766,        1.2969970703,      -43.2891845703
1494295006.3061668873,       -0.6835937500,        0.0292968750,        0.0502929688,        0.8697509766,        1.2969970703,      -43.2891845703
1494295006.3088579178,       -0.6835937500,        0.0292968750,       -0.0053710938,        4.1656494141,        2.5177001953,      -40.7867431641
1494295006.3115630150,       -0.6943359375,       -0.0581054688,       -0.0053710938,        4.1656494141,        2.5177001953,      -40.7867431641
1494295006.3142518997,       -0.6943359375,       -0.0581054688,       -0.0053710938,        5.0659179688,        2.7160644531,      -38.4368896484
1494295006.3169379234,       -0.6943359375,       -0.0581054688,       -0.0053710938,        5.0659179688,        2.7160644531,      -38.4368896484
1494295006.3196280003,       -0.6943359375,       -0.1635742188,        0.0068359375,        2.1362304688,        1.8615722656,      -34.6679687500
1494295006.3223569393,       -0.7050781250,       -0.1635742188,        0.0068359375,        2.1362304688,        1.8615722656,      -34.6679687500
1494295006.3250460625,       -0.7050781250,       -0.1635742188,        0.0068359375,        0.3662109375,        1.6479492188,      -30.4565429688
1494295006.3277349472,       -0.7050781250,       -0.1635742188,        0.0068359375,        0.3662109375,        1.6479492188,      -30.4565429688
1494295006.3305358887,       -0.7207031250,       -0.2363281250,        0.0146484375,        0.2136230469,        1.4953613281,      -25.6347656250
1494295006.3331110477,       -0.7207031250,       -0.2363281250,        0.0146484375,        0.2136230469,        1.4953613281,      -25.6347656250
1494295006.3356599808,       -0.7207031250,       -0.2363281250,        0.0146484375,        0.4425048828,        1.0223388672,      -21.5301513672
1494295006.3382151127,       -0.7207031250,       -0.2363281250,        0.0146484375,        0.4425048828,        1.0223388672,      -21.5301513672
1494295006.3407709599,       -0.7016601562,       -0.2905273438,        0.0322265625,        2.9602050781,        0.5493164062,      -18.4936523438
1494295006.3434629440,       -0.7016601562,       -0.2905273438,        0.0322265625,        2.9602050781,        0.5493164062,      -18.4936523438
1494295006.3461570740,       -0.7016601562,       -0.2905273438,        0.0322265625,        1.9378662109,       -0.5493164062,      -15.4113769531
1494295006.3488459587,       -0.7016601562,       -0.2905273438,        0.0322265625,        1.9378662109,       -0.5493164062,      -15.4113769531
1494295006.3515470028,       -0.7255859375,       -0.1904296875,        0.0541992188,       -2.3803710938,       -1.8463134766,      -11.1999511719
1494295006.3542399406,       -0.7255859375,       -0.1904296875,        0.0541992188,       -2.3803710938,       -1.8463134766,      -11.1999511719
1494295006.3570120335,       -0.7255859375,       -0.1904296875,        0.0541992188,       -6.0119628906,       -3.2196044922,       -6.1340332031
1494295006.3597440720,       -0.7255859375,        0.0000000000,        0.0458984375,       -6.0119628906,       -3.2196044922,       -6.1340332031
1494295006.3625829220,       -0.7695312500,        0.0000000000,        0.0458984375,       -9.9334716797,       -4.5928955078,       -1.2207031250
1494295006.3652749062,       -0.7695312500,        0.0000000000,        0.0458984375,       -9.9334716797,       -4.5928955078,       -1.2207031250
1494295006.3679640293,       -0.7695312500,        0.0000000000,        0.0458984375,       -7.7056884766,       -5.4168701172,        2.0599365234
1494295006.3706870079,       -0.7958984375,        0.0864257812,       -0.0190429688,       -7.7056884766,       -5.4168701172,        2.0599365234
1494295006.3732349873,       -0.7958984375,        0.0864257812,       -0.0190429688,        0.3356933594,       -4.7607421875,        4.0740966797
1494295006.3757820129,       -0.7958984375,        0.0864257812,       -0.0190429688,        0.3356933594,       -4.7607421875,        4.0740966797
1494295006.3783240318,       -0.7958984375,        0.0864257812,       -0.0190429688,       10.8795166016,       -3.9825439453,        7.0037841797
1494295006.3809409142,       -0.7763671875,        0.0712890625,       -0.0136718750,       10.8795166016,       -3.9825439453,        7.0037841797
1494295006.3836340904,       -0.7763671875,        0.0712890625,       -0.0136718750,       13.1835937500,       -4.1046142578,        9.4451904297
1494295006.3863279819,       -0.7763671875,        0.0712890625,       -0.0136718750,       13.1835937500,       -4.1046142578,        9.4451904297
1494295006.3890180588,       -0.7763671875,        0.0712890625,       -0.0136718750,       13.1835937500,       -4.5471191406,       13.7939453125
1494295006.3917119503,       -0.7724609375,        0.1459960938,       -0.0092773438,       13.3056640625,       -4.5471191406,       13.7939453125
1494295006.3942670822,       -0.7724609375,        0.1459960938,       -0.0092773438,       13.3056640625,       -5.0354003906,       17.6239013672
1494295006.3968269825,       -0.7724609375,        0.1459960938,       -0.0092773438,       13.3514404297,       -5.0354003906,       17.6239013672
1494295006.3993830681,       -0.7724609375,        0.1459960938,        0.1157226562,       13.3514404297,       -5.0354003906,       19.3176269531
1494295006.4020481110,       -0.7675781250,        0.1391601562,        0.0278320312,       14.1296386719,       -6.3934326172,       19.3176269531
1494295006.4046149254,       -0.7675781250,        0.1391601562,        0.0278320312,       14.1296386719,       -6.3934326172,       23.2238769531
1494295006.4071719646,       -0.7675781250,        0.1391601562,        0.0278320312,       12.2833251953,       -7.7514648438,       21.6827392578
1494295006.4097340107,       -0.7675781250,        0.1391601562,        0.0478515625,       12.2833251953,       -7.7514648438,       21.6827392578
1494295006.4124341011,       -0.7929687500,        0.1777343750,        0.0478515625,       10.3607177734,       -9.7656250000,       23.4069824219
1494295006.4149899483,       -0.7929687500,        0.1777343750,        0.0478515625,       10.3607177734,       -9.7656250000,       23.4069824219
1494295006.4175438881,       -0.7929687500,        0.1777343750,        0.0478515625,       13.5650634766,      -10.3149414062,       24.4445800781
1494295006.4201018810,       -0.7929687500,        0.0527343750,        0.0024414062,       13.5650634766,      -10.3149414062,       24.4445800781
1494295006.4229240417,       -0.7910156250,        0.1215820312,        0.0024414062,       19.1650390625,      -10.2691650391,       26.4282226562
1494295006.4256269932,       -0.7910156250,        0.1215820312,        0.0024414062,       19.1650390625,      -10.2691650391,       26.4282226562
1494295006.4283270836,       -0.7910156250,        0.1215820312,        0.0024414062,       26.1535644531,      -10.1470947266,       30.2429199219
1494295006.4310350418,       -0.7983398438,        0.0527343750,       -0.0322265625,       26.1535644531,      -10.1470947266,       30.2429199219
1494295006.4337320328,       -0.7983398438,        0.0527343750,       -0.0322265625,       35.5529785156,      -10.7727050781,       35.8123779297
1494295006.4364318848,       -0.7983398438,        0.0527343750,       -0.0322265625,       35.5529785156,      -10.7727050781,       35.8123779297
1494295006.4391291142,       -0.7983398438,        0.0527343750,       -0.0322265625,       32.4249267578,      -10.9558105469,       40.5883789062
1494295006.4418420792,       -0.7534179688,       -0.0361328125,       -0.0156250000,       32.4249267578,      -10.9558105469,       40.5883789062
1494295006.4445369244,       -0.7534179688,       -0.0361328125,       -0.0156250000,       29.6478271484,      -11.1846923828,       47.1191406250
1494295006.4472301006,       -0.7534179688,       -0.0361328125,       -0.0156250000,       29.6478271484,      -11.1846923828,       47.1191406250
1494295006.4499280453,       -0.7534179688,       -0.0361328125,        0.0576171875,       25.4058837891,      -12.5579833984,       53.9703369141
1494295006.4526369572,       -0.6577148438,       -0.1171875000,        0.0576171875,       25.4058837891,      -12.5579833984,       53.9703369141
1494295006.4553298950,       -0.6577148438,       -0.1171875000,        0.0576171875,       18.2495117188,      -15.3503417969,       60.3027343750
1494295006.4580268860,       -0.6577148438,       -0.1171875000,        0.0576171875,       18.2495117188,      -15.3503417969,       60.3027343750
1494295006.4607369900,       -0.6577148438,       -0.1049804688,        0.1762695312,        9.1857910156,      -18.3105468750,       65.8111572266
1494295006.4632959366,       -0.5659179688,       -0.1049804688,        0.1762695312,        9.1857910156,      -18.3105468750,       65.8111572266
1494295006.4658510685,       -0.5659179688,       -0.1049804688,        0.1762695312,        1.5411376953,      -21.4080810547,       68.2220458984
1494295006.4684100151,       -0.5659179688,       -0.1049804688,        0.1762695312,        1.5411376953,      -21.4080810547,       68.2220458984
1494295006.4709939957,       -0.5659179688,        0.0903320312,        0.2573242188,       -1.4190673828,      -22.4456787109,       68.1457519531
1494295006.4735488892,       -0.5849609375,        0.0903320312,        0.2573242188,       -1.4190673828,      -22.4456787109,       68.1457519531
1494295006.4762120247,       -0.5849609375,        0.0903320312,        0.2573242188,        2.1514892578,      -22.8118896484,       65.9027099609
1494295006.4789350033,       -0.5849609375,        0.0903320312,        0.2573242188,        2.1514892578,      -22.8118896484,       65.9027099609
1494295006.4819700718,       -0.6772460938,        0.2954101562,        0.1655273438,        9.1247558594,      -20.9808349609,       62.5457763672
1494295006.4846661091,       -0.6772460938,        0.2954101562,        0.1655273438,        9.1247558594,      -20.9808349609,       62.5457763672
1494295006.4873609543,       -0.6772460938,        0.2954101562,        0.1655273438,       16.3879394531,      -17.7001953125,       59.7381591797
1494295006.4900600910,       -0.6772460938,        0.2954101562,       -0.0844726562,       16.3879394531,      -17.7001953125,       59.7381591797
1494295006.4927680492,       -0.6860351562,        0.2998046875,       -0.0058593750,       22.3846435547,      -15.9912109375,       57.3425292969
1494295006.4954659939,       -0.6860351562,        0.2998046875,       -0.0058593750,       22.3846435547,      -15.9912109375,       57.3425292969
1494295006.4981679916,       -0.6860351562,        0.2998046875,       -0.0058593750,       25.2838134766,      -15.9759521484,       57.7087402344
1494295006.5009279251,       -0.6860351562,        0.1362304688,       -0.0561523438,       25.2838134766,      -15.9759521484,       57.7087402344
1494295006.5036299229,       -0.5810546875,        0.1362304688,       -0.0561523438,       24.2462158203,      -15.4418945312,       59.6771240234
1494295006.5063309669,       -0.5810546875,        0.1362304688,       -0.0561523438,       24.2462158203,      -15.4418945312,       59.6771240234
1494295006.5090301037,       -0.5810546875,        0.1362304688,       -0.0561523438,       17.3034667969,      -15.7318115234,       61.6302490234
1494295006.5117180347,       -0.5654296875,        0.0312500000,        0.0170898438,       17.3034667969,      -15.7318115234,       61.6302490234
1494295006.5142819881,       -0.5654296875,        0.0312500000,        0.0170898438,        9.4909667969,      -17.6544189453,       64.1937255859
1494295006.5168399811,       -0.5654296875,        0.0312500000,        0.0170898438,        9.1552734375,      -17.6544189453,       64.1937255859
1494295006.5193951130,       -0.5654296875,        0.0312500000,        0.0170898438,        9.1552734375,      -17.6544189453,       67.9626464844
1494295006.5219619274,       -0.6865234375,        0.0063476562,        0.1494140625,        3.1433105469,      -18.9056396484,       67.9626464844
1494295006.5245170593,       -0.6865234375,        0.0063476562,        0.1494140625,        3.1433105469,      -18.9056396484,       71.2585449219
1494295006.5270769596,       -0.6865234375,        0.0063476562,        0.1494140625,       -2.6855468750,      -17.8985595703,       71.2585449219
1494295006.5296359062,       -0.6865234375,        0.0063476562,        0.1494140625,       -2.6855468750,      -17.8985595703,       75.1647949219
1494295006.5322990417,       -0.8090820312,        0.0952148438,        0.1748046875,       -8.0718994141,      -17.4102783203,       74.2187500000
1494295006.5348598957,       -0.8090820312,        0.0952148438,        0.1748046875,       -8.0718994141,      -17.4102783203,       74.2187500000
1494295006.5374209881,       -0.8090820312,        0.0952148438,        0.1748046875,      -11.3220214844,      -16.4184570312,       77.0568847656
1494295006.5399808884,       -0.8090820312,        0.0952148438,        0.1748046875,      -11.3220214844,      -16.4184570312,       77.0568847656
1494295006.5427420139,       -0.8159179688,        0.1328125000,        0.1147460938,      -11.7797851562,      -15.7012939453,       79.7882080078
1494295006.5454449654,       -0.8159179688,        0.1328125000,        0.1147460938,      -11.7797851562,      -15.7012939453,       79.7882080078
1494295006.5481479168,       -0.8159179688,        0.1328125000,        0.1147460938,      -10.6506347656,      -15.8081054688,       82.2143554688
1494295006.5510089397,       -0.8159179688,        0.1328125000,        0.0288085938,      -10.6506347656,      -15.8081054688,       82.2143554688
1494295006.5537109375,       -0.7070312500,        0.2241210938,        0.0288085938,       -8.0566406250,      -15.7318115234,       82.6873779297
1494295006.5564110279,       -0.7070312500,        0.2241210938,        0.0288085938,       -8.0566406250,      -15.7318115234,       82.6873779297
1494295006.5591039658,       -0.7070312500,        0.2241210938,        0.0288085938,       -2.5177001953,      -15.0756835938,       81.3446044922
1494295006.5618169308,       -0.5820312500,        0.2783203125,        0.0292968750,       -2.5177001953,      -15.0756835938,       81.3446044922
1494295006.5645160675,       -0.6108398438,        0.2783203125,        0.0292968750,        0.8392333984,      -14.4195556641,       79.7882080078
1494295006.5672099590,       -0.6108398438,        0.2783203125,        0.0292968750,        0.8392333984,      -14.4195556641,       79.7882080078
1494295006.5699028969,       -0.6108398438,        0.2783203125,        0.0292968750,        1.3580322266,      -13.8244628906,       76.9042968750
1494295006.5725131035,       -0.5844726562,        0.3496093750,        0.0795898438,        1.3580322266,      -13.8244628906,       76.9042968750
1494295006.5750639439,       -0.5844726562,        0.3496093750,        0.0795898438,        2.1667480469,      -11.7950439453,       72.7844238281
1494295006.5776169300,       -0.5844726562,        0.3496093750,        0.0795898438,        2.1667480469,      -11.7950439453,       72.7844238281
1494295006.5801711082,       -0.5844726562,        0.3496093750,        0.0795898438,        4.6081542969,       -9.1247558594,       69.0002441406
1494295006.5828359127,       -0.7187500000,        0.4038085938,        0.0908203125,        4.6081542969,       -9.1247558594,       69.0002441406
1494295006.5853929520,       -0.7187500000,        0.4038085938,        0.0908203125,       10.0097656250,       -7.8582763672,       65.5212402344
1494295006.5879530907,       -0.7187500000,        0.4038085938,        0.0908203125,       10.0097656250,       -7.8582763672,       65.5212402344
1494295006.5905139446,       -0.7187500000,        0.4038085938,        0.0908203125,       16.4794921875,       -7.2479248047,       63.1408691406
1494295006.5932090282,       -0.7094726562,        0.2343750000,        0.0268554688,       16.4794921875,       -7.2479248047,       63.1408691406
1494295006.5958890915,       -0.7094726562,        0.2343750000,        0.0268554688,       19.1345214844,       -6.3323974609,       62.4389648438
1494295006.5986759663,       -0.7094726562,        0.2343750000,        0.0268554688,       19.1345214844,       -6.3323974609,       62.4389648438
1494295006.6016900539,       -0.7094726562,        0.1850585938,        0.0844726562,       14.9536132812,       -4.7760009766,       61.6607666016
1494295006.6043889523,       -0.7294921875,        0.1850585938,        0.0844726562,       14.9536132812,       -4.7760009766,       61.6607666016
1494295006.6070880890,       -0.7294921875,        0.1850585938,        0.0844726562,        8.4838867188,       -5.0506591797,       61.9964599609
1494295006.6097788811,       -0.7294921875,        0.1850585938,        0.0844726562,        8.4838867188,       -5.0506591797,       61.9964599609
1494295006.6124749184,       -0.7216796875,        0.2558593750,        0.1005859375,        2.8228759766,       -5.0811767578,       62.1795654297
1494295006.6151680946,       -0.7216796875,        0.2558593750,        0.1005859375,        2.8228759766,       -5.0811767578,       62.1795654297
1494295006.6178610325,       -0.7216796875,        0.2558593750,        0.1005859375,        0.3051757812,       -3.5095214844,       60.6079101562
1494295006.6205549240,       -0.7216796875,        0.2558593750,        0.1005859375,        0.3051757812,       -3.5095214844,       60.6079101562
1494295006.6233649254,       -0.6752929688,        0.3774414062,        0.0698242188,        0.8087158203,        0.0762939453,       58.8226318359
1494295006.6260650158,       -0.6752929688,        0.3774414062,        0.0698242188,        0.8087158203,        0.0762939453,       58.8226318359
1494295006.6287600994,       -0.6752929688,        0.3774414062,        0.0698242188,        1.4953613281,        2.9144287109,       55.7403564453
1494295006.6314380169,       -0.6752929688,        0.3774414062,        0.0698242188,        1.4953613281,        2.9144287109,       55.7403564453
1494295006.6339900494,       -0.7070312500,        0.3525390625,        0.0751953125,        1.4953613281,        4.2114257812,       51.6967773438
1494295006.6365389824,       -0.7070312500,        0.3525390625,        0.0751953125,        2.1362304688,        4.2114257812,       51.6967773438
1494295006.6390900612,       -0.7070312500,        0.3525390625,        0.0751953125,        2.1362304688,        4.2114257812,       48.0041503906
1494295006.6416990757,       -0.7070312500,        0.3525390625,        0.0937500000,        3.9520263672,        4.5166015625,       48.0041503906
1494295006.6442589760,       -0.5722656250,        0.2851562500,        0.0937500000,        3.9520263672,        4.5166015625,       46.1730957031
1494295006.6468169689,       -0.5722656250,        0.2851562500,        0.0937500000,        4.4097900391,        5.7983398438,       46.1730957031
1494295006.6493680477,       -0.5722656250,        0.2851562500,        0.0937500000,        4.4097900391,        5.7983398438,       46.1730957031
1494295006.6520440578,       -0.5722656250,        0.4101562500,        0.0717773438,        3.3569335938,        8.5754394531,       44.1741943359
1494295006.6545920372,       -0.6430664062,        0.3896484375,        0.0717773438,        3.3569335938,        8.5754394531,       44.1741943359
1494295006.6571469307,       -0.6430664062,        0.3896484375,        0.0717773438,        5.0354003906,       11.7340087891,       41.4886474609
1494295006.6597030163,       -0.6430664062,        0.3896484375,        0.0717773438,        5.0354003906,       11.7340087891,       41.4886474609
1494295006.6625010967,       -0.6430664062,        0.4829101562,       -0.0307617188,        5.3710937500,       14.4500732422,       39.0472412109
1494295006.6652040482,       -0.7226562500,        0.4829101562,       -0.0307617188,        5.3710937500,       14.4500732422,       39.0472412109
1494295006.6678950787,       -0.7226562500,        0.4829101562,       -0.0307617188,        6.1950683594,       17.9443359375,       36.3616943359
1494295006.6705911160,       -0.7226562500,        0.4829101562,       -0.0307617188,        6.1950683594,       17.9443359375,       36.3616943359
1494295006.6731510162,       -0.8081054688,        0.3847656250,       -0.0117187500,        7.7209472656,       19.0429687500,       33.5388183594
1494295006.6757030487,       -0.8081054688,        0.3847656250,       -0.0117187500,        7.7209472656,       19.0429687500,       33.5388183594
1494295006.6782529354,       -0.8081054688,        0.3847656250,       -0.0117187500,        7.4310302734,       18.5546875000,       30.9906005859
1494295006.6808149815,       -0.8081054688,        0.3847656250,       -0.0117187500,        7.4310302734,       18.5546875000,       30.9906005859
1494295006.6835069656,       -0.7421875000,        0.3090820312,        0.0776367188,        5.3558349609,       17.9901123047,       29.3121337891
1494295006.6862039566,       -0.7421875000,        0.3090820312,        0.0776367188,        5.3558349609,       17.9901123047,       29.3121337891
1494295006.6889081001,       -0.7421875000,        0.3090820312,        0.0776367188,        4.6234130859,       18.7072753906,       29.2816162109
1494295006.6916151047,       -0.7421875000,        0.3090820312,        0.0776367188,        4.6234130859,       18.7072753906,       29.2816162109
1494295006.6943120956,       -0.7744140625,        0.2583007812,        0.0898437500,        4.9591064453,       20.5841064453,       29.8461914062
1494295006.6971170902,       -0.7744140625,        0.2583007812,        0.0898437500,        4.9591064453,       20.5841064453,       29.8461914062
1494295006.6998150349,       -0.7744140625,        0.2583007812,        0.0898437500,        5.0811767578,       21.9116210938,       28.5339355469
1494295006.7025580406,       -0.7744140625,        0.2500000000,        0.1333007812,        5.0811767578,       21.9116210938,       28.5339355469
1494295006.7052528858,       -0.7480468750,        0.2500000000,        0.1333007812,        2.1667480469,       21.3165283203,       25.0091552734
1494295006.7079451084,       -0.7480468750,        0.2500000000,        0.1333007812,        2.1667480469,       21.3165283203,       25.0091552734
1494295006.7106719017,       -0.7480468750,        0.2500000000,        0.1333007812,       -1.1749267578,       21.3317871094,       21.6522216797
1494295006.7132461071,       -0.6499023438,        0.3554687500,        0.1049804688,       -1.1749267578,       21.3317871094,       21.6522216797
1494295006.7157990932,       -0.6499023438,        0.3554687500,        0.1049804688,       -3.1890869141,       21.7895507812,       18.0358886719
1494295006.7185699940,       -0.6499023438,        0.3554687500,        0.1049804688,       -3.1890869141,       21.7895507812,       18.0358886719
1494295006.7215759754,       -0.6499023438,        0.3554687500,        0.1049804688,       -3.1280517578,       22.2625732422,       14.8620605469
1494295006.7242701054,       -0.6596679688,        0.4018554688,        0.0507812500,       -3.1280517578,       22.2625732422,       14.8620605469
1494295006.7269690037,       -0.6596679688,        0.4018554688,        0.0507812500,       -2.6397705078,       22.7203369141,       11.3830566406
1494295006.7296628952,       -0.6596679688,        0.4018554688,        0.0507812500,       -2.6397705078,       22.7203369141,       11.3830566406
1494295006.7323729992,       -0.6596679688,        0.4018554688,        0.0288085938,       -3.4179687500,       23.2238769531,        8.6975097656
1494295006.7350690365,       -0.7036132812,        0.3525390625,        0.0288085938,       -3.4179687500,       23.2238769531,        8.6975097656
1494295006.7377591133,       -0.7036132812,        0.3525390625,        0.0288085938,       -4.1198730469,       24.0173339844,        6.0424804688
1494295006.7404520512,       -0.7036132812,        0.3525390625,        0.0288085938,       -4.1198730469,       24.0173339844,        6.0424804688
1494295006.7431569099,       -0.7036132812,        0.3305664062,        0.0527343750,       -4.7149658203,       23.9562988281,        4.1046142578
1494295006.7458539009,       -0.7197265625,        0.3305664062,        0.0527343750,       -4.7149658203,       23.9562988281,        4.1046142578
1494295006.7485480309,       -0.7197265625,        0.3305664062,        0.0527343750,       -5.1574707031,       24.1546630859,        2.6245117188
1494295006.7512390614,       -0.7197265625,        0.3305664062,        0.0527343750,       -5.1574707031,       24.1546630859,        2.6245117188
1494295006.7537910938,       -0.6806640625,        0.3505859375,        0.0512695312,       -5.1574707031,       24.3225097656,        1.0681152344
1494295006.7563459873,       -0.6806640625,        0.3505859375,        0.0512695312,       -6.8054199219,       24.3225097656,        1.0681152344
1494295006.7588949203,       -0.6806640625,        0.3505859375,        0.0512695312,       -6.8054199219,       24.3225097656,       -0.4119873047
1494295006.7614479065,       -0.6806640625,        0.3505859375,        0.0512695312,       -7.8430175781,       24.2156982422,       -0.4119873047
1494295006.7640020847,       -0.6674804688,        0.4018554688,       -0.0034179688,       -7.8430175781,       24.2156982422,       -2.0141601562
1494295006.7665510178,       -0.6674804688,        0.4018554688,       -0.0034179688,       -8.2092285156,       23.8342285156,       -2.0141601562
1494295006.7690949440,       -0.6674804688,        0.4018554688,       -0.0034179688,       -8.2092285156,       23.8342285156,       -5.9204101562
1494295006.7719340324,       -0.6674804688,        0.4018554688,       -0.0034179688,       -7.2021484375,       24.2919921875,       -4.1961669922
1494295006.7744879723,       -0.7001953125,        0.4394531250,       -0.0937500000,       -7.2021484375,       24.2919921875,       -4.1961669922
1494295006.7770369053,       -0.7001953125,        0.4394531250,       -0.0937500000,       -7.4615478516,       24.9176025391,       -6.2866210938
1494295006.7795910835,       -0.7001953125,        0.4394531250,       -0.0937500000,       -7.4615478516,       24.9176025391,       -6.2866210938
1494295006.7823328972,       -0.7001953125,        0.4394531250,       -0.0937500000,       -7.9650878906,       26.0314941406,       -7.8887939453
1494295006.7850248814,       -0.7900390625,        0.4311523438,       -0.1542968750,       -7.9650878906,       26.0314941406,       -7.8887939453
1494295006.7877140045,       -0.7900390625,        0.4311523438,       -0.1542968750,       -8.5296630859,       27.2369384766,       -9.8724365234
1494295006.7904090881,       -0.7900390625,        0.4311523438,       -0.1542968750,       -8.5296630859,       27.2369384766,       -9.8724365234
1494295006.7931430340,       -0.7900390625,        0.4311523438,       -0.0839843750,      -10.1470947266,       27.4810791016,      -11.4135742188
1494295006.7958490849,       -0.8247070312,        0.3803710938,       -0.0839843750,      -10.1470947266,       27.4810791016,      -11.4135742188
1494295006.7985548973,       -0.8247070312,        0.3803710938,       -0.0839843750,      -10.9863281250,       28.8543701172,      -11.2762451172
1494295006.8012681007,       -0.8247070312,        0.3803710938,       -0.0839843750,      -10.9863281250,       28.8543701172,      -11.2762451172
1494295006.8039689064,       -0.8085937500,        0.2641601562,        0.0673828125,       -9.1705322266,       30.7159423828,      -10.7574462891
1494295006.8066670895,       -0.8085937500,        0.2641601562,        0.0673828125,       -9.1705322266,       30.7159423828,      -10.7574462891
1494295006.8093860149,       -0.8085937500,        0.2641601562,        0.0673828125,      -10.0250244141,       31.8756103516,      -10.8795166016
1494295006.8120169640,       -0.8085937500,        0.2641601562,        0.0673828125,      -10.0250244141,       31.8756103516,      -10.8795166016
1494295006.8145730495,       -0.8310546875,        0.2026367188,        0.1396484375,      -12.5122070312,       30.7769775391,      -11.4746093750
1494295006.8171310425,       -0.8310546875,        0.2026367188,        0.1396484375,      -12.5122070312,       30.7769775391,      -11.4746093750
1494295006.8196959496,       -0.8310546875,        0.2026367188,        0.1396484375,      -12.7868652344,       30.6396484375,      -12.0697021484
1494295006.8223929405,       -0.8310546875,        0.2026367188,        0.1396484375,      -12.7868652344,       30.6396484375,      -12.0697021484
1494295006.8253550529,       -0.9018554688,        0.2426757812,        0.1904296875,       -9.5062255859,       31.0668945312,      -13.2293701172
1494295006.8280560970,       -0.9018554688,        0.2426757812,        0.1904296875,       -9.5062255859,       31.0668945312,      -13.2293701172
1494295006.8307590485,       -0.9018554688,        0.2426757812,        0.1904296875,       -5.8898925781,       30.0292968750,      -17.9901123047
1494295006.8334519863,       -0.9018554688,        0.2426757812,        0.1503906250,       -5.8898925781,       30.0292968750,      -17.9901123047
1494295006.8361489773,       -0.9638671875,        0.1982421875,        0.1503906250,       -4.0283203125,       27.7252197266,      -24.2462158203
1494295006.8389439583,       -0.9638671875,        0.1982421875,        0.1503906250,       -4.0283203125,       27.7252197266,      -24.2462158203
1494295006.8419699669,       -0.9638671875,        0.1982421875,        0.1503906250,       -4.6234130859,       26.5502929688,      -31.2500000000
1494295006.8447780609,       -1.0258789062,        0.1450195312,        0.0424804688,       -4.6234130859,       26.5502929688,      -31.2500000000
1494295006.8474800587,       -1.0258789062,        0.1450195312,        0.0424804688,       -6.4697265625,       25.9094238281,      -36.0107421875
1494295006.8501729965,       -1.0258789062,        0.1450195312,        0.0424804688,       -6.4697265625,       25.9094238281,      -36.0107421875
1494295006.8528690338,       -1.0258789062,        0.1450195312,        0.0424804688,      -11.4593505859,       26.5808105469,      -40.1306152344
1494295006.8555679321,       -1.0537109375,        0.2729492188,       -0.1474609375,      -11.4593505859,       26.5808105469,      -40.1306152344
1494295006.8582680225,       -1.0537109375,        0.2729492188,       -0.1474609375,      -16.8304443359,       26.1077880859,      -42.9534912109
1494295006.8609709740,       -1.0537109375,        0.2729492188,       -0.1474609375,      -16.8304443359,       26.1077880859,      -42.9534912109
1494295006.8635289669,       -1.0537109375,        0.2729492188,       -0.1547851562,      -16.0522460938,       24.4750976562,      -49.5452880859
1494295006.8660829067,       -1.0639648438,        0.4121093750,       -0.1547851562,      -16.0522460938,       24.4750976562,      -49.5452880859
1494295006.8686358929,       -1.0639648438,        0.4121093750,       -0.1547851562,      -10.6964111328,       22.1862792969,      -60.5621337891
1494295006.8712000847,       -1.0639648438,        0.4121093750,       -0.1547851562,      -10.6964111328,       22.1862792969,      -60.5621337891
1494295006.8737580776,       -1.0639648438,        0.4121093750,       -0.1684570312,       -5.0354003906,       20.3857421875,      -74.4171142578
1494295006.8763060570,       -1.1342773438,        0.3437500000,       -0.1684570312,       -5.0354003906,       20.3857421875,      -74.4171142578
1494295006.8788509369,       -1.1342773438,        0.3437500000,       -0.1684570312,        2.7770996094,       16.9525146484,      -89.2333984375
1494295006.8814079762,       -1.1342773438,        0.3437500000,       -0.1684570312,        1.3885498047,       16.9525146484,      -89.2333984375
1494295006.8839581013,       -1.1342773438,        0.2187500000,       -0.1601562500,        1.3885498047,       13.0462646484,     -105.2551269531
1494295006.8865149021,       -1.0922851562,        0.2475585938,       -0.1601562500,       10.1776123047,       12.8479003906,     -105.2551269531
1494295006.8890719414,       -1.0922851562,        0.2475585938,       -0.1601562500,       10.1776123047,       12.8479003906,     -120.5596923828
1494295006.8917429447,       -1.0922851562,        0.2475585938,       -0.1601562500,       20.0347900391,        9.7351074219,     -120.5596923828
1494295006.8942980766,       -1.0922851562,        0.3652343750,       -0.1621093750,       20.0347900391,        9.7351074219,     -120.5596923828
1494295006.8968551159,       -1.1074218750,        0.3652343750,       -0.1621093750,       28.2287597656,        7.0800781250,     -139.1906738281
1494295006.8994090557,       -1.1074218750,        0.3652343750,       -0.1621093750,       28.2287597656,        7.0800781250,     -139.1906738281
1494295006.9021320343,       -1.1074218750,        0.3652343750,       -0.1621093750,       35.3546142578,        6.7749023438,     -158.7677001953
1494295006.9048299789,       -1.3359375000,        0.5449218750,       -0.3012695312,       35.3546142578,        6.7749023438,     -158.7677001953
1494295006.9075241089,       -1.3359375000,        0.5449218750,       -0.3012695312,       44.0368652344,       10.0097656250,     -177.8259277344
1494295006.9102230072,       -1.3359375000,        0.5449218750,       -0.3012695312,       44.0368652344,       10.0097656250,     -177.8259277344
1494295006.9128620625,       -1.3359375000,        0.5449218750,       -0.3012695312,       56.6558837891,       11.9781494141,     -196.5637207031
1494295006.9154229164,       -1.5688476562,        0.5834960938,       -0.4858398438,       56.6558837891,       11.9781494141,     -196.5637207031
1494295006.9180901051,       -1.5688476562,        0.5834960938,       -0.4858398438,       79.8645019531,       13.9923095703,     -216.0797119141
1494295006.9206891060,       -1.5688476562,        0.5834960938,       -0.4858398438,       79.8645019531,       13.9923095703,     -216.0797119141
1494295006.9233849049,       -1.5688476562,        0.5834960938,       -0.4858398438,      103.0731201172,       15.2740478516,     -234.3902587891
1494295006.9260840416,       -1.8295898438,        0.2705078125,       -0.7207031250,      103.0731201172,       15.2740478516,     -234.3902587891
1494295006.9287860394,       -1.8295898438,        0.2705078125,       -0.7207031250,      128.2958984375,       22.9034423828,     -251.6784667969
1494295006.9314460754,       -1.8295898438,        0.2705078125,       -0.7207031250,      128.2958984375,       22.9034423828,     -251.6784667969
1494295006.9340069294,       -1.8295898438,        0.2705078125,       -1.0957031250,      162.6892089844,       35.5072021484,     -265.7165527344
1494295006.9365661144,       -2.2910156250,       -0.4399414062,       -1.0942382812,      162.6892089844,       35.5072021484,     -265.7165527344
1494295006.9391260147,       -2.2910156250,       -0.4399414062,       -1.0942382812,      209.4573974609,       48.8281250000,     -283.4014892578
1494295006.9417920113,       -2.2910156250,       -0.4399414062,       -1.0942382812,      209.4573974609,       48.8281250000,     -283.4014892578
1494295006.9444909096,       -2.2910156250,       -1.4399414062,       -1.3549804688,      282.6080322266,       55.5572509766,     -305.2520751953
1494295006.9471850395,       -3.0424804688,       -1.3935546875,       -1.3549804688,      282.6080322266,       55.5572509766,     -305.2520751953
1494295006.9498839378,       -3.0424804688,       -1.3935546875,       -1.3549804688,      370.4376220703,       62.1337890625,     -324.0509033203
1494295006.9524989128,       -3.0424804688,       -1.3935546875,       -1.3549804688,      370.4376220703,       62.1337890625,     -324.0509033203
1494295006.9550509453,       -4.2924804688,       -0.3310546875,       -1.1977539062,      448.5626220703,       88.8519287109,     -316.8334960938
1494295006.9576840401,       -4.3271484375,       -0.3310546875,       -1.1977539062,      446.3958740234,       88.8519287109,     -316.8334960938
1494295006.9602460861,       -4.3271484375,       -0.3310546875,       -1.1977539062,      449.9206542969,       50.2471923828,     -250.5798339844
1494295006.9633750916,       -4.3271484375,       -0.3310546875,       -1.1977539062,      449.9206542969,       50.2471923828,     -250.5798339844
1494295006.9660809040,       -4.2929687500,        2.5922851562,        0.7919921875,      369.5983886719,       -5.5694580078,     -220.3063964844
1494295006.9687790871,       -4.2929687500,        2.5922851562,        0.7919921875,      369.5983886719,       -5.5694580078,     -220.3063964844
1494295006.9714798927,       -4.2929687500,        2.5922851562,        0.7919921875,      211.9598388672,      -14.2669677734,     -269.0277099609
1494295006.9741799831,       -4.2929687500,        2.5922851562,        1.1669921875,      211.9598388672,      -14.2669677734,     -269.0277099609
1494295006.9768729210,        0.2158203125,        4.2211914062,        1.2041015625,      114.3035888672,       21.3165283203,     -267.2729492188
1494295006.9795689583,        0.2158203125,        4.2211914062,        1.2041015625,      115.6005859375,       21.3165283203,     -267.2729492188
1494295006.9822750092,        0.2158203125,        4.2211914062,        1.2041015625,       92.1630859375,       29.2663574219,     -156.2347412109
1494295006.9849770069,        0.2158203125,        0.7866210938,        1.2880859375,       93.6279296875,       29.2663574219,     -156.2347412109
1494295006.9876770973,        1.8598632812,        0.7866210938,        1.2880859375,       46.7529296875,       34.2559814453,       12.9394531250
1494295006.9903669357,        1.8598632812,        0.7866210938,        1.2880859375,       46.7681884766,       34.2559814453,       12.9394531250
1494295006.9930610657,        1.8598632812,        0.7866210938,        1.2880859375,       46.7681884766,       33.8592529297,      149.3377685547
1494295006.9956209660,       -1.2397460938,        1.2421875000,        0.7695312500,       25.3143310547,       33.8592529297,      149.3377685547
1494295006.9981689453,       -1.2397460938,        1.2421875000,        0.7695312500,       25.3143310547,       33.8592529297,      203.4454345703
1494295007.0007050037,       -1.2397460938,        1.2421875000,        0.7695312500,      -51.0559082031,       61.4776611328,      203.4454345703
1494295007.0032620430,       -1.2397460938,        1.2421875000,        0.7695312500,      -51.0559082031,       61.4776611328,      199.5391845703
1494295007.0058190823,       -0.5034179688,        1.4145507812,        0.6391601562,      -26.3061523438,       58.1970214844,      201.7364501953
1494295007.0083770752,       -0.5034179688,        1.4145507812,        0.6391601562,      -26.3061523438,       58.1970214844,      201.7364501953
1494295007.0110859871,       -0.5034179688,        1.4145507812,        0.6391601562,        7.9193115234,       29.4647216797,      183.9141845703
1494295007.0136430264,       -0.5034179688,        1.4145507812,        0.6391601562,        7.9193115234,       29.4647216797,      183.9141845703
1494295007.0161941051,       -0.2998046875,       -0.8657226562,        0.5268554688,       -4.5013427734,        4.5471191406,      188.0340576172
1494295007.0187439919,       -0.2998046875,       -0.8657226562,        0.5268554688,       -4.5013427734,        4.5471191406,      188.0340576172
1494295007.0214610100,       -0.2998046875,       -0.8657226562,        0.5268554688,        0.9613037109,      -14.1296386719,      163.7725830078
1494295007.0241639614,       -0.2998046875,       -0.8657226562,        0.5268554688,        0.9613037109,      -14.1296386719,      163.7725830078
1494295007.0268580914,       -0.5820312500,       -1.4384765625,       -0.0957031250,       27.0538330078,      -24.6124267578,      110.0769042969
1494295007.0295550823,       -0.5820312500,       -1.4384765625,       -0.0957031250,       27.0538330078,      -24.6124267578,      110.0769042969
1494295007.0321860313,       -0.5820312500,       -1.4384765625,       -0.0957031250,       58.5479736328,      -29.7546386719,       60.5468750000
1494295007.0347421169,       -0.5820312500,       -1.4384765625,       -0.0957031250,       58.5479736328,      -29.7546386719,       60.5468750000
1494295007.0372970104,        0.0205078125,       -0.9741210938,       -0.1049804688,       90.1031494141,      -27.8930664062,       15.3045654297
1494295007.0398559570,        0.0205078125,       -0.9741210938,       -0.1049804688,       90.1031494141,      -27.8930664062,       15.3045654297
1494295007.0425639153,        0.0205078125,       -0.9741210938,       -0.1049804688,      113.9221191406,      -24.5971679688,      -26.9317626953
1494295007.0452580452,        0.0205078125,       -0.8491210938,        0.2617187500,      113.9221191406,      -24.5971679688,      -26.9317626953
1494295007.0479609966,        0.2285156250,       -0.8745117188,        0.2617187500,      115.0817871094,      -20.1416015625,      -69.4732666016
1494295007.0506699085,        0.2285156250,       -0.8745117188,        0.2617187500,      115.0817871094,      -20.1416015625,      -69.4732666016
1494295007.0533680916,        0.2285156250,       -0.8745117188,        0.2617187500,       98.8922119141,      -15.6402587891,     -105.6365966797
1494295007.0560700893,       -0.1079101562,       -0.8266601562,        0.2031250000,       98.8922119141,      -15.6402587891,     -105.6365966797
1494295007.0587620735,       -0.1079101562,       -0.8266601562,        0.2031250000,       72.1588134766,      -10.0250244141,     -124.9237060547
1494295007.0614678860,       -0.1079101562,       -0.8266601562,        0.2031250000,       72.1588134766,      -10.0250244141,     -124.9237060547
1494295007.0642719269,       -0.1079101562,       -0.8266601562,        0.2031250000,       43.3807373047,       -9.2773437500,     -127.5634765625
1494295007.0669739246,       -0.1708984375,       -0.3950195312,        0.0795898438,       43.3807373047,       -9.2773437500,     -127.5634765625
1494295007.0696721077,       -0.1708984375,       -0.3950195312,        0.0795898438,       15.2435302734,      -11.9018554688,     -122.8179931641
1494295007.0724730492,       -0.1708984375,       -0.3950195312,        0.0795898438,       15.2435302734,      -11.9018554688,     -122.8179931641
1494295007.0751380920,       -0.1708984375,       -0.3950195312,        0.0795898438,       -5.6152343750,      -13.1683349609,     -114.7308349609
1494295007.0779490471,       -0.1293945312,        0.0620117188,        0.0063476562,       -5.6152343750,      -13.1683349609,     -114.7308349609
1494295007.0810489655,       -0.1293945312,        0.0620117188,        0.0063476562,      -17.2271728516,      -14.3280029297,     -104.0191650391
1494295007.0836110115,       -0.1293945312,        0.0620117188,        0.0063476562,      -17.2271728516,      -14.3280029297,     -104.0191650391
