time_stamp before, Acceleration x, Acceleration y, Acceleration z, Gyro x, Gyro y, Gyro z
1494294634.0291090012,       -1.8774414062,        0.0297851562,        0.5595703125,      151.1993408203,      -25.2532958984,      236.8164062500
1494294634.0347230434,       -1.8774414062,        0.0297851562,        0.5595703125,      151.1993408203,      -25.2532958984,      236.8164062500
1494294634.0383279324,       -1.8774414062,        0.0297851562,        0.5595703125,      100.0976562500,      -36.5600585938,      226.0742187500
1494294634.0410480499,       -1.7241210938,       -0.3457031250,        1.1127929688,      100.0976562500,      -36.5600585938,      226.0742187500
1494294634.0437378883,       -1.7241210938,       -0.3457031250,        1.1127929688,       53.7567138672,      -37.3229980469,      217.4224853516
1494294634.0464339256,       -1.7241210938,       -0.3457031250,        1.1127929688,       53.7567138672,      -37.3229980469,      217.4224853516
1494294634.0491230488,       -1.7241210938,       -0.3457031250,        1.1235351562,       25.5584716797,      -23.9562988281,      207.8094482422
1494294634.0518260002,       -1.4975585938,       -0.3886718750,        1.1235351562,       25.5584716797,      -23.9562988281,      207.8094482422
1494294634.0545139313,       -1.4975585938,       -0.3886718750,        1.1235351562,        7.4462890625,      -11.2304687500,      193.1304931641
1494294634.0571959019,       -1.4975585938,       -0.3886718750,        1.1235351562,        7.4462890625,      -11.2304687500,      193.1304931641
1494294634.0598809719,       -1.2475585938,       -0.3486328125,        0.7299804688,       -7.2631835938,       -6.6223144531,      170.5169677734
1494294634.0624849796,       -1.1904296875,       -0.3486328125,        0.7299804688,       -7.2631835938,       -6.6223144531,      170.5169677734
1494294634.0650310516,       -1.1904296875,       -0.3486328125,        0.7299804688,       -7.4920654297,        0.2441406250,      148.4985351562
1494294634.0675759315,       -1.1904296875,       -0.3486328125,        0.7299804688,       -7.4920654297,        0.2441406250,      148.4985351562
1494294634.0701160431,       -1.3447265625,       -0.3505859375,        0.1230468750,        7.1258544922,        6.7291259766,      136.2304687500
1494294634.0728449821,       -1.3447265625,       -0.3505859375,        0.1230468750,        7.1258544922,        6.7291259766,      136.2304687500
1494294634.0753860474,       -1.3447265625,       -0.3505859375,        0.1230468750,       -1.8463134766,      -12.3748779297,      142.5323486328
1494294634.0779359341,       -1.3447265625,       -0.3505859375,        0.1230468750,       -1.8463134766,      -12.3748779297,      142.5323486328
1494294634.0804820061,       -0.7343750000,        0.2905273438,        0.4604492188,      -47.8668212891,      -42.5415039062,      134.8876953125
1494294634.0833311081,       -0.7343750000,        0.2905273438,        0.4604492188,      -47.8668212891,      -42.5415039062,      134.8876953125
1494294634.0860159397,       -0.7343750000,        0.2905273438,        0.4604492188,      -86.8377685547,      -41.0308837891,       91.7663574219
1494294634.0887060165,       -0.7343750000,        0.2905273438,        0.4604492188,      -86.8377685547,      -41.0308837891,       91.7663574219
1494294634.0914030075,       -0.7973632812,       -0.1499023438,        0.2099609375,      -94.5587158203,      -25.3906250000,       30.5786132812
1494294634.0940859318,       -0.7973632812,       -0.1499023438,        0.2099609375,      -94.5587158203,      -25.3906250000,       30.5786132812
1494294634.0967679024,       -0.7973632812,       -0.1499023438,        0.2099609375,      -84.7320556641,      -27.8472900391,      -15.8843994141
1494294634.0994501114,       -0.7973632812,       -0.1499023438,        0.0786132812,      -84.7320556641,      -27.8472900391,      -15.8843994141
1494294634.1021339893,       -0.6997070312,       -0.6718750000,        0.0786132812,      -69.1070556641,      -34.1796875000,      -42.4041748047
1494294634.1047980785,       -0.6997070312,       -0.6718750000,        0.0786132812,      -69.9768066406,      -34.1796875000,      -42.4041748047
1494294634.1076200008,       -0.6997070312,       -0.6718750000,        0.0786132812,      -58.2580566406,      -32.5469970703,      -62.4694824219
1494294634.1102800369,       -0.3247070312,       -0.6499023438,        0.0390625000,      -55.8624267578,      -32.5469970703,      -62.4694824219
1494294634.1130070686,       -0.3232421875,       -0.6499023438,        0.0390625000,      -51.9561767578,      -30.8074951172,      -79.7576904297
1494294634.1156990528,       -0.3232421875,       -0.6499023438,        0.0390625000,      -53.8330078125,      -30.8074951172,      -79.7576904297
1494294634.1184020042,       -0.3232421875,       -0.6499023438,        0.0390625000,      -61.6455078125,      -30.7464599609,      -93.5821533203
1494294634.1212921143,       -0.1108398438,       -0.4301757812,       -0.0468750000,      -58.7310791016,      -30.7464599609,      -93.5821533203
1494294634.1238560677,       -0.1108398438,       -0.4301757812,       -0.0468750000,      -58.7310791016,      -28.7933349609,     -105.8197021484
1494294634.1264181137,       -0.1108398438,       -0.4301757812,       -0.0468750000,      -59.5703125000,      -28.7933349609,     -105.8197021484
1494294634.1289820671,       -0.1108398438,       -0.4301757812,       -0.0468750000,      -59.5703125000,      -24.8870849609,     -119.7967529297
1494294634.1316170692,       -0.1210937500,       -0.2543945312,       -0.0600585938,      -53.9550781250,      -25.7568359375,     -119.7967529297
1494294634.1342999935,       -0.1210937500,       -0.2543945312,       -0.0600585938,      -53.9550781250,      -21.8505859375,     -137.8631591797
1494294634.1370329857,       -0.1210937500,       -0.2543945312,       -0.0600585938,      -45.6848144531,      -21.0876464844,     -137.8631591797
1494294634.1397318840,       -0.1210937500,       -0.2543945312,       -0.0805664062,      -45.6848144531,      -21.0876464844,     -159.3170166016
1494294634.1424269676,       -0.2368164062,       -0.1479492188,       -0.0805664062,      -39.3218994141,      -16.2506103516,     -159.3170166016
1494294634.1451089382,       -0.2368164062,       -0.1479492188,       -0.0805664062,      -39.3218994141,      -16.2506103516,     -180.9692382812
1494294634.1477959156,       -0.2368164062,       -0.1479492188,       -0.0805664062,      -33.4167480469,      -12.2833251953,     -180.9692382812
1494294634.1504800320,       -0.2368164062,       -0.1674804688,       -0.0893554688,      -33.4167480469,      -12.2833251953,     -200.0122070312
1494294634.1531810760,       -0.2890625000,       -0.1674804688,       -0.0893554688,      -29.5257568359,       -9.4604492188,     -200.0122070312
1494294634.1558830738,       -0.2890625000,       -0.1674804688,       -0.0893554688,      -29.5257568359,       -9.4604492188,     -214.7827148438
1494294634.1585760117,       -0.2890625000,       -0.1674804688,       -0.0893554688,      -28.8543701172,       -6.5002441406,     -214.7827148438
1494294634.1612720490,       -0.3276367188,       -0.1870117188,       -0.0668945312,      -28.8543701172,       -6.5002441406,     -227.5390625000
1494294634.1639699936,       -0.3276367188,       -0.1870117188,       -0.0668945312,      -33.0352783203,       -3.8452148438,     -227.5390625000
1494294634.1666638851,       -0.3276367188,       -0.1870117188,       -0.0668945312,      -33.0352783203,       -3.8452148438,     -239.1052246094
1494294634.1693620682,       -0.3276367188,       -0.1870117188,       -0.0668945312,      -42.6635742188,       -2.2735595703,     -239.1052246094
1494294634.1720049381,       -0.3759765625,       -0.1772460938,       -0.0517578125,      -42.6635742188,       -2.2735595703,     -239.1052246094
1494294634.1745560169,       -0.3759765625,       -0.1772460938,       -0.0517578125,      -55.7708740234,       -0.7019042969,     -248.4741210938
1494294634.1771180630,       -0.3759765625,       -0.1772460938,       -0.0517578125,      -55.7708740234,       -0.7019042969,     -248.4741210938
1494294634.1799080372,       -0.3759765625,       -0.1772460938,       -0.0371093750,      -65.5059814453,        2.2888183594,     -256.1798095703
1494294634.1832709312,       -0.4877929688,       -0.1660156250,       -0.0371093750,      -65.5059814453,        2.2888183594,     -264.3127441406
1494294634.1859710217,       -0.4877929688,       -0.1660156250,       -0.0371093750,      -72.4029541016,        6.8664550781,     -264.3127441406
1494294634.1886649132,       -0.4877929688,       -0.1660156250,       -0.0371093750,      -72.4029541016,        6.8664550781,     -271.9879150391
1494294634.1913731098,       -0.6040039062,       -0.1621093750,       -0.0659179688,      -80.5206298828,       11.3830566406,     -271.9879150391
1494294634.1940720081,       -0.6040039062,       -0.1621093750,       -0.0659179688,      -80.5206298828,       11.3830566406,     -280.1971435547
1494294634.1967680454,       -0.6040039062,       -0.1621093750,       -0.0659179688,      -88.8366699219,       15.1062011719,     -280.1971435547
1494294634.1994578838,       -0.6040039062,       -0.1621093750,       -0.0659179688,      -88.8366699219,       15.1062011719,     -286.3616943359
1494294634.2021629810,       -0.7109375000,       -0.1508789062,       -0.0839843750,      -94.9707031250,       20.3552246094,     -286.3616943359
1494294634.2048571110,       -0.7109375000,       -0.1508789062,       -0.0839843750,      -94.9707031250,       20.3552246094,     -290.3900146484
1494294634.2075560093,       -0.7109375000,       -0.1508789062,       -0.0839843750,      -99.7314453125,       25.8331298828,     -290.3900146484
1494294634.2102499008,       -0.7109375000,       -0.1508789062,       -0.0839843750,      -99.7314453125,       25.8331298828,     -294.2962646484
1494294634.2128429413,       -0.7441406250,       -0.1513671875,       -0.1176757812,     -102.6153564453,       30.4565429688,     -295.4559326172
1494294634.2153980732,       -0.7441406250,       -0.1513671875,       -0.1176757812,     -102.6153564453,       30.4565429688,     -295.4559326172
1494294634.2179529667,       -0.7441406250,       -0.1513671875,       -0.1176757812,     -103.1799316406,       35.3698730469,     -298.1567382812
1494294634.2205080986,       -0.7441406250,       -0.1513671875,       -0.1147460938,     -103.1799316406,       35.3698730469,     -298.1567382812
1494294634.2230799198,       -0.8398437500,       -0.0288085938,       -0.1147460938,     -100.7995605469,       39.7338867188,     -300.2929687500
1494294634.2256429195,       -0.8398437500,       -0.0288085938,       -0.1147460938,     -100.7995605469,       39.7338867188,     -300.2929687500
1494294634.2281980515,       -0.8398437500,       -0.0288085938,       -0.1147460938,      -95.8709716797,       43.8842773438,     -302.9479980469
1494294634.2308549881,       -0.8398437500,        0.2211914062,       -0.1435546875,      -95.8709716797,       43.8842773438,     -302.9479980469
1494294634.2334299088,       -0.9501953125,        0.1357421875,       -0.1435546875,      -90.6066894531,       47.4243164062,     -307.0526123047
1494294634.2359859943,       -0.9501953125,        0.1357421875,       -0.1435546875,      -90.6066894531,       47.4243164062,     -307.0526123047
1494294634.2385449409,       -0.9501953125,        0.1357421875,       -0.1435546875,      -87.9516601562,       50.3692626953,     -311.8133544922
1494294634.2412760258,       -0.9501953125,        0.1860351562,       -0.1533203125,      -87.9516601562,       50.3692626953,     -311.8133544922
1494294634.2439780235,       -0.9848632812,        0.1860351562,       -0.1533203125,      -88.0432128906,       52.7038574219,     -316.8029785156
1494294634.2466800213,       -0.9848632812,        0.1860351562,       -0.1533203125,      -88.0432128906,       52.7038574219,     -316.8029785156
1494294634.2493779659,       -0.9848632812,        0.1860351562,       -0.1533203125,      -90.7287597656,       55.2062988281,     -320.7855224609
1494294634.2520830631,       -1.0625000000,        0.1499023438,       -0.1469726562,      -90.7287597656,       55.2062988281,     -320.7855224609
1494294634.2548959255,       -1.0625000000,        0.1499023438,       -0.1469726562,      -95.4589843750,       58.0596923828,     -324.9206542969
1494294634.2575950623,       -1.0625000000,        0.1499023438,       -0.1469726562,      -95.4589843750,       58.0596923828,     -324.9206542969
1494294634.2602970600,       -1.0625000000,        0.1499023438,       -0.1469726562,      -99.9603271484,       61.0656738281,     -328.6590576172
1494294634.2630050182,       -1.1562500000,        0.1010742188,       -0.1240234375,      -99.9603271484,       61.0656738281,     -328.6590576172
1494294634.2657070160,       -1.1562500000,        0.1010742188,       -0.1240234375,     -103.9428710938,       63.8580322266,     -332.0159912109
1494294634.2684121132,       -1.1562500000,        0.1010742188,       -0.1240234375,     -103.9428710938,       63.8580322266,     -332.0159912109
1494294634.2711439133,       -1.1562500000,        0.1010742188,       -0.1015625000,     -109.7106933594,       66.1621093750,     -336.0595703125
1494294634.2737090588,       -1.2031250000,        0.0864257812,       -0.1015625000,     -109.7106933594,       66.1621093750,     -336.0595703125
1494294634.2762660980,       -1.2031250000,        0.0864257812,       -0.1015625000,     -109.7106933594,       67.3980712891,     -340.9729003906
1494294634.2788279057,       -1.2031250000,        0.0864257812,       -0.1015625000,     -113.0218505859,       67.3980712891,     -340.9729003906
1494294634.2814838886,       -1.2031250000,        0.1899414062,       -0.0458984375,     -113.0218505859,       67.3980712891,     -345.0469970703
1494294634.2840468884,       -1.2871093750,        0.1899414062,       -0.0458984375,     -110.0158691406,       69.2291259766,     -345.0469970703
1494294634.2866029739,       -1.2871093750,        0.1899414062,       -0.0458984375,     -110.0158691406,       69.2291259766,     -350.3417968750
1494294634.2891669273,       -1.2871093750,        0.1899414062,       -0.0458984375,     -101.5777587891,       69.8699951172,     -350.3417968750
1494294634.2918329239,       -1.2871093750,        0.3144531250,        0.0200195312,     -101.5777587891,       69.8699951172,     -356.3842773438
1494294634.2945280075,       -1.3569335938,        0.3144531250,        0.0200195312,      -90.9271240234,       69.9920654297,     -356.3842773438
1494294634.2972540855,       -1.3569335938,        0.3144531250,        0.0200195312,      -90.9271240234,       69.9920654297,     -360.2905273438
1494294634.2999649048,       -1.3569335938,        0.3144531250,        0.0200195312,      -78.2165527344,       69.0002441406,     -362.5793457031
1494294634.3026769161,       -1.4648437500,        0.3535156250,        0.0810546875,      -78.2165527344,       69.0002441406,     -370.3918457031
1494294634.3053739071,       -1.4648437500,        0.3535156250,        0.0810546875,      -65.8569335938,       67.3370361328,     -368.3013916016
1494294634.3080749512,       -1.4648437500,        0.3535156250,        0.0810546875,      -65.8569335938,       67.3370361328,     -372.2076416016
1494294634.3107891083,       -1.4648437500,        0.3535156250,        0.0810546875,      -53.2684326172,       65.6433105469,     -372.7416992188
1494294634.3133459091,       -1.6303710938,        0.3564453125,        0.1201171875,      -53.2684326172,       65.6433105469,     -372.7416992188
1494294634.3159070015,       -1.6303710938,        0.3564453125,        0.1201171875,      -42.2668457031,       63.6444091797,     -374.3591308594
1494294634.3184731007,       -1.6303710938,        0.3564453125,        0.1201171875,      -42.2668457031,       63.6444091797,     -374.3591308594
1494294634.3210530281,       -1.6303710938,        0.3564453125,        0.1201171875,      -34.2559814453,       62.0422363281,     -373.0163574219
1494294634.3237628937,       -1.8071289062,        0.4428710938,        0.1835937500,      -34.2559814453,       62.0422363281,     -373.0163574219
1494294634.3264629841,       -1.8071289062,        0.4428710938,        0.1835937500,      -28.0914306641,       60.5010986328,     -369.7357177734
1494294634.3292770386,       -1.8071289062,        0.4428710938,        0.1835937500,      -28.0914306641,       60.5010986328,     -369.7357177734
1494294634.3319349289,       -1.8071289062,        0.6157226562,        0.2236328125,      -25.6805419922,       59.2498779297,     -363.6016845703
1494294634.3344879150,       -1.9291992188,        0.6157226562,        0.2236328125,      -25.6805419922,       59.2498779297,     -363.6016845703
1494294634.3370449543,       -1.9291992188,        0.6157226562,        0.2236328125,      -29.8004150391,       58.9904785156,     -354.8278808594
1494294634.3396089077,       -1.9291992188,        0.6157226562,        0.2236328125,      -29.8004150391,       58.9904785156,     -354.8278808594
1494294634.3422710896,       -1.9291992188,        0.7426757812,        0.2783203125,      -41.3513183594,       57.8765869141,     -342.7276611328
1494294634.3448390961,       -1.9501953125,        0.7426757812,        0.2783203125,      -41.3513183594,       57.8765869141,     -342.7276611328
1494294634.3473999500,       -1.9501953125,        0.7426757812,        0.2783203125,      -59.0209960938,       57.4035644531,     -325.4547119141
1494294634.3499560356,       -1.9501953125,        0.7426757812,        0.2783203125,      -59.0209960938,       57.4035644531,     -325.4547119141
1494294634.3527460098,       -1.9057617188,        0.8608398438,        0.3481445312,      -80.5969238281,       55.1300048828,     -303.5278320312
1494294634.3554499149,       -1.9057617188,        0.8608398438,        0.3481445312,      -80.5969238281,       55.1300048828,     -303.5278320312
1494294634.3581480980,       -1.9057617188,        0.8608398438,        0.3481445312,     -103.2409667969,       51.8341064453,     -278.2592773438
1494294634.3609049320,       -1.9057617188,        0.8608398438,        0.3481445312,     -103.2409667969,       51.8341064453,     -278.2592773438
1494294634.3634569645,       -1.6645507812,        1.2182617188,        0.6083984375,     -122.7722167969,       44.8913574219,     -252.0294189453
1494294634.3660190105,       -1.6645507812,        1.2182617188,        0.6083984375,     -122.6806640625,       44.8913574219,     -252.0294189453
1494294634.3685760498,       -1.6645507812,        1.2182617188,        0.6083984375,     -122.6806640625,       33.1726074219,     -228.6376953125
1494294634.3712010384,       -1.6645507812,        1.2182617188,        0.6083984375,     -131.3323974609,       34.9273681641,     -228.6376953125
1494294634.3739070892,       -1.1962890625,        2.0463867188,        0.8408203125,     -131.3323974609,       27.1148681641,     -206.4056396484
1494294634.3766050339,       -1.1962890625,        2.0463867188,        0.8408203125,     -130.0048828125,       26.2603759766,     -206.4056396484
1494294634.3793079853,       -1.1962890625,        2.0463867188,        0.8408203125,     -130.0048828125,       14.5416259766,     -181.3812255859
1494294634.3820219040,       -1.1962890625,        2.0463867188,        0.6503906250,     -120.0561523438,       12.9547119141,     -181.3812255859
1494294634.3847839832,       -0.7343750000,        2.9697265625,        0.6503906250,     -120.0561523438,       -2.6702880859,     -150.7415771484
1494294634.3873438835,       -0.7343750000,        2.9697265625,        0.6503906250,      -94.0093994141,       -0.0305175781,     -150.7415771484
1494294634.3899009228,       -0.7343750000,        2.9697265625,        0.6503906250,      -94.0093994141,       -0.0305175781,     -118.4387207031
1494294634.3926999569,       -0.6093750000,        3.2543945312,        0.4667968750,      -54.7943115234,       -8.6364746094,     -118.4387207031
1494294634.3953530788,       -0.5908203125,        3.2543945312,        0.4667968750,      -54.7943115234,       -8.6364746094,      -74.0203857422
1494294634.3981249332,       -0.5908203125,        3.2543945312,        0.4667968750,      -22.6440429688,      -17.5476074219,      -74.0203857422
1494294634.4010610580,       -0.5908203125,        3.2543945312,        0.4667968750,      -22.6440429688,      -21.4538574219,      -24.0631103516
1494294634.4037749767,       -0.6699218750,        2.6835937500,        0.6850585938,       -5.2947998047,      -20.9808349609,      -24.0631103516
1494294634.4064719677,       -0.6699218750,        2.6835937500,        0.6850585938,       -5.2947998047,      -20.9808349609,       22.6440429688
1494294634.4091639519,       -0.6699218750,        2.6835937500,        0.6850585938,      -10.0555419922,      -20.2789306641,       22.6440429688
1494294634.4118189812,       -0.6699218750,        2.6835937500,        0.6850585938,      -10.0555419922,      -20.2789306641,       70.0836181641
1494294634.4143750668,       -0.7656250000,        2.3906250000,        0.8940429688,      -25.4974365234,      -20.2178955078,       70.0836181641
1494294634.4169349670,       -0.7656250000,        2.3906250000,        0.8940429688,      -25.4974365234,      -20.2178955078,       70.0836181641
1494294634.4194910526,       -0.7656250000,        2.3906250000,        0.8940429688,      -42.7398681641,      -19.6685791016,      113.2049560547
1494294634.4221780300,       -0.7656250000,        2.3906250000,        0.9287109375,      -42.7398681641,      -19.6685791016,      113.2049560547
1494294634.4248769283,       -0.8154296875,        2.1582031250,        0.9287109375,      -65.4144287109,      -24.6429443359,      141.5863037109
1494294634.4275751114,       -0.8154296875,        2.1582031250,        0.9287109375,      -65.4144287109,      -24.6429443359,      141.5863037109
1494294634.4302749634,       -0.8154296875,        2.1582031250,        0.9287109375,      -79.3457031250,      -31.5551757812,      167.8161621094
1494294634.4328660965,       -0.8154296875,        1.7724609375,        0.7939453125,      -79.3457031250,      -31.5551757812,      167.8161621094
1494294634.4354228973,       -0.9663085938,        1.7724609375,        0.7939453125,      -72.5250244141,      -45.4406738281,      188.3544921875
1494294634.4379830360,       -0.9663085938,        1.7724609375,        0.7939453125,      -72.5250244141,      -45.4406738281,      188.3544921875
1494294634.4405350685,       -0.9663085938,        1.7724609375,        0.7939453125,      -53.8482666016,      -55.1147460938,      196.4569091797
1494294634.4431090355,       -1.2163085938,        0.8281250000,        0.5639648438,      -53.8482666016,      -55.1147460938,      196.4569091797
1494294634.4456679821,       -1.2011718750,        0.8281250000,        0.5639648438,      -77.3010253906,      -35.3851318359,      188.3239746094
1494294634.4482290745,       -1.2011718750,        0.8281250000,        0.5639648438,      -77.3010253906,      -35.3851318359,      188.3239746094
1494294634.4508678913,       -1.2011718750,        0.8281250000,        0.5639648438,     -128.5095214844,      -22.4456787109,      146.9573974609
1494294634.4534399509,       -1.4643554688,       -2.1005859375,       -1.1479492188,     -128.5095214844,      -22.4456787109,      146.9573974609
1494294634.4559969902,       -1.4643554688,       -2.1005859375,       -1.1479492188,     -120.6970214844,       -5.8746337891,       99.5941162109
1494294634.4585549831,       -1.4643554688,       -2.1005859375,       -1.1479492188,     -120.8343505859,       -5.8746337891,       99.5941162109
1494294634.4612429142,       -1.4643554688,       -2.1005859375,       -1.1479492188,     -120.8343505859,       -1.1749267578,       79.7576904297
1494294634.4638020992,       -2.0312500000,       -3.6171875000,       -1.1962890625,       21.8963623047,       -1.1749267578,       79.7576904297
1494294634.4663560390,       -2.0312500000,       -3.6171875000,       -1.1962890625,       21.8963623047,       -1.1749267578,      115.6616210938
1494294634.4689049721,       -2.0312500000,       -3.6171875000,       -1.1962890625,       26.3977050781,       -0.8392333984,      115.6616210938
1494294634.4715559483,       -2.0312500000,       -3.6171875000,       -1.1962890625,       26.3977050781,       -0.8392333984,      214.9047851562
1494294634.4743630886,       -1.4829101562,       -0.2241210938,        0.0170898438,      -85.7849121094,      -28.7322998047,      214.9047851562
1494294634.4770689011,       -1.4829101562,       -0.2241210938,        0.0170898438,      -85.7849121094,      -28.7322998047,      346.5576171875
1494294634.4797658920,       -1.4829101562,       -0.2241210938,        0.0170898438,     -173.5992431641,      -56.2133789062,      346.5576171875
1494294634.4824759960,       -1.4829101562,       -0.2241210938,        0.0170898438,     -173.5992431641,      -56.2133789062,      400.5584716797
1494294634.4851739407,       -1.3696289062,        3.4438476562,        1.1230468750,     -284.4390869141,      -54.4281005859,      400.5584716797
1494294634.4878680706,       -1.3696289062,        3.4438476562,        1.1230468750,     -284.4390869141,      -54.4281005859,      330.2917480469
1494294634.4905579090,       -1.3696289062,        3.4438476562,        1.1230468750,     -329.0710449219,      -38.8183593750,      330.2917480469
1494294634.4931390285,       -1.3696289062,        2.5688476562,       -0.3173828125,     -329.0710449219,      -38.8183593750,      330.2917480469
1494294634.4956979752,       -1.6279296875,        2.5366210938,       -0.3173828125,     -146.2097167969,      -38.5589599609,      231.0638427734
1494294634.4982569218,       -1.6279296875,        2.5366210938,       -0.3173828125,     -146.2097167969,      -38.5589599609,      231.0638427734
1494294634.5008540154,       -1.6279296875,        2.5366210938,       -0.3173828125,        8.8043212891,      -60.6689453125,      187.2406005859
1494294634.5034210682,       -1.6279296875,        0.5302734375,        0.2167968750,        8.8043212891,      -60.6689453125,      187.2406005859
1494294634.5059769154,       -0.8266601562,        0.5302734375,        0.2167968750,       16.0675048828,      -83.3892822266,      172.0581054688
1494294634.5085320473,       -0.8266601562,        0.5302734375,        0.2167968750,       16.0675048828,      -83.3892822266,      172.0581054688
1494294634.5111789703,       -0.8266601562,        0.5302734375,        0.2167968750,      -22.5524902344,      -99.1973876953,      169.4183349609
1494294634.5138781071,       -0.8266601562,       -0.0385742188,        1.1899414062,      -22.5524902344,      -99.1973876953,      169.4183349609
1494294634.5165750980,       -0.8735351562,       -0.0385742188,        1.1899414062,      -67.4896240234,      -92.5140380859,      177.3071289062
1494294634.5193541050,       -0.8735351562,       -0.0385742188,        1.1899414062,      -67.4896240234,      -92.5140380859,      177.3071289062
1494294634.5223729610,       -0.8735351562,       -0.0385742188,        1.1899414062,      -96.2371826172,      -66.4520263672,      185.4248046875
1494294634.5250799656,       -0.9384765625,        0.3442382812,        0.5058593750,      -96.2371826172,      -66.4520263672,      185.4248046875
1494294634.5277769566,       -0.9384765625,        0.3442382812,        0.5058593750,      -68.5577392578,      -43.7469482422,      189.5446777344
1494294634.5304780006,       -0.9384765625,        0.3442382812,        0.5058593750,      -68.5577392578,      -43.7469482422,      189.5446777344
1494294634.5331881046,       -0.9384765625,        0.3442382812,       -0.2167968750,      -16.0064697266,      -31.3110351562,      172.9888916016
1494294634.5358901024,       -0.4985351562,        1.1142578125,       -0.2167968750,      -16.0064697266,      -31.3110351562,      172.9888916016
1494294634.5385849476,       -0.4985351562,        1.1142578125,       -0.2167968750,       20.2484130859,      -34.4390869141,      136.4135742188
1494294634.5412590504,       -0.4985351562,        1.1142578125,       -0.2167968750,       20.2484130859,      -34.4390869141,      136.4135742188
1494294634.5438170433,       -0.4985351562,        0.8911132812,        0.0761718750,       34.9731445312,      -42.3126220703,      100.6011962891
1494294634.5463769436,       -0.6552734375,        0.8911132812,        0.0761718750,       34.9731445312,      -42.3126220703,      100.6011962891
1494294634.5490469933,       -0.6552734375,        0.8911132812,        0.0761718750,       36.9110107422,      -42.5415039062,       79.4982910156
1494294634.5516149998,       -0.6552734375,        0.8911132812,        0.0761718750,       36.9110107422,      -42.5415039062,       79.4982910156
1494294634.5541720390,       -0.7802734375,        0.3657226562,        0.0239257812,       39.6270751953,      -40.6036376953,       68.8781738281
1494294634.5567340851,       -0.7949218750,        0.3657226562,        0.0239257812,       39.6270751953,      -40.6036376953,       68.8781738281
1494294634.5592920780,       -0.7949218750,        0.3657226562,        0.0239257812,       51.3458251953,      -40.3442382812,       59.3414306641
1494294634.5619070530,       -0.7949218750,        0.3657226562,        0.0239257812,       52.7954101562,      -40.3442382812,       59.3414306641
1494294634.5644710064,       -0.7592773438,        0.0585937500,        0.0737304688,       52.7954101562,      -44.2504882812,       52.4902343750
1494294634.5670280457,       -0.7592773438,        0.0585937500,        0.0737304688,       67.1386718750,      -45.0744628906,       52.4902343750
1494294634.5695900917,       -0.7592773438,        0.0585937500,        0.0737304688,       67.1386718750,      -45.0744628906,       48.8586425781
1494294634.5722820759,       -0.7592773438,        0.0585937500,        0.0737304688,       67.0013427734,      -46.8292236328,       48.8586425781
1494294634.5748410225,       -0.7973632812,        0.0742187500,        0.0454101562,       67.0013427734,      -46.8292236328,       44.9523925781
1494294634.5774030685,       -0.7973632812,        0.0742187500,        0.0454101562,       56.4727783203,      -46.7071533203,       45.7763671875
1494294634.5799570084,       -0.7973632812,        0.0742187500,        0.0454101562,       56.4727783203,      -46.7071533203,       45.7763671875
1494294634.5827078819,       -0.7973632812,        0.0742187500,        0.0454101562,       50.1861572266,      -47.5769042969,       43.9453125000
1494294634.5854120255,       -0.7680664062,        0.1782226562,       -0.1240234375,       50.1861572266,      -47.5769042969,       43.9453125000
1494294634.5881109238,       -0.7680664062,        0.1782226562,       -0.1240234375,       46.6156005859,      -46.7071533203,       42.6177978516
1494294634.5908060074,       -0.7680664062,        0.1782226562,       -0.1240234375,       46.6156005859,      -46.7071533203,       42.6177978516
1494294634.5933649540,       -0.7680664062,        0.1782226562,       -0.1240234375,       44.9371337891,      -48.0651855469,       42.3431396484
1494294634.5959239006,       -0.7421875000,        0.1699218750,       -0.1406250000,       44.9371337891,      -48.0651855469,       42.3431396484
1494294634.5984809399,       -0.7421875000,        0.1699218750,       -0.1406250000,       40.2832031250,      -49.3621826172,       43.1823730469
1494294634.6010589600,       -0.7421875000,        0.1699218750,       -0.1406250000,       40.2832031250,      -49.3621826172,       43.1823730469
1494294634.6037580967,       -0.7421875000,        0.1699218750,        0.0859375000,       33.4014892578,      -47.8515625000,       45.1049804688
1494294634.6064550877,       -0.7407226562,        0.1254882812,        0.0859375000,       33.4014892578,      -47.8515625000,       45.1049804688
1494294634.6091499329,       -0.7407226562,        0.1254882812,        0.0859375000,       27.8930664062,      -44.5709228516,       44.6166992188
1494294634.6118109226,       -0.7407226562,        0.1254882812,        0.0859375000,       27.8930664062,      -44.5709228516,       44.6166992188
1494294634.6143701077,       -0.7407226562,       -0.0332031250,        0.1977539062,       23.6358642578,      -41.9006347656,       42.7703857422
1494294634.6169209480,       -0.7558593750,       -0.0332031250,        0.1977539062,       23.6358642578,      -41.9006347656,       42.7703857422
1494294634.6195828915,       -0.7558593750,       -0.0332031250,        0.1977539062,       19.3023681641,      -37.9943847656,       43.7469482422
1494294634.6222538948,       -0.7558593750,       -0.0332031250,        0.1977539062,       19.3023681641,      -37.9943847656,       43.7469482422
1494294634.6248130798,       -0.6308593750,       -0.0136718750,        0.1977539062,       14.1754150391,      -33.0200195312,       46.4935302734
1494294634.6273760796,       -0.7485351562,       -0.0136718750,        0.1977539062,       14.1754150391,      -33.0200195312,       46.4935302734
1494294634.6299319267,       -0.7485351562,       -0.0136718750,        0.1977539062,       14.1754150391,      -29.3426513672,       47.3785400391
1494294634.6326229572,       -0.7485351562,       -0.0136718750,        0.1977539062,       13.1988525391,      -29.3426513672,       47.3785400391
1494294634.6353189945,       -0.7080078125,        0.0683593750,        0.2758789062,       13.1988525391,      -26.9317626953,       44.7692871094
1494294634.6380839348,       -0.7080078125,        0.0683593750,        0.2758789062,       17.3187255859,      -26.9317626953,       44.7692871094
1494294634.6411619186,       -0.7080078125,        0.0683593750,        0.2758789062,       25.4974365234,      -24.8565673828,       40.4510498047
1494294634.6437220573,       -0.7080078125,        0.0683593750,        0.2758789062,       25.4974365234,      -24.8565673828,       40.4510498047
1494294634.6462841034,       -0.6669921875,        0.0874023438,        0.3652343750,       25.4974365234,      -22.0031738281,       35.8428955078
1494294634.6488409042,       -0.6669921875,        0.0874023438,        0.3652343750,       34.7137451172,      -22.0031738281,       35.8428955078
1494294634.6514489651,       -0.6669921875,        0.0874023438,        0.3652343750,       34.7137451172,      -18.0969238281,       31.2500000000
1494294634.6541531086,       -0.6669921875,        0.0874023438,        0.3652343750,       39.6728515625,      -19.4091796875,       31.2500000000
1494294634.6568539143,       -0.6674804688,        0.0839843750,        0.3178710938,       39.6728515625,      -19.4091796875,       28.4423828125
1494294634.6595559120,       -0.6674804688,        0.0839843750,        0.3178710938,       42.6788330078,      -17.0135498047,       28.4423828125
1494294634.6622710228,       -0.6674804688,        0.0839843750,        0.3178710938,       42.6788330078,      -17.0135498047,       27.1759033203
1494294634.6649739742,       -0.6674804688,        0.0878906250,        0.1357421875,       43.1823730469,      -15.8691406250,       27.1759033203
1494294634.6676781178,       -0.6723632812,        0.0878906250,        0.1357421875,       43.1823730469,      -15.8691406250,       26.7486572266
1494294634.6703770161,       -0.6723632812,        0.0878906250,        0.1357421875,       40.3289794922,      -16.5863037109,       26.7486572266
1494294634.6729509830,       -0.6723632812,        0.0878906250,        0.1357421875,       40.3289794922,      -16.5863037109,       30.6549072266
1494294634.6755039692,       -0.7148437500,        0.0766601562,        0.0244140625,       36.8957519531,      -15.9759521484,       28.7322998047
1494294634.6780610085,       -0.7148437500,        0.0766601562,        0.0244140625,       36.8957519531,      -15.9759521484,       28.7322998047
1494294634.6806209087,       -0.7148437500,        0.0766601562,        0.0244140625,       31.7382812500,      -15.1824951172,       31.9061279297
1494294634.6832230091,       -0.7148437500,        0.0766601562,        0.0244140625,       31.7382812500,      -15.1824951172,       31.9061279297
1494294634.6857819557,       -0.7421875000,        0.0917968750,       -0.0478515625,       25.0244140625,      -15.7318115234,       36.2091064453
1494294634.6883399487,       -0.7421875000,        0.0917968750,       -0.0478515625,       25.0244140625,      -15.7318115234,       36.2091064453
1494294634.6910700798,       -0.7421875000,        0.0917968750,       -0.0478515625,       22.3541259766,      -16.4642333984,       40.0085449219
1494294634.6937360764,       -0.7421875000,        0.0917968750,       -0.0478515625,       22.3541259766,      -16.4642333984,       40.0085449219
1494294634.6962931156,       -0.7470703125,        0.1298828125,       -0.0078125000,       23.8800048828,      -17.6239013672,       41.4428710938
1494294634.6988499165,       -0.7470703125,        0.1298828125,       -0.0078125000,       23.8800048828,      -17.6239013672,       41.4428710938
1494294634.7017529011,       -0.7470703125,        0.1298828125,       -0.0078125000,       26.1993408203,      -18.7225341797,       42.3736572266
1494294634.7054638863,       -0.7470703125,        0.1035156250,        0.1020507812,       26.1993408203,      -19.7296142578,       41.6564941406
1494294634.7090671062,       -0.7402343750,        0.1035156250,        0.1020507812,       28.4729003906,      -19.7296142578,       41.6564941406
1494294634.7122330666,       -0.7402343750,        0.1035156250,        0.1020507812,       31.3110351562,      -19.5770263672,       41.7938232422
1494294634.7149229050,       -0.7402343750,        0.1035156250,        0.2075195312,       31.3110351562,      -19.5770263672,       41.7938232422
1494294634.7176139355,       -0.7231445312,        0.0537109375,        0.2075195312,       34.8663330078,      -19.6075439453,       41.5649414062
1494294634.7203040123,       -0.7231445312,        0.0537109375,        0.2075195312,       34.8663330078,      -19.6075439453,       41.5649414062
1494294634.7230019569,       -0.7231445312,        0.0537109375,        0.2075195312,       39.5812988281,      -19.1497802734,       41.6564941406
1494294634.7256860733,       -0.7231445312,        0.0590820312,        0.2504882812,       39.5812988281,      -19.1497802734,       41.6564941406
1494294634.7283730507,       -0.7294921875,        0.0590820312,        0.2504882812,       44.6319580078,      -19.3023681641,       41.4733886719
1494294634.7310609818,       -0.7294921875,        0.0590820312,        0.2504882812,       44.6319580078,      -19.3023681641,       41.4733886719
1494294634.7337479591,       -0.7294921875,        0.0590820312,        0.2504882812,       48.8586425781,      -18.9514160156,       41.6259765625
1494294634.7364358902,       -0.7124023438,        0.0722656250,        0.2670898438,       48.8586425781,      -18.9514160156,       41.6259765625
1494294634.7391240597,       -0.7124023438,        0.0722656250,        0.2670898438,       52.7954101562,      -19.4244384766,       41.9464111328
1494294634.7418200970,       -0.7124023438,        0.0722656250,        0.2670898438,       52.7954101562,      -19.4244384766,       41.9464111328
1494294634.7445089817,       -0.7124023438,        0.0722656250,        0.2670898438,       57.3425292969,      -19.8822021484,       42.1295166016
1494294634.7471981049,       -0.7500000000,        0.0893554688,        0.2373046875,       57.3425292969,      -19.8822021484,       42.1295166016
1494294634.7498779297,       -0.7500000000,        0.0893554688,        0.2373046875,       65.1550292969,      -20.6298828125,       41.2292480469
1494294634.7525849342,       -0.7500000000,        0.0893554688,        0.2373046875,       62.5152587891,      -20.6298828125,       41.2292480469
1494294634.7552809715,       -0.7500000000,        0.0893554688,        0.1948242188,       66.4215087891,      -22.4761962891,       42.7246093750
1494294634.7580709457,       -0.7680664062,        0.1049804688,        0.1948242188,       70.2209472656,      -22.4761962891,       42.7246093750
1494294634.7611351013,       -0.7680664062,        0.1049804688,        0.1948242188,       80.0476074219,      -25.1159667969,       42.5109863281
1494294634.7638440132,       -0.7680664062,        0.1049804688,        0.1948242188,       80.0476074219,      -25.1159667969,       42.5109863281
1494294634.7665400505,       -0.7792968750,        0.1562500000,        0.1630859375,       88.0432128906,      -28.2745361328,       44.5709228516
1494294634.7692480087,       -0.7792968750,        0.1562500000,        0.1630859375,       88.0432128906,      -28.2745361328,       44.5709228516
1494294634.7720749378,       -0.7792968750,        0.1562500000,        0.1630859375,       96.6186523438,      -33.6303710938,       47.6837158203
1494294634.7747769356,       -0.7792968750,        0.1562500000,        0.1630859375,       96.6186523438,      -33.6303710938,       47.6837158203
1494294634.7774751186,       -0.7290039062,        0.1362304688,        0.1147460938,      106.5063476562,      -38.2385253906,       51.6815185547
1494294634.7801771164,       -0.7290039062,        0.1362304688,        0.1147460938,      106.5063476562,      -38.2385253906,       51.6815185547
1494294634.7828879356,       -0.7290039062,        0.1362304688,        0.1147460938,      113.0523681641,      -42.0074462891,       56.8847656250
1494294634.7855880260,       -0.7290039062,       -0.1137695312,        0.0478515625,      113.0523681641,      -42.0074462891,       56.8847656250
1494294634.7882881165,       -0.8222656250,       -0.0234375000,        0.0478515625,      113.5101318359,      -40.7867431641,       63.6901855469
1494294634.7909948826,       -0.8222656250,       -0.0234375000,        0.0478515625,      113.5101318359,      -40.7867431641,       63.6901855469
1494294634.7935550213,       -0.8222656250,       -0.0234375000,        0.0478515625,      106.3385009766,      -35.1867675781,       74.4171142578
1494294634.7961070538,       -0.8222656250,       -0.0673828125,       -0.0405273438,      106.3385009766,      -35.1867675781,       74.4171142578
1494294634.7986650467,       -0.8896484375,       -0.0673828125,       -0.0405273438,      106.3385009766,      -28.3203125000,       86.9598388672
1494294634.8012340069,       -0.8896484375,       -0.0673828125,       -0.0405273438,       94.7418212891,      -28.3203125000,       86.9598388672
1494294634.8037950993,       -0.8896484375,       -0.0673828125,       -0.0405273438,       94.7418212891,      -28.3203125000,       98.8006591797
1494294634.8063519001,       -0.8896484375,       -0.0014648438,       -0.0590820312,       83.9843750000,      -23.6358642578,       98.8006591797
1494294634.8089098930,       -0.9277343750,       -0.0014648438,       -0.0590820312,       83.9843750000,      -23.6358642578,      107.6812744141
1494294634.8116469383,       -0.9277343750,       -0.0014648438,       -0.0590820312,       77.8961181641,      -20.4772949219,      107.6812744141
1494294634.8142011166,       -0.9277343750,       -0.0014648438,       -0.0590820312,       77.8961181641,      -20.4772949219,      107.6812744141
1494294634.8167569637,       -1.0292968750,        0.0751953125,        0.0053710938,       72.6623535156,      -18.6309814453,      115.3869628906
1494294634.8193120956,       -1.0292968750,        0.0751953125,        0.0053710938,       72.6623535156,      -18.6309814453,      115.3869628906
1494294634.8220779896,       -1.0292968750,        0.0751953125,        0.0053710938,       70.8618164062,      -17.5170898438,      120.8496093750
1494294634.8247749805,       -1.0292968750,        0.0751953125,        0.0053710938,       70.8618164062,      -17.5170898438,      120.8496093750
1494294634.8274691105,       -1.0371093750,        0.1303710938,        0.0546875000,       70.3887939453,      -18.0816650391,      126.2817382812
1494294634.8301680088,       -1.0371093750,        0.1303710938,        0.0546875000,       70.3887939453,      -18.0816650391,      126.2817382812
1494294634.8328759670,       -1.0371093750,        0.1303710938,        0.0546875000,       72.1588134766,      -19.4702148438,      130.1269531250
1494294634.8355810642,       -1.0371093750,        0.1303710938,        0.0546875000,       72.1588134766,      -19.4702148438,      130.1269531250
1494294634.8382849693,       -1.0771484375,        0.1289062500,        0.0527343750,       74.6765136719,      -20.4620361328,      133.9263916016
1494294634.8409841061,       -1.0771484375,        0.1289062500,        0.0527343750,       74.6765136719,      -20.4620361328,      133.9263916016
1494294634.8436510563,       -1.0771484375,        0.1289062500,        0.0527343750,       76.6296386719,      -22.2015380859,      139.3737792969
1494294634.8462109566,       -1.0771484375,        0.0039062500,        0.0092773438,       76.6296386719,      -22.2015380859,      139.3737792969
1494294634.8487730026,       -1.1381835938,        0.0732421875,        0.0092773438,       78.0944824219,      -22.6593017578,      143.3563232422
1494294634.8514029980,       -1.1381835938,        0.0732421875,        0.0092773438,       78.0944824219,      -22.6593017578,      143.3563232422
1494294634.8541049957,       -1.1381835938,        0.0732421875,        0.0092773438,       78.6285400391,      -23.3764648438,      147.7050781250
1494294634.8568010330,       -1.1381835938,        0.0292968750,       -0.0234375000,       78.6285400391,      -23.3764648438,      147.7050781250
1494294634.8594899178,       -1.2075195312,        0.0292968750,       -0.0234375000,       77.0568847656,      -23.7426757812,      154.2968750000
1494294634.8621969223,       -1.2075195312,        0.0292968750,       -0.0234375000,       77.0568847656,      -23.7426757812,      154.2968750000
1494294634.8648929596,       -1.2075195312,        0.0292968750,       -0.0234375000,       77.0111083984,      -23.3764648438,      160.2172851562
1494294634.8675930500,       -1.2685546875,        0.0400390625,       -0.0664062500,       77.0111083984,      -23.3764648438,      160.2172851562
1494294634.8702878952,       -1.2685546875,        0.0400390625,       -0.0664062500,       77.3468017578,      -23.2543945312,      166.8701171875
1494294634.8729960918,       -1.2685546875,        0.0400390625,       -0.0664062500,       77.3468017578,      -23.2543945312,      166.8701171875
1494294634.8756918907,       -1.2685546875,        0.0400390625,       -0.0664062500,       80.6427001953,      -23.1170654297,      173.1719970703
1494294634.8786139488,       -1.3715820312,       -0.0449218750,       -0.0356445312,       80.6427001953,      -23.1170654297,      173.1719970703
1494294634.8817410469,       -1.3715820312,       -0.0449218750,       -0.0356445312,       85.1135253906,      -23.6053466797,      180.0537109375
1494294634.8844370842,       -1.3715820312,       -0.0449218750,       -0.0356445312,       85.1135253906,      -23.6053466797,      180.0537109375
1494294634.8871319294,       -1.4135742188,       -0.1606445312,        0.0297851562,       90.8203125000,      -26.3671875000,      186.6149902344
1494294634.8898289204,       -1.4135742188,       -0.1606445312,        0.0297851562,       90.8203125000,      -26.3671875000,      186.6149902344
1494294634.8924710751,       -1.4135742188,       -0.1606445312,        0.0297851562,       99.7467041016,      -29.0069580078,      194.1375732422
1494294634.8950300217,       -1.4135742188,       -0.1606445312,        0.0297851562,       99.7467041016,      -29.0069580078,      194.1375732422
1494294634.8975899220,       -1.4648437500,       -0.2500000000,        0.0258789062,      111.1450195312,      -30.8990478516,      198.1353759766
1494294634.9001500607,       -1.4648437500,       -0.2500000000,        0.0258789062,      111.1450195312,      -30.8990478516,      198.1353759766
1494294634.9028310776,       -1.4648437500,       -0.2500000000,        0.0258789062,      124.5727539062,      -33.2489013672,      197.0672607422
1494294634.9055271149,       -1.4648437500,       -0.2500000000,        0.0258789062,      124.5727539062,      -33.2489013672,      197.0672607422
1494294634.9082250595,       -1.5947265625,       -0.4096679688,       -0.0073242188,      137.2985839844,      -34.5611572266,      196.4111328125
1494294634.9109609127,       -1.5947265625,       -0.4096679688,       -0.0073242188,      137.2985839844,      -34.5611572266,      196.4111328125
1494294634.9135220051,       -1.5947265625,       -0.4096679688,       -0.0073242188,      147.5524902344,      -34.6832275391,      197.2198486328
1494294634.9160809517,       -1.5947265625,       -0.4096679688,       -0.0073242188,      147.5524902344,      -34.6832275391,      197.2198486328
1494294634.9187510014,       -1.8593750000,       -0.6220703125,       -0.0166015625,      158.1420898438,      -32.4859619141,      196.4874267578
1494294634.9213569164,       -1.8593750000,       -0.6220703125,       -0.0166015625,      158.1420898438,      -32.4859619141,      196.4874267578
1494294634.9239149094,       -1.8593750000,       -0.6220703125,       -0.0166015625,      158.1420898438,      -32.5469970703,      193.3898925781
1494294634.9264690876,       -1.8593750000,       -0.6220703125,        0.1083984375,      167.1905517578,      -32.5469970703,      193.3898925781
1494294634.9290320873,       -2.0590820312,       -0.8491210938,        0.0888671875,      167.1905517578,      -36.4532470703,      190.1397705078
1494294634.9316968918,       -2.0590820312,       -0.8491210938,        0.0888671875,      170.9136962891,      -35.5834960938,      190.1397705078
1494294634.9342639446,       -2.0590820312,       -0.8491210938,        0.0888671875,      170.9136962891,      -35.5834960938,      194.1070556641
1494294634.9368300438,       -2.0590820312,       -0.8491210938,        0.3745117188,      175.0183105469,      -38.8183593750,      194.1070556641
1494294634.9393949509,       -1.9853515625,       -0.8623046875,        0.3745117188,      175.0183105469,      -38.8183593750,      205.8258056641
1494294634.9420909882,       -1.9853515625,       -0.8623046875,        0.3745117188,      177.8869628906,      -38.9709472656,      206.6497802734
1494294634.9446499348,       -1.9853515625,       -0.8623046875,        0.3745117188,      177.8869628906,      -38.9709472656,      206.6497802734
1494294634.9472010136,       -1.9853515625,       -0.3471679688,        0.4497070312,      176.4373779297,      -26.6723632812,      225.3723144531
1494294634.9497559071,       -1.7734375000,       -0.3471679688,        0.4497070312,      176.4373779297,      -26.6723632812,      225.3723144531
1494294634.9524130821,       -1.7734375000,       -0.3471679688,        0.4497070312,      182.0526123047,      -10.5133056641,      239.6240234375
1494294634.9551150799,       -1.7734375000,       -0.3471679688,        0.4497070312,      182.0526123047,      -10.5133056641,      239.6240234375
1494294634.9578170776,       -1.7133789062,        0.0483398438,        0.5249023438,      170.4559326172,       -6.6528320312,      241.6534423828
1494294634.9605100155,       -1.7133789062,        0.0483398438,        0.5249023438,      170.4559326172,       -6.6528320312,      241.6534423828
1494294634.9632179737,       -1.7133789062,        0.0483398438,        0.5249023438,      139.7552490234,      -14.9536132812,      231.1096191406
1494294634.9659221172,       -1.7133789062,        0.0483398438,        0.5249023438,      139.7552490234,      -14.9536132812,      231.1096191406
1494294634.9686241150,       -1.7329101562,       -0.2832031250,        0.9047851562,      102.3712158203,      -24.0783691406,      215.6829833984
1494294634.9713380337,       -1.7329101562,       -0.2832031250,        0.9047851562,      102.3712158203,      -24.0783691406,      215.6829833984
1494294634.9739000797,       -1.7329101562,       -0.2832031250,        0.9047851562,       56.6253662109,      -25.1617431641,      204.8492431641
1494294634.9764609337,       -1.7329101562,       -0.2832031250,        0.9047851562,       56.6253662109,      -25.1617431641,      204.8492431641
1494294634.9790220261,       -1.5996093750,       -0.5029296875,        1.1459960938,       17.3645019531,      -16.5557861328,      195.5871582031
1494294634.9816730022,       -1.5996093750,       -0.5029296875,        1.1459960938,       17.3645019531,      -16.5557861328,      195.5871582031
1494294634.9842300415,       -1.5996093750,       -0.5029296875,        1.1459960938,       -6.3018798828,       -1.6937255859,      182.7850341797
1494294634.9867808819,       -1.5996093750,       -0.5029296875,        1.1459960938,       -6.3018798828,       -1.6937255859,      182.7850341797
1494294634.9893369675,       -1.2421875000,       -0.5283203125,        0.9404296875,      -21.9268798828,        5.5694580078,      165.3900146484
1494294634.9920639992,       -1.2421875000,       -0.5283203125,        0.9404296875,      -22.9949951172,        5.5694580078,      165.3900146484
1494294634.9946200848,       -1.2421875000,       -0.5283203125,        0.9404296875,      -22.9949951172,        9.0179443359,      146.8811035156
1494294634.9974958897,       -1.2421875000,       -0.5283203125,        0.3583984375,      -23.6816406250,        9.0179443359,      146.8811035156
1494294635.0000550747,       -1.2763671875,       -0.5424804688,        0.3583984375,        0.4119873047,       18.0664062500,      135.8032226562
1494294635.0031869411,       -1.2763671875,       -0.5424804688,        0.3583984375,        0.4119873047,       18.0664062500,      135.8032226562
1494294635.0058860779,       -1.2763671875,       -0.5424804688,        0.3583984375,        7.9193115234,       13.7481689453,      145.1568603516
1494294635.0085780621,       -0.8632812500,        0.3227539062,        0.2187500000,        7.9193115234,       13.7481689453,      145.1568603516
1494294635.0112779140,       -0.8632812500,        0.3227539062,        0.2187500000,      -28.1677246094,      -26.4434814453,      144.0124511719
1494294635.0139820576,       -0.8632812500,        0.3227539062,        0.2187500000,      -28.1677246094,      -26.4434814453,      144.0124511719
1494294635.0166780949,       -0.8632812500,        0.3227539062,        0.2187500000,      -64.6972656250,      -49.0875244141,      109.0545654297
1494294635.0193750858,       -0.5527343750,        0.5600585938,        0.5629882812,      -64.6972656250,      -49.0875244141,      109.0545654297
1494294635.0220699310,       -0.5527343750,        0.5600585938,        0.5629882812,      -92.4224853516,      -28.4423828125,       49.2553710938
1494294635.0247700214,       -0.5527343750,        0.5600585938,        0.5629882812,      -92.4224853516,      -28.4423828125,       49.2553710938
1494294635.0274651051,       -0.5527343750,        0.5600585938,        0.0273437500,     -100.2349853516,       -5.1879882812,      -12.3596191406
1494294635.0301589966,       -0.9916992188,       -0.3227539062,        0.0273437500,     -100.3112792969,       -5.1879882812,      -12.3596191406
1494294635.0327579975,       -0.9916992188,       -0.3227539062,        0.0273437500,     -100.3112792969,       -8.9416503906,      -55.7098388672
1494294635.0353140831,       -0.9916992188,       -0.3227539062,        0.0273437500,      -76.9805908203,       -8.9416503906,      -55.7098388672
1494294635.0378689766,       -0.9916992188,       -0.8227539062,        0.0532226562,      -76.9805908203,       -8.9416503906,      -79.7882080078
1494294635.0404269695,       -0.5869140625,       -0.8159179688,        0.0532226562,      -53.8635253906,      -10.0555419922,      -79.7882080078
1494294635.0430409908,       -0.5869140625,       -0.8159179688,        0.0532226562,      -53.8635253906,      -10.0555419922,      -91.5069580078
1494294635.0456030369,       -0.5869140625,       -0.8159179688,        0.0532226562,      -39.0777587891,       -5.1269531250,      -89.8895263672
1494294635.0481610298,       -0.5869140625,       -0.6640625000,       -0.0444335938,      -39.0777587891,       -5.1269531250,      -89.8895263672
1494294635.0508050919,       -0.1972656250,       -0.6640625000,       -0.0444335938,      -43.5485839844,       -3.4332275391,      -94.9707031250
1494294635.0533618927,       -0.1972656250,       -0.6640625000,       -0.0444335938,      -43.5485839844,       -3.4332275391,      -94.9707031250
1494294635.0559170246,       -0.1972656250,       -0.6640625000,       -0.0444335938,      -54.8706054688,       -4.8675537109,     -102.9510498047
1494294635.0584709644,       -0.0722656250,       -0.3608398438,       -0.0634765625,      -54.8706054688,       -4.8675537109,     -102.9510498047
1494294635.0611269474,       -0.1166992188,       -0.3608398438,       -0.0634765625,      -58.7921142578,       -3.8909912109,     -113.5711669922
1494294635.0639519691,       -0.1166992188,       -0.3608398438,       -0.0634765625,      -58.7921142578,       -3.8909912109,     -113.5711669922
1494294635.0666520596,       -0.1166992188,       -0.3608398438,       -0.0634765625,      -57.4951171875,       -3.0975341797,     -128.0059814453
1494294635.0693540573,       -0.1870117188,       -0.0805664062,       -0.0561523438,      -57.4951171875,       -3.0975341797,     -128.0059814453
1494294635.0719969273,       -0.1870117188,       -0.0805664062,       -0.0561523438,      -53.1311035156,       -2.4414062500,     -147.4456787109
1494294635.0745539665,       -0.1870117188,       -0.0805664062,       -0.0561523438,      -53.1311035156,       -2.4414062500,     -147.4456787109
1494294635.0771160126,       -0.1870117188,       -0.0805664062,       -0.0561523438,      -46.3714599609,       -0.7171630859,     -169.0216064453
1494294635.0796720982,       -0.2915039062,       -0.0371093750,       -0.0449218750,      -46.3714599609,       -0.7171630859,     -169.0216064453
1494294635.0823540688,       -0.2915039062,       -0.0371093750,       -0.0449218750,      -36.2854003906,        2.2430419922,     -189.8803710938
1494294635.0850379467,       -0.2915039062,       -0.0371093750,       -0.0449218750,      -36.2854003906,        2.2430419922,     -189.8803710938
1494294635.0877170563,       -0.2915039062,       -0.0371093750,       -0.0449218750,      -25.4516601562,        5.0964355469,     -208.3282470703
1494294635.0903909206,       -0.3056640625,       -0.1494140625,       -0.0463867188,      -25.4516601562,        5.0964355469,     -208.3282470703
1494294635.0930449963,       -0.3056640625,       -0.1494140625,       -0.0463867188,      -20.3247070312,        6.7596435547,     -221.8780517578
1494294635.0956981182,       -0.3056640625,       -0.1494140625,       -0.0463867188,      -20.3247070312,        6.7596435547,     -221.8780517578
1494294635.0984020233,       -0.3056640625,       -0.1494140625,       -0.0483398438,      -23.2238769531,        6.5765380859,     -232.9864501953
1494294635.1010899544,       -0.2822265625,       -0.2290039062,       -0.0483398438,      -23.2238769531,        6.5765380859,     -232.9864501953
1494294635.1037468910,       -0.2822265625,       -0.2290039062,       -0.0483398438,      -30.2276611328,        6.5307617188,     -243.6065673828
1494294635.1064100266,       -0.2822265625,       -0.2290039062,       -0.0483398438,      -30.2276611328,        6.5307617188,     -243.6065673828
1494294635.1090679169,       -0.3261718750,       -0.2827148438,       -0.0415039062,      -38.0401611328,        7.7056884766,     -253.2806396484
1494294635.1117238998,       -0.3261718750,       -0.2827148438,       -0.0415039062,      -39.0625000000,        7.7056884766,     -253.2806396484
1494294635.1142809391,       -0.3261718750,       -0.2827148438,       -0.0415039062,      -39.0625000000,       11.6119384766,     -259.4146728516
1494294635.1169281006,       -0.3261718750,       -0.2827148438,       -0.0415039062,      -47.5921630859,        9.3688964844,     -259.4146728516
1494294635.1195199490,       -0.4355468750,       -0.2690429688,       -0.0571289062,      -55.4046630859,       11.2762451172,     -264.3280029297
1494294635.1225891113,       -0.4355468750,       -0.2690429688,       -0.0571289062,      -56.9458007812,       11.2762451172,     -264.3280029297
1494294635.1252920628,       -0.4355468750,       -0.2690429688,       -0.0571289062,      -68.6645507812,       13.9770507812,     -268.5852050781
1494294635.1279909611,       -0.4355468750,       -0.2690429688,       -0.0571289062,      -68.3288574219,       13.9770507812,     -268.5852050781
1494294635.1307039261,       -0.5585937500,       -0.1972656250,       -0.0751953125,      -68.3288574219,       18.2647705078,     -272.7661132812
1494294635.1334080696,       -0.5585937500,       -0.1972656250,       -0.0751953125,      -78.8421630859,       18.2647705078,     -272.7661132812
1494294635.1361100674,       -0.5585937500,       -0.1972656250,       -0.0751953125,      -78.8421630859,       21.9573974609,     -278.6865234375
1494294635.1389150620,       -0.5585937500,       -0.1040039062,       -0.0644531250,      -87.5549316406,       21.9573974609,     -278.6865234375
1494294635.1416308880,       -0.6166992188,       -0.1040039062,       -0.0644531250,      -95.3674316406,       26.3214111328,     -284.3322753906
1494294635.1443328857,       -0.6166992188,       -0.1040039062,       -0.0644531250,      -95.2301025391,       26.3214111328,     -284.3322753906
1494294635.1470301151,       -0.6166992188,       -0.1040039062,       -0.0644531250,      -95.2301025391,       31.0974121094,     -289.5202636719
1494294635.1497290134,       -0.6640625000,       -0.0043945312,       -0.0698242188,     -101.0131835938,       31.0974121094,     -289.5202636719
1494294635.1523509026,       -0.6640625000,       -0.0043945312,       -0.0698242188,     -101.0131835938,       38.9099121094,     -295.6237792969
1494294635.1549100876,       -0.6640625000,       -0.0043945312,       -0.0698242188,     -103.2104492188,       36.0260009766,     -295.6237792969
1494294635.1574668884,       -0.6640625000,       -0.0043945312,       -0.0698242188,     -103.2104492188,       36.0260009766,     -302.4597167969
1494294635.1600270271,       -0.7246093750,        0.0834960938,       -0.0595703125,     -102.3864746094,       40.2069091797,     -302.4597167969
1494294635.1625890732,       -0.7246093750,        0.0834960938,       -0.0595703125,     -102.3864746094,       40.2069091797,     -302.4597167969
1494294635.1651480198,       -0.7246093750,        0.0834960938,       -0.0595703125,     -102.6306152344,       43.0603027344,     -309.4787597656
1494294635.1677079201,       -0.7246093750,        0.0834960938,       -0.0595703125,     -102.6306152344,       43.0603027344,     -309.4787597656
1494294635.1702699661,       -0.8056640625,        0.1347656250,       -0.0375976562,     -102.2949218750,       45.9594726562,     -316.5435791016
1494294635.1729900837,       -0.8056640625,        0.1347656250,       -0.0375976562,     -102.2949218750,       45.9594726562,     -316.5435791016
1494294635.1755509377,       -0.8056640625,        0.1347656250,       -0.0375976562,     -101.7608642578,       47.3632812500,     -322.9522705078
1494294635.1781079769,       -0.8056640625,        0.1347656250,       -0.0375976562,     -101.7608642578,       47.3632812500,     -322.9522705078
1494294635.1807889938,       -0.9013671875,        0.1665039062,       -0.0209960938,     -101.3488769531,       48.2177734375,     -328.8269042969
1494294635.1834928989,       -0.9013671875,        0.1665039062,       -0.0209960938,     -101.3488769531,       48.2177734375,     -328.8269042969
1494294635.1861929893,       -0.9013671875,        0.1665039062,       -0.0209960938,     -100.0061035156,       48.2635498047,     -333.9385986328
1494294635.1888918877,       -0.9013671875,        0.1665039062,       -0.0283203125,     -100.0061035156,       48.2635498047,     -333.9385986328
1494294635.1916060448,       -0.9741210938,        0.2031250000,       -0.0283203125,      -98.6480712891,       48.2940673828,     -339.5843505859
1494294635.1943099499,       -0.9741210938,        0.2031250000,       -0.0283203125,      -98.6480712891,       48.2940673828,     -339.5843505859
1494294635.1970050335,       -0.9741210938,        0.2031250000,       -0.0283203125,      -95.8709716797,       48.1567382812,     -344.1009521484
1494294635.1997010708,       -1.0991210938,        0.2250976562,       -0.0180664062,      -95.8709716797,       48.1567382812,     -344.1009521484
1494294635.2024030685,       -1.0415039062,        0.2250976562,       -0.0180664062,      -92.1936035156,       48.0651855469,     -348.5870361328
1494294635.2051060200,       -1.0415039062,        0.2250976562,       -0.0180664062,      -92.1936035156,       48.0651855469,     -348.5870361328
1494294635.2078011036,       -1.0415039062,        0.2250976562,       -0.0180664062,      -88.2110595703,       47.4243164062,     -352.9052734375
1494294635.2104959488,       -1.1450195312,        0.2368164062,        0.0087890625,      -88.2110595703,       47.4243164062,     -352.9052734375
1494294635.2131910324,       -1.1450195312,        0.2368164062,        0.0087890625,      -83.4503173828,       47.4090576172,     -356.9183349609
1494294635.2157568932,       -1.1450195312,        0.2368164062,        0.0087890625,      -83.4503173828,       47.4090576172,     -356.9183349609
1494294635.2183160782,       -1.1450195312,        0.2368164062,        0.0087890625,      -77.7740478516,       47.7600097656,     -360.8703613281
1494294635.2209539413,       -1.2744140625,        0.2416992188,        0.0444335938,      -77.7740478516,       47.7600097656,     -360.8703613281
1494294635.2236559391,       -1.2744140625,        0.2416992188,        0.0444335938,      -72.4792480469,       48.4008789062,     -364.2272949219
1494294635.2263560295,       -1.2744140625,        0.2416992188,        0.0444335938,      -72.4792480469,       48.4008789062,     -364.2272949219
1494294635.2290539742,       -1.2744140625,        0.2416992188,        0.0444335938,      -66.6503906250,       48.5992431641,     -367.4774169922
1494294635.2317640781,       -1.4213867188,        0.2441406250,        0.1074218750,      -66.6503906250,       48.5992431641,     -367.4774169922
1494294635.2344639301,       -1.4213867188,        0.2441406250,        0.1074218750,      -63.1408691406,       48.7976074219,     -369.7357177734
1494294635.2372438908,       -1.4213867188,        0.2441406250,        0.1074218750,      -63.1408691406,       48.7976074219,     -369.7357177734
1494294635.2399470806,       -1.5463867188,        0.2861328125,        0.1459960938,      -63.0645751953,       48.4008789062,     -370.2545166016
1494294635.2428369522,       -1.5966796875,        0.2861328125,        0.1459960938,      -63.0645751953,       48.4008789062,     -370.2545166016
1494294635.2455360889,       -1.5966796875,        0.2861328125,        0.1459960938,      -63.5528564453,       46.5545654297,     -369.5068359375
1494294635.2482368946,       -1.5966796875,        0.2861328125,        0.1459960938,      -63.5528564453,       46.5545654297,     -369.5068359375
1494294635.2509679794,       -1.7602539062,        0.4707031250,        0.2763671875,      -56.0607910156,       45.9442138672,     -366.4855957031
1494294635.2535259724,       -1.7602539062,        0.4707031250,        0.2763671875,      -56.0607910156,       45.9442138672,     -366.4855957031
1494294635.2560911179,       -1.7602539062,        0.4707031250,        0.2763671875,      -40.4357910156,       51.0253906250,     -362.3962402344
1494294635.2586460114,       -1.7602539062,        0.4707031250,        0.2763671875,      -42.4194335938,       51.0253906250,     -362.3962402344
1494294635.2612400055,       -1.8813476562,        0.7319335938,        0.2241210938,      -42.4194335938,       52.4749755859,     -357.4676513672
1494294635.2639420033,       -1.8813476562,        0.7319335938,        0.2241210938,      -37.5366210938,       52.4749755859,     -357.4676513672
1494294635.2666399479,       -1.8813476562,        0.7319335938,        0.2241210938,      -37.5366210938,       52.4749755859,     -350.5401611328
1494294635.2693400383,       -1.8813476562,        0.7319335938,        0.3491210938,      -42.1447753906,       50.8270263672,     -350.5401611328
1494294635.2719869614,       -1.9150390625,        0.7192382812,        0.2934570312,      -42.1447753906,       50.8270263672,     -339.0045166016
1494294635.2745440006,       -1.9150390625,        0.7192382812,        0.2934570312,      -55.5725097656,       50.4913330078,     -339.0045166016
1494294635.2771029472,       -1.9150390625,        0.7192382812,        0.2934570312,      -55.5725097656,       50.4913330078,     -323.3795166016
1494294635.2796659470,       -1.9150390625,        0.7192382812,        0.3779296875,      -76.6296386719,       50.8422851562,     -321.1517333984
1494294635.2822740078,       -1.8706054688,        0.6733398438,        0.3779296875,      -76.6296386719,       50.8422851562,     -321.1517333984
1494294635.2849440575,       -1.8706054688,        0.6733398438,        0.3779296875,     -100.3875732422,       51.1169433594,     -297.3785400391
1494294635.2875010967,       -1.8706054688,        0.6733398438,        0.3779296875,     -100.3875732422,       51.1169433594,     -297.3785400391
1494294635.2900600433,       -1.8706054688,        0.7983398438,        0.5292968750,     -123.9471435547,       50.1403808594,     -270.4772949219
1494294635.2927920818,       -1.7290039062,        0.8530273438,        0.5292968750,     -123.9471435547,       50.1403808594,     -270.4772949219
1494294635.2953529358,       -1.7290039062,        0.8530273438,        0.5292968750,     -144.0734863281,       45.3643798828,     -242.2180175781
1494294635.2979021072,       -1.7290039062,        0.8530273438,        0.5292968750,     -144.0734863281,       45.3643798828,     -242.2180175781
1494294635.3004529476,       -1.3540039062,        1.4086914062,        0.8212890625,     -156.1431884766,       36.1785888672,     -217.1630859375
1494294635.3031499386,       -1.3745117188,        1.4086914062,        0.8212890625,     -156.1431884766,       36.1785888672,     -217.1630859375
1494294635.3057050705,       -1.3745117188,        1.4086914062,        0.8212890625,     -157.3791503906,       29.7393798828,     -192.9321289062
1494294635.3082599640,       -1.3745117188,        1.4086914062,        0.8212890625,     -157.3791503906,       29.7393798828,     -192.9321289062
1494294635.3108210564,       -0.8696289062,        2.2045898438,        0.7714843750,     -155.0903320312,       16.1437988281,     -165.6036376953
1494294635.3135170937,       -0.8696289062,        2.2045898438,        0.7714843750,     -155.0903320312,       16.1437988281,     -165.6036376953
1494294635.3162119389,       -0.8696289062,        2.2045898438,        0.7714843750,     -147.2320556641,       -1.0223388672,     -135.0250244141
1494294635.3189060688,       -0.8696289062,        2.2045898438,        0.7714843750,     -147.2320556641,       -1.0223388672,     -135.0250244141
1494294635.3216140270,       -0.6738281250,        2.9272460938,        0.4951171875,     -124.2218017578,      -13.5040283203,     -102.9205322266
1494294635.3243119717,       -0.6738281250,        2.9272460938,        0.4951171875,     -124.2218017578,      -13.5040283203,     -102.9205322266
1494294635.3270111084,       -0.6738281250,        2.9272460938,        0.4951171875,      -90.0726318359,      -23.7731933594,      -68.3288574219
1494294635.3297080994,       -0.6738281250,        2.9272460938,        0.4951171875,      -90.0726318359,      -23.7731933594,      -68.3288574219
1494294635.3324170113,       -0.7001953125,        2.9921875000,        0.4223632812,      -55.8471679688,      -31.0668945312,      -30.2276611328
1494294635.3351171017,       -0.7001953125,        2.9921875000,        0.4223632812,      -55.8471679688,      -31.0668945312,      -30.2276611328
1494294635.3378140926,       -0.7001953125,        2.9921875000,        0.4223632812,      -44.8608398438,      -35.2630615234,       14.7399902344
1494294635.3405089378,       -0.7001953125,        2.4921875000,        0.6728515625,      -44.8608398438,      -35.2630615234,       14.7399902344
1494294635.3430900574,       -0.8291015625,        2.4624023438,        0.6728515625,      -56.5795898438,      -32.6538085938,       61.6302490234
1494294635.3456499577,       -0.8291015625,        2.4624023438,        0.6728515625,      -55.7708740234,      -32.6538085938,       61.6302490234
1494294635.3482060432,       -0.8291015625,        2.4624023438,        0.6728515625,      -55.7708740234,      -24.8413085938,      102.7984619141
1494294635.3507590294,       -0.8291015625,        2.1953125000,        0.7998046875,      -67.9016113281,      -26.7944335938,      102.7984619141
1494294635.3533151150,       -0.8974609375,        2.1953125000,        0.7998046875,      -67.9016113281,      -26.7944335938,      134.0484619141
1494294635.3558681011,       -0.8974609375,        2.1953125000,        0.7998046875,      -82.5653076172,      -28.6712646484,      136.5814208984
1494294635.3586831093,       -0.8974609375,        2.1953125000,        0.7998046875,      -82.5653076172,      -28.6712646484,      167.8314208984
1494294635.3615889549,       -1.0029296875,        1.7797851562,        0.8256835938,      -88.2873535156,      -30.5786132812,      165.2679443359
1494294635.3642950058,       -1.0029296875,        1.7797851562,        0.8256835938,      -88.2873535156,      -30.5786132812,      182.4645996094
1494294635.3669960499,       -1.0029296875,        1.7797851562,        0.8256835938,      -59.8144531250,      -45.6085205078,      182.4645996094
1494294635.3696990013,       -1.0029296875,        1.7797851562,        0.8256835938,      -59.8144531250,      -45.6085205078,      200.0732421875
1494294635.3724091053,       -1.2670898438,        1.0996093750,        0.7734375000,      -39.3371582031,      -41.2445068359,      200.0732421875
1494294635.3751039505,       -1.2670898438,        1.0996093750,        0.7734375000,      -39.3371582031,      -41.2445068359,      181.5490722656
1494294635.3777990341,       -1.2670898438,        1.0996093750,        0.7734375000,      -49.9725341797,      -17.3339843750,      181.5490722656
1494294635.3805000782,       -1.2670898438,        1.0996093750,       -1.0253906250,      -49.9725341797,      -17.3339843750,      132.1563720703
1494294635.3832058907,       -1.5097656250,       -1.4936523438,       -1.0253906250,      -69.9768066406,        0.9613037109,      132.1563720703
1494294635.3859009743,       -1.5097656250,       -1.4936523438,       -1.0253906250,      -69.9768066406,        0.9613037109,       96.5423583984
1494294635.3885951042,       -1.5097656250,       -1.4936523438,       -1.0253906250,       12.3901367188,        5.6610107422,       96.5423583984
1494294635.3912611008,       -1.5097656250,       -3.1425781250,       -0.9770507812,       12.3901367188,        5.6610107422,      104.3548583984
1494294635.3938179016,       -1.8666992188,       -3.1425781250,       -0.9770507812,       97.2137451172,        5.2795410156,      102.9968261719
1494294635.3963720798,       -1.8666992188,       -3.1425781250,       -0.9770507812,       97.2137451172,        5.2795410156,      102.9968261719
1494294635.3989338875,       -1.8666992188,       -3.1425781250,       -0.9770507812,       34.7290039062,       -1.5411376953,      150.6805419922
1494294635.4015359879,       -1.4916992188,       -0.6030273438,        0.0273437500,       34.7290039062,       -1.5411376953,      150.6805419922
1494294635.4040930271,       -1.4160156250,       -0.6030273438,        0.0273437500,      -46.7529296875,      -23.5595703125,      241.9281005859
1494294635.4066519737,       -1.4160156250,       -0.6030273438,        0.0273437500,      -46.7529296875,      -23.5595703125,      241.9281005859
1494294635.4092080593,       -1.4160156250,       -0.6030273438,        0.0273437500,     -153.9764404297,      -36.4379882812,      328.7963867188
1494294635.4118649960,       -1.0903320312,        2.6230468750,        1.0087890625,     -153.9764404297,      -36.4379882812,      328.7963867188
1494294635.4144279957,       -1.0903320312,        2.6230468750,        1.0087890625,     -292.8619384766,      -39.1540527344,      323.1658935547
1494294635.4169878960,       -1.0903320312,        2.6230468750,        1.0087890625,     -292.8619384766,      -39.1540527344,      323.1658935547
1494294635.4195370674,       -1.0903320312,        2.6230468750,        1.0087890625,     -270.3552246094,      -49.9114990234,      258.3312988281
1494294635.4223160744,       -1.6445312500,        2.1625976562,       -0.1503906250,     -270.3552246094,      -49.9114990234,      258.3312988281
1494294635.4250130653,       -1.6445312500,        2.1625976562,       -0.1503906250,     -123.1842041016,      -50.3997802734,      216.4764404297
1494294635.4277110100,       -1.6445312500,        2.1625976562,       -0.1503906250,     -123.1842041016,      -50.3997802734,      216.4764404297
1494294635.4304060936,       -1.6445312500,        2.1625976562,       -0.1503906250,      -46.4172363281,      -57.9986572266,      193.2067871094
1494294635.4332199097,       -1.0649414062,        0.6616210938,       -0.5151367188,      -46.4172363281,      -57.9986572266,      193.2067871094
1494294635.4359200001,       -1.0649414062,        0.6616210938,       -0.5151367188,      -41.7785644531,      -68.1762695312,      193.6340332031
1494294635.4386229515,       -1.0649414062,        0.6616210938,       -0.5151367188,      -41.7785644531,      -68.1762695312,      193.6340332031
1494294635.4413650036,       -1.0649414062,        0.4116210938,       -0.0551757812,      -50.5218505859,      -73.5321044922,      201.6296386719
1494294635.4440660477,       -0.7236328125,        0.4028320312,       -0.0551757812,      -50.5218505859,      -73.5321044922,      201.6296386719
1494294635.4467658997,       -0.7236328125,        0.4028320312,       -0.0551757812,      -63.9495849609,      -76.2786865234,      196.9604492188
1494294635.4494690895,       -0.7236328125,        0.4028320312,       -0.0551757812,      -63.9495849609,      -76.2786865234,      196.9604492188
1494294635.4521059990,       -0.7099609375,        0.7426757812,        0.4633789062,      -71.7620849609,      -76.3244628906,      177.1392822266
1494294635.4546689987,       -0.7099609375,        0.7426757812,        0.4633789062,      -73.3947753906,      -76.3244628906,      177.1392822266
1494294635.4572339058,       -0.7099609375,        0.7426757812,        0.4633789062,      -73.3947753906,      -72.4182128906,      153.6712646484
1494294635.4597930908,       -0.7099609375,        0.7426757812,        0.4633789062,      -61.8743896484,      -70.8312988281,      153.6712646484
1494294635.4624619484,       -0.9311523438,        0.8623046875,        0.6142578125,      -61.8743896484,      -70.8312988281,      134.7045898438
1494294635.4650239944,       -0.9311523438,        0.8623046875,        0.6142578125,      -35.1867675781,      -61.7523193359,      134.7045898438
1494294635.4675879478,       -0.9311523438,        0.8623046875,        0.6142578125,      -35.1867675781,      -61.7523193359,      119.0795898438
1494294635.4701499939,       -0.9311523438,        0.8623046875,        0.6142578125,       -4.7149658203,      -54.3823242188,      119.6899414062
1494294635.4728960991,       -0.8012695312,        0.7885742188,       -0.0039062500,       -4.7149658203,      -54.3823242188,      100.1586914062
1494294635.4755580425,       -0.8012695312,        0.7885742188,       -0.0039062500,       18.8140869141,      -55.2215576172,      100.1281738281
1494294635.4784760475,       -0.8012695312,        0.7885742188,       -0.0039062500,       18.8140869141,      -55.2215576172,       81.3903808594
1494294635.4815831184,       -0.8012695312,        0.7885742188,       -0.0058593750,       29.8156738281,      -59.7991943359,       81.3903808594
1494294635.4842910767,       -0.7075195312,        0.4604492188,       -0.0058593750,       29.8156738281,      -55.8929443359,       69.6105957031
1494294635.4869918823,       -0.7075195312,        0.4604492188,       -0.0058593750,       29.4189453125,      -56.7016601562,       69.6105957031
1494294635.4896929264,       -0.7075195312,        0.4604492188,       -0.0058593750,       29.4189453125,      -48.8891601562,       63.4002685547
1494294635.4924130440,       -0.7812500000,        0.2880859375,        0.1459960938,       30.2124023438,      -50.6134033203,       63.4002685547
1494294635.4951100349,       -0.7812500000,        0.2880859375,        0.1459960938,       30.2124023438,      -54.5196533203,       56.6864013672
1494294635.4978110790,       -0.7812500000,        0.2880859375,        0.1459960938,       33.3709716797,      -50.9490966797,       56.6864013672
1494294635.5005149841,       -0.7812500000,        0.2880859375,        0.1459960938,       33.3709716797,      -50.9490966797,       48.5229492188
1494294635.5032210350,       -0.7475585938,        0.1298828125,        0.2465820312,       34.7442626953,      -50.8728027344,       48.5229492188
1494294635.5060179234,       -0.7475585938,        0.1298828125,        0.2465820312,       34.7442626953,      -46.9665527344,       40.8630371094
1494294635.5087220669,       -0.7475585938,        0.1298828125,        0.2465820312,       41.4733886719,      -49.1943359375,       40.8630371094
1494294635.5114049911,       -0.7475585938,        0.1298828125,        0.2465820312,       41.4733886719,      -49.1943359375,       34.6832275391
1494294635.5139660835,       -0.7133789062,        0.0776367188,        0.2182617188,       51.6967773438,      -46.4782714844,       34.6832275391
1494294635.5165209770,       -0.7133789062,        0.0776367188,        0.2182617188,       51.6967773438,      -46.4782714844,       30.7769775391
1494294635.5190799236,       -0.7133789062,        0.0776367188,        0.2182617188,       60.9283447266,      -46.1425781250,       30.1055908203
1494294635.5216460228,       -0.7133789062,        0.0776367188,        0.2182617188,       60.9283447266,      -46.1425781250,       30.1055908203
1494294635.5242040157,       -0.7285156250,        0.0644531250,        0.1416015625,       63.8427734375,      -47.3175048828,       26.4739990234
1494294635.5267620087,       -0.7285156250,        0.0644531250,        0.1416015625,       63.8427734375,      -47.3175048828,       26.4739990234
1494294635.5293118954,       -0.7285156250,        0.0644531250,        0.1416015625,       60.9741210938,      -46.0815429688,       24.6734619141
1494294635.5320270061,       -0.7285156250,        0.0644531250,        0.0878906250,       60.9741210938,      -46.0815429688,       24.6734619141
1494294635.5345849991,       -0.7387695312,       -0.0024414062,        0.0878906250,       56.9000244141,      -43.9147949219,       24.2767333984
1494294635.5371429920,       -0.7387695312,       -0.0024414062,        0.0878906250,       56.9000244141,      -43.9147949219,       24.2767333984
1494294635.5397009850,       -0.7387695312,       -0.0024414062,        0.0878906250,       52.2613525391,      -41.7327880859,       25.6347656250
1494294635.5424809456,       -0.7387695312,       -0.0771484375,        0.0849609375,       52.2613525391,      -41.7327880859,       25.6347656250
1494294635.5451829433,       -0.7646484375,       -0.0771484375,        0.0849609375,       44.9371337891,      -39.5660400391,       28.5949707031
1494294635.5478858948,       -0.7646484375,       -0.0771484375,        0.0849609375,       44.9371337891,      -39.5660400391,       28.5949707031
1494294635.5505859852,       -0.7646484375,       -0.0771484375,        0.0849609375,       37.0941162109,      -38.0249023438,       32.3486328125
1494294635.5531439781,       -0.7651367188,       -0.1142578125,        0.1215820312,       37.0941162109,      -38.0249023438,       32.3486328125
1494294635.5557041168,       -0.7651367188,       -0.1142578125,        0.1215820312,       29.1748046875,      -35.8428955078,       36.4532470703
1494294635.5582621098,       -0.7651367188,       -0.1142578125,        0.1215820312,       29.1748046875,      -35.8428955078,       36.4532470703
1494294635.5608260632,       -0.7651367188,       -0.1142578125,        0.1215820312,       17.4560546875,      -33.2641601562,       41.0919189453
1494294635.5635299683,       -0.7631835938,       -0.0874023438,        0.1191406250,       19.0582275391,      -33.2641601562,       41.0919189453
1494294635.5662310123,       -0.7631835938,       -0.0874023438,        0.1191406250,       15.1519775391,      -31.1126708984,       45.0897216797
1494294635.5689260960,       -0.7631835938,       -0.0874023438,        0.1191406250,       13.0920410156,      -31.1126708984,       45.0897216797
1494294635.5716309547,       -0.7631835938,       -0.0874023438,        0.1191406250,        9.1857910156,      -30.1055908203,       48.3856201172
1494294635.5743229389,       -0.7343750000,       -0.0244140625,        0.1059570312,        9.7351074219,      -30.1055908203,       48.3856201172
1494294635.5770170689,       -0.7343750000,       -0.0244140625,        0.1059570312,        9.7351074219,      -29.2205810547,       49.8504638672
1494294635.5798230171,       -0.7343750000,       -0.0244140625,        0.1059570312,       10.0250244141,      -29.2205810547,       49.8504638672
1494294635.5825660229,       -0.7343750000,        0.1005859375,        0.1298828125,       13.9312744141,      -28.3813476562,       50.1708984375
1494294635.5852639675,       -0.7182617188,        0.0107421875,        0.1298828125,       13.6718750000,      -28.3813476562,       50.1708984375
1494294635.5879569054,       -0.7182617188,        0.0107421875,        0.1298828125,       17.5781250000,      -27.7709960938,       49.5452880859
1494294635.5906679630,       -0.7182617188,        0.0107421875,        0.1298828125,       18.8598632812,      -27.7709960938,       49.5452880859
1494294635.5932209492,       -0.7182617188,        0.0629882812,        0.1733398438,       18.8598632812,      -23.8647460938,       48.1872558594
1494294635.5957760811,       -0.7084960938,        0.0629882812,        0.1733398438,       25.5126953125,      -27.0538330078,       48.1872558594
1494294635.5985589027,       -0.7084960938,        0.0629882812,        0.1733398438,       25.5126953125,      -27.0538330078,       45.5932617188
1494294635.6015670300,       -0.7084960938,        0.0629882812,        0.1733398438,       33.2183837891,      -25.2227783203,       45.5932617188
1494294635.6042699814,       -0.6977539062,        0.1162109375,        0.2270507812,       41.0308837891,      -24.1546630859,       42.7246093750
1494294635.6069679260,       -0.6977539062,        0.1162109375,        0.2270507812,       39.1845703125,      -24.1546630859,       42.7246093750
1494294635.6096639633,       -0.6977539062,        0.1162109375,        0.2270507812,       39.1845703125,      -22.8576660156,       40.2526855469
1494294635.6123731136,       -0.6977539062,        0.1162109375,        0.2270507812,       43.5333251953,      -22.8576660156,       40.2526855469
1494294635.6150729656,       -0.6904296875,        0.1186523438,        0.2304687500,       43.5333251953,      -20.7977294922,       39.5355224609
1494294635.6177709103,       -0.6904296875,        0.1186523438,        0.2304687500,       46.5087890625,      -20.7977294922,       39.5355224609
1494294635.6204710007,       -0.6904296875,        0.1186523438,        0.2304687500,       46.5087890625,      -19.9279785156,       38.7725830078
1494294635.6231739521,       -0.6904296875,        0.0878906250,        0.1733398438,       47.4853515625,      -19.9279785156,       38.7725830078
1494294635.6258740425,       -0.6826171875,        0.0878906250,        0.1733398438,       47.4853515625,      -16.0217285156,       38.6962890625
1494294635.6285700798,       -0.6826171875,        0.0878906250,        0.1733398438,       46.7376708984,      -19.5159912109,       38.6962890625
1494294635.6312470436,       -0.6826171875,        0.0878906250,        0.1733398438,       46.7376708984,      -19.5159912109,       40.2221679688
1494294635.6338040829,       -0.6953125000,        0.0390625000,        0.1074218750,       44.2962646484,      -18.3105468750,       40.2221679688
1494294635.6363630295,       -0.6953125000,        0.0390625000,        0.1074218750,       44.2962646484,      -18.3105468750,       44.1284179688
1494294635.6389269829,       -0.6953125000,        0.0390625000,        0.1074218750,       39.9322509766,      -18.0816650391,       43.3349609375
1494294635.6415390968,       -0.6953125000,        0.0390625000,        0.1074218750,       39.9322509766,      -18.0816650391,       43.3349609375
1494294635.6440930367,       -0.7197265625,        0.0712890625,        0.0571289062,       35.9649658203,      -18.0358886719,       46.9970703125
1494294635.6466488838,       -0.7197265625,        0.0712890625,        0.0571289062,       35.9649658203,      -18.0358886719,       46.9970703125
1494294635.6492059231,       -0.7197265625,        0.0712890625,        0.0571289062,       34.0118408203,      -17.6849365234,       50.3082275391
1494294635.6518800259,       -0.7197265625,        0.0712890625,        0.0571289062,       34.0118408203,      -17.6849365234,       50.3082275391
1494294635.6545510292,       -0.7456054688,        0.1440429688,        0.0571289062,       32.8674316406,      -17.8833007812,       51.9714355469
1494294635.6571130753,       -0.7456054688,        0.1440429688,        0.0571289062,       32.8674316406,      -17.8833007812,       51.9714355469
1494294635.6596729755,       -0.7456054688,        0.1440429688,        0.0571289062,       32.9437255859,      -18.6309814453,       52.0782470703
1494294635.6624789238,       -0.7456054688,        0.1440429688,        0.0571289062,       32.9437255859,      -18.6309814453,       52.0782470703
1494294635.6651749611,       -0.7568359375,        0.1352539062,        0.1040039062,       36.3159179688,      -19.8059082031,       50.6744384766
1494294635.6678750515,       -0.7568359375,        0.1352539062,        0.1040039062,       36.3159179688,      -19.8059082031,       50.6744384766
1494294635.6705799103,       -0.7568359375,        0.1352539062,        0.1040039062,       43.0450439453,      -20.7366943359,       48.9196777344
1494294635.6732850075,       -0.7568359375,        0.1352539062,        0.1889648438,       43.0450439453,      -20.7366943359,       48.9196777344
1494294635.6759879589,       -0.7470703125,        0.1293945312,        0.1889648438,       49.9420166016,      -22.5677490234,       47.6379394531
1494294635.6786940098,       -0.7470703125,        0.1293945312,        0.1889648438,       49.9420166016,      -22.5677490234,       47.6379394531
1494294635.6814100742,       -0.7470703125,        0.1293945312,        0.1889648438,       58.4259033203,      -23.8342285156,       45.4559326172
1494294635.6841139793,       -0.7573242188,        0.1157226562,        0.2456054688,       58.4259033203,      -23.8342285156,       45.4559326172
1494294635.6868131161,       -0.7573242188,        0.1157226562,        0.2456054688,       66.0400390625,      -24.5666503906,       44.2504882812
1494294635.6895101070,       -0.7573242188,        0.1157226562,        0.2456054688,       66.0400390625,      -24.5666503906,       44.2504882812
1494294635.6921489239,       -0.7573242188,        0.1157226562,        0.2456054688,       73.7304687500,      -25.9094238281,       44.1589355469
1494294635.6947031021,       -0.7714843750,        0.0961914062,        0.2299804688,       73.7304687500,      -25.9094238281,       44.1589355469
1494294635.6972610950,       -0.7714843750,        0.0961914062,        0.2299804688,       80.6732177734,      -25.9399414062,       44.9371337891
1494294635.6998169422,       -0.7714843750,        0.0961914062,        0.2299804688,       80.6732177734,      -25.9399414062,       44.9371337891
1494294635.7024381161,       -0.7714843750,        0.0961914062,        0.2299804688,       84.5794677734,      -26.6723632812,       46.1425781250
1494294635.7049899101,       -0.8515625000,        0.0712890625,        0.1704101562,       85.3271484375,      -26.6723632812,       46.1425781250
1494294635.7075459957,       -0.8515625000,        0.0712890625,        0.1704101562,       85.3271484375,      -26.6723632812,       49.5300292969
1494294635.7101080418,       -0.8515625000,        0.0712890625,        0.1704101562,       88.5314941406,      -26.8707275391,       49.5300292969
1494294635.7128129005,       -0.8515625000,        0.0712890625,        0.1704101562,       88.5314941406,      -30.7769775391,       54.2907714844
1494294635.7154979706,       -0.7661132812,        0.1025390625,        0.1406250000,       93.4906005859,      -28.3508300781,       54.2907714844
1494294635.7182528973,       -0.7661132812,        0.1025390625,        0.1406250000,       93.4906005859,      -32.2570800781,       60.0280761719
1494294635.7213320732,       -0.7661132812,        0.1025390625,        0.1406250000,       99.8229980469,      -31.9213867188,       60.0280761719
1494294635.7240378857,       -0.7661132812,        0.0805664062,        0.1796875000,      107.6354980469,      -36.2091064453,       64.7583007812
1494294635.7268450260,       -0.7563476562,        0.0805664062,        0.1796875000,      107.8033447266,      -36.2091064453,       64.7583007812
1494294635.7295479774,       -0.7563476562,        0.0805664062,        0.1796875000,      111.7095947266,      -37.7044677734,       71.0144042969
1494294635.7322609425,       -0.7563476562,        0.0805664062,        0.1796875000,      110.7025146484,      -37.7044677734,       71.0144042969
1494294635.7349610329,       -0.8457031250,       -0.0395507812,        0.1044921875,      106.7962646484,      -35.0494384766,       80.4595947266
1494294635.7376680374,       -0.8457031250,       -0.0395507812,        0.1044921875,      107.9406738281,      -35.0494384766,       80.4595947266
1494294635.7403709888,       -0.8457031250,       -0.0395507812,        0.1044921875,      104.0344238281,      -30.3192138672,       88.6688232422
1494294635.7430789471,       -0.8457031250,       -0.0395507812,        0.1044921875,      102.3254394531,      -30.3192138672,       88.6688232422
1494294635.7457780838,       -0.9545898438,       -0.0244140625,        0.0322265625,      102.3254394531,      -24.7802734375,       97.1374511719
1494294635.7484838963,       -0.9545898438,       -0.0244140625,        0.0322265625,       93.4448242188,      -24.7802734375,       97.1374511719
1494294635.7511770725,       -0.9545898438,       -0.0244140625,        0.0322265625,       93.4448242188,      -20.0653076172,      106.8725585938
1494294635.7537400723,       -0.9545898438,       -0.0244140625,       -0.0927734375,       84.9609375000,      -20.0653076172,      106.8725585938
1494294635.7563009262,       -0.9575195312,        0.0600585938,       -0.0073242188,       84.9609375000,      -20.0653076172,      115.5090332031
1494294635.7588651180,       -0.9575195312,        0.0600585938,       -0.0073242188,       79.7576904297,      -17.7001953125,      115.5090332031
1494294635.7614340782,       -0.9575195312,        0.0600585938,       -0.0073242188,       79.7576904297,      -17.7001953125,      123.3215332031
1494294635.7639958858,       -0.9575195312,        0.0600585938,        0.0097656250,       76.6906738281,      -17.0593261719,      122.8027343750
1494294635.7665610313,       -1.0014648438,        0.1088867188,        0.0097656250,       76.6906738281,      -17.0593261719,      122.8027343750
1494294635.7691218853,       -1.0014648438,        0.1088867188,        0.0097656250,       73.8830566406,      -16.7236328125,      127.1820068359
1494294635.7718389034,       -1.0014648438,        0.1088867188,        0.0097656250,       73.8830566406,      -16.7236328125,      127.1820068359
1494294635.7743990421,       -1.0014648438,        0.1015625000,       -0.0844726562,       70.6787109375,      -16.3116455078,      132.8125000000
1494294635.7769548893,       -1.1118164062,        0.1015625000,       -0.0844726562,       70.6787109375,      -16.3116455078,      132.8125000000
1494294635.7795109749,       -1.1118164062,        0.1015625000,       -0.0844726562,       67.8405761719,      -16.8609619141,      139.8315429688
1494294635.7822840214,       -1.1118164062,        0.1015625000,       -0.0844726562,       67.8405761719,      -16.8609619141,      139.8315429688
1494294635.7849860191,       -1.1616210938,        0.0839843750,       -0.1318359375,       66.3604736328,      -17.7154541016,      146.2707519531
1494294635.7876830101,       -1.1616210938,        0.0839843750,       -0.1318359375,       66.3604736328,      -17.7154541016,      146.2707519531
1494294635.7903859615,       -1.1616210938,        0.0839843750,       -0.1318359375,       64.7735595703,      -18.6614990234,      151.2756347656
1494294635.7929599285,       -1.1616210938,        0.0839843750,       -0.1318359375,       64.7735595703,      -18.6614990234,      151.2756347656
1494294635.7955179214,       -1.2236328125,        0.0507812500,       -0.1372070312,       62.6983642578,      -19.8822021484,      157.7606201172
1494294635.7980790138,       -1.2236328125,        0.0507812500,       -0.1372070312,       62.6983642578,      -19.8822021484,      157.7606201172
1494294635.8007578850,       -1.2236328125,        0.0507812500,       -0.1372070312,       59.4940185547,      -20.8740234375,      164.1693115234
1494294635.8034648895,       -1.2236328125,        0.0507812500,       -0.1372070312,       59.4940185547,      -20.8740234375,      164.1693115234
1494294635.8061609268,       -1.2788085938,        0.0200195312,       -0.1220703125,       58.6853027344,      -21.0571289062,      171.1273193359
1494294635.8088600636,       -1.2788085938,        0.0200195312,       -0.1220703125,       58.6853027344,      -21.0571289062,      171.1273193359
1494294635.8115720749,       -1.2788085938,        0.0200195312,       -0.1220703125,       58.2885742188,      -21.8048095703,      177.5054931641
1494294635.8142719269,       -1.2788085938,        0.0200195312,       -0.0371093750,       58.2885742188,      -21.8048095703,      177.5054931641
1494294635.8169689178,       -1.3369140625,       -0.0473632812,       -0.0371093750,       58.9599609375,      -23.3154296875,      184.6618652344
1494294635.8196580410,       -1.3369140625,       -0.0473632812,       -0.0371093750,       58.9599609375,      -23.3154296875,      184.6618652344
1494294635.8223609924,       -1.3369140625,       -0.0473632812,       -0.0371093750,       63.2476806641,      -23.7579345703,      192.7032470703
1494294635.8250570297,       -1.3369140625,       -0.0942382812,        0.0175781250,       63.2476806641,      -23.7579345703,      192.7032470703
1494294635.8277540207,       -1.3881835938,       -0.0942382812,        0.0175781250,       69.3969726562,      -26.0620117188,      197.7996826172
1494294635.8304579258,       -1.3881835938,       -0.0942382812,        0.0175781250,       69.3969726562,      -26.0620117188,      197.7996826172
1494294635.8330359459,       -1.3881835938,       -0.0942382812,        0.0175781250,       77.2094726562,      -28.4576416016,      199.6002197266
1494294635.8355948925,       -1.3842773438,       -0.1967773438,        0.0678710938,       76.8737792969,      -28.4576416016,      199.6002197266
1494294635.8383240700,       -1.3842773438,       -0.1967773438,        0.0678710938,       76.8737792969,      -30.8837890625,      199.0661621094
1494294635.8413579464,       -1.3842773438,       -0.1967773438,        0.0678710938,       87.6159667969,      -30.8837890625,      199.0661621094
1494294635.8440608978,       -1.3842773438,       -0.1967773438,        0.0678710938,       99.7314453125,      -34.3170166016,      198.3489990234
1494294635.8467600346,       -1.4653320312,       -0.3818359375,        0.1010742188,       99.7314453125,      -34.3170166016,      198.3489990234
1494294635.8494620323,       -1.4653320312,       -0.3818359375,        0.1010742188,      112.1215820312,      -36.8804931641,      197.8149414062
1494294635.8521690369,       -1.4653320312,       -0.3818359375,        0.1010742188,      112.1215820312,      -36.8804931641,      197.8149414062
1494294635.8548600674,       -1.4653320312,       -0.3818359375,        0.1025390625,      125.2136230469,      -37.3535156250,      196.5026855469
1494294635.8575599194,       -1.6469726562,       -0.5815429688,        0.1025390625,      125.2136230469,      -37.3535156250,      196.5026855469
1494294635.8602619171,       -1.6469726562,       -0.5815429688,        0.1025390625,      136.9323730469,      -36.7736816406,      195.7550048828
1494294635.8629679680,       -1.6469726562,       -0.5815429688,        0.1025390625,      137.4206542969,      -36.7736816406,      195.7550048828
1494294635.8656730652,       -1.8764648438,       -0.7690429688,        0.1186523438,      153.0456542969,      -33.3709716797,      193.3593750000
1494294635.8683729172,       -1.8764648438,       -0.7690429688,        0.1186523438,      152.8320312500,      -33.3709716797,      193.3593750000
1494294635.8710589409,       -1.8764648438,       -0.7690429688,        0.1186523438,      152.8320312500,      -35.3698730469,      191.0400390625
1494294635.8736119270,       -1.8764648438,       -0.7690429688,        0.1186523438,      165.9851074219,      -35.3698730469,      191.0400390625
1494294635.8762791157,       -2.0249023438,       -0.9067382812,        0.3974609375,      165.9851074219,      -39.2761230469,      194.5800781250
1494294635.8788380623,       -2.0249023438,       -0.9067382812,        0.3974609375,      173.6602783203,      -39.5050048828,      194.5800781250
1494294635.8814039230,       -2.0249023438,       -0.9067382812,        0.3974609375,      173.6602783203,      -39.5050048828,      207.8247070312
1494294635.8839600086,       -2.0249023438,       -0.9067382812,        0.3974609375,      173.8433837891,      -40.6341552734,      207.8247070312
1494294635.8865160942,       -1.9018554688,       -0.6352539062,        0.5527343750,      173.8433837891,      -40.6341552734,      207.8247070312
1494294635.8890700340,       -1.9018554688,       -0.6352539062,        0.5527343750,      167.4804687500,      -36.6363525391,      232.4829101562
1494294635.8917601109,       -1.9018554688,       -0.6352539062,        0.5527343750,      167.4804687500,      -36.6363525391,      232.4829101562
1494294635.8943209648,       -1.9018554688,       -0.6352539062,        0.5527343750,      178.9093017578,      -20.2331542969,      251.4648437500
1494294635.8968789577,       -1.8051757812,        0.1064453125,        0.2978515625,      178.9093017578,      -20.2331542969,      251.4648437500
1494294635.8994379044,       -1.8051757812,        0.1064453125,        0.2978515625,      182.4951171875,      -14.5416259766,      250.7934570312
1494294635.9021830559,       -1.8051757812,        0.1064453125,        0.2978515625,      182.4951171875,      -14.5416259766,      250.7934570312
1494294635.9048869610,       -1.8051757812,        0.1064453125,        0.6728515625,      150.9094238281,      -27.0690917969,      234.2071533203
1494294635.9075849056,       -1.7480468750,        0.0332031250,        0.6684570312,      150.9094238281,      -27.0690917969,      234.2071533203
1494294635.9102818966,       -1.7480468750,        0.0332031250,        0.6684570312,      109.8937988281,      -39.6881103516,      216.8273925781
1494294635.9129910469,       -1.7480468750,        0.0332031250,        0.6684570312,      109.8937988281,      -39.6881103516,      216.8273925781
1494294635.9156899452,       -1.7480468750,       -0.4169921875,        1.0288085938,       79.8645019531,      -44.2504882812,      204.8339843750
1494294635.9183909893,       -1.5600585938,       -0.4169921875,        1.0288085938,       79.8645019531,      -44.2504882812,      204.8339843750
1494294635.9210779667,       -1.5600585938,       -0.4169921875,        1.0288085938,       50.9948730469,      -39.9017333984,      193.4051513672
1494294635.9236381054,       -1.5600585938,       -0.4169921875,        1.0288085938,       50.9948730469,      -39.9017333984,      193.4051513672
1494294635.9261970520,       -1.2177734375,       -0.4106445312,        1.0439453125,       21.5301513672,      -27.3132324219,      174.8352050781
1494294635.9287550449,       -1.2177734375,       -0.4106445312,        1.0439453125,       21.5301513672,      -27.3132324219,      174.8352050781
1494294635.9313640594,       -1.2177734375,       -0.4106445312,        1.0439453125,        8.5296630859,      -16.5557861328,      151.5045166016
1494294635.9339199066,       -1.2177734375,       -0.4106445312,        1.0439453125,        8.5296630859,      -16.5557861328,      151.5045166016
1494294635.9364750385,       -1.1469726562,       -0.4291992188,        0.4975585938,        8.5296630859,       -5.2947998047,      135.0555419922
1494294635.9390249252,       -1.1469726562,       -0.4291992188,        0.4975585938,        8.8500976562,       -5.2947998047,      135.0555419922
1494294635.9416759014,       -1.1469726562,       -0.4291992188,        0.4975585938,        8.8500976562,        6.4239501953,      124.1912841797
1494294635.9442300797,       -1.1469726562,       -0.4291992188,        0.4975585938,       23.8952636719,        5.7067871094,      124.1912841797
1494294635.9468889236,       -0.9711914062,       -0.1015625000,        0.1699218750,       23.8952636719,        5.7067871094,      120.5291748047
1494294635.9494500160,       -0.9711914062,       -0.1015625000,        0.1699218750,       29.8309326172,      -12.3291015625,      120.5291748047
1494294635.9521460533,       -0.9711914062,       -0.1015625000,        0.1699218750,       29.8309326172,      -12.3291015625,      110.9313964844
1494294635.9548039436,       -0.9711914062,       -0.1015625000,        0.1699218750,      -13.9923095703,      -48.2025146484,      110.9313964844
1494294635.9576570988,       -0.5341796875,        0.4394531250,        0.5327148438,      -13.9923095703,      -48.2025146484,       78.7353515625
1494294635.9607610703,       -0.5341796875,        0.4394531250,        0.5327148438,      -65.5517578125,      -53.2379150391,       78.7353515625
1494294635.9634680748,       -0.5341796875,        0.4394531250,        0.5327148438,      -65.5517578125,      -28.5949707031,       21.0266113281
1494294635.9661669731,       -0.5341796875,       -0.2187500000,        0.0200195312,      -87.4786376953,      -28.5949707031,       21.0266113281
1494294635.9688611031,       -1.0776367188,       -0.2187500000,        0.0200195312,      -87.4786376953,      -17.4407958984,      -30.5938720703
1494294635.9715321064,       -1.0776367188,       -0.2187500000,        0.0200195312,      -78.9184570312,      -17.4407958984,      -30.5938720703
1494294635.9740879536,       -1.0776367188,       -0.2187500000,        0.0200195312,      -78.9184570312,      -17.4407958984,      -60.3179931641
1494294635.9766469002,       -0.6210937500,       -0.5996093750,        0.0327148438,      -56.9152832031,      -21.4080810547,      -60.3179931641
1494294635.9792039394,       -0.6210937500,       -0.5996093750,        0.0327148438,      -56.9152832031,      -21.4080810547,      -75.9429931641
1494294635.9818260670,       -0.6210937500,       -0.5996093750,        0.0327148438,      -40.4663085938,      -21.6674804688,      -77.1179199219
1494294635.9845290184,       -0.6210937500,       -0.5996093750,        0.0327148438,      -40.4663085938,      -21.6674804688,      -92.7429199219
1494294635.9872279167,       -0.2983398438,       -0.4594726562,       -0.0532226562,      -33.5845947266,      -18.5241699219,      -91.2170410156
1494294635.9899249077,       -0.2983398438,       -0.4594726562,       -0.0532226562,      -33.5845947266,      -18.5241699219,      -91.2170410156
1494294635.9925339222,       -0.2983398438,       -0.4594726562,       -0.0532226562,      -35.9191894531,      -15.4266357422,     -104.6295166016
1494294635.9950940609,       -0.2983398438,       -0.4594726562,       -0.0532226562,      -35.9191894531,      -15.4266357422,     -104.6295166016
1494294635.9976499081,       -0.2636718750,       -0.2744140625,       -0.0805664062,      -38.8793945312,      -10.6353759766,     -116.8518066406
1494294636.0002040863,       -0.2636718750,       -0.2744140625,       -0.0805664062,      -38.8793945312,      -10.6353759766,     -116.8518066406
1494294636.0027649403,       -0.2636718750,       -0.2744140625,       -0.0805664062,      -38.3300781250,       -4.2877197266,     -127.6397705078
1494294636.0053210258,       -0.2636718750,       -0.2744140625,       -0.0805664062,      -38.3300781250,       -4.2877197266,     -127.6397705078
1494294636.0078730583,       -0.2290039062,       -0.1328125000,       -0.0737304688,      -34.6221923828,        0.0457763672,     -139.7094726562
1494294636.0104300976,       -0.2290039062,       -0.1328125000,       -0.0737304688,      -34.6221923828,        0.0457763672,     -139.7094726562
1494294636.0131530762,       -0.2290039062,       -0.1328125000,       -0.0737304688,      -29.5867919922,        2.5634765625,     -155.5480957031
1494294636.0157070160,       -0.2290039062,       -0.1328125000,       -0.0737304688,      -29.5867919922,        2.5634765625,     -155.5480957031
1494294636.0182569027,       -0.2353515625,       -0.0874023438,       -0.0991210938,      -26.3214111328,        4.9743652344,     -172.9736328125
1494294636.0210831165,       -0.2353515625,       -0.0874023438,       -0.0991210938,      -26.3214111328,        4.9743652344,     -172.9736328125
1494294636.0236370564,       -0.2353515625,       -0.0874023438,       -0.0991210938,      -26.3214111328,        7.3547363281,     -189.1021728516
1494294636.0261929035,       -0.2353515625,       -0.0874023438,       -0.1025390625,      -24.7497558594,        7.3547363281,     -189.1021728516
1494294636.0287530422,       -0.2558593750,       -0.1860351562,       -0.1025390625,      -24.7497558594,       11.2609863281,     -202.7130126953
1494294636.0313920975,       -0.2558593750,       -0.1860351562,       -0.1025390625,      -25.0396728516,        9.7503662109,     -202.7130126953
1494294636.0340940952,       -0.2558593750,       -0.1860351562,       -0.1025390625,      -25.0396728516,        9.7503662109,     -213.3789062500
1494294636.0367889404,       -0.2558593750,       -0.2661132812,       -0.0776367188,      -27.6489257812,       11.5051269531,     -213.3789062500
1494294636.0394909382,       -0.2841796875,       -0.2661132812,       -0.0776367188,      -27.6489257812,       11.5051269531,     -222.5036621094
1494294636.0422019958,       -0.2841796875,       -0.2661132812,       -0.0776367188,      -34.6527099609,       11.6577148438,     -222.5036621094
1494294636.0448989868,       -0.2841796875,       -0.2661132812,       -0.0776367188,      -34.6527099609,       11.6577148438,     -231.1553955078
1494294636.0475969315,       -0.3500976562,       -0.2700195312,       -0.0244140625,      -44.1131591797,       11.5051269531,     -231.1553955078
1494294636.0502939224,       -0.3500976562,       -0.2700195312,       -0.0244140625,      -44.1131591797,       15.4113769531,     -238.0371093750
1494294636.0529999733,       -0.3500976562,       -0.2700195312,       -0.0244140625,      -55.5725097656,       12.6190185547,     -238.0371093750
1494294636.0556979179,       -0.3500976562,       -0.2700195312,       -0.0244140625,      -55.5725097656,       12.6190185547,     -244.6136474609
1494294636.0583949089,       -0.4731445312,       -0.2338867188,       -0.0073242188,      -68.6950683594,       14.6636962891,     -244.6136474609
1494294636.0611000061,       -0.4731445312,       -0.2338867188,       -0.0073242188,      -68.6950683594,       14.6636962891,     -251.0223388672
1494294636.0637989044,       -0.4731445312,       -0.2338867188,       -0.0073242188,      -80.1696777344,       17.3797607422,     -251.0223388672
1494294636.0664970875,       -0.4731445312,       -0.2338867188,       -0.0224609375,      -80.1696777344,       17.3797607422,     -256.5155029297
1494294636.0691950321,       -0.5405273438,       -0.1835937500,       -0.0224609375,      -89.4165039062,       21.0113525391,     -256.5155029297
1494294636.0718491077,       -0.5405273438,       -0.1835937500,       -0.0224609375,      -89.4165039062,       21.0113525391,     -260.1165771484
1494294636.0744049549,       -0.5405273438,       -0.1835937500,       -0.0224609375,      -96.7864990234,       25.3906250000,     -260.1165771484
1494294636.0771629810,       -0.5405273438,       -0.1264648438,       -0.0483398438,      -96.7864990234,       25.3906250000,     -264.0228271484
1494294636.0797359943,       -0.6025390625,       -0.1264648438,       -0.0483398438,     -102.4780273438,       30.1055908203,     -263.3819580078
1494294636.0826909542,       -0.6025390625,       -0.1264648438,       -0.0483398438,     -102.4780273438,       30.1055908203,     -267.5781250000
1494294636.0853819847,       -0.6025390625,       -0.1264648438,       -0.0483398438,     -104.4616699219,       34.9273681641,     -267.5781250000
1494294636.0880711079,       -0.6738281250,       -0.0302734375,       -0.0576171875,     -104.4616699219,       34.9273681641,     -274.2462158203
1494294636.0907659531,       -0.6738281250,       -0.0302734375,       -0.0576171875,     -102.7221679688,       39.7033691406,     -274.2462158203
1494294636.0934579372,       -0.6738281250,       -0.0302734375,       -0.0576171875,     -102.7221679688,       39.7033691406,     -278.1524658203
1494294636.0962600708,       -0.6738281250,       -0.0302734375,       -0.0576171875,      -97.7783203125,       43.0603027344,     -280.3802490234
1494294636.0989530087,       -0.7446289062,        0.0708007812,       -0.0468750000,      -97.7783203125,       43.0603027344,     -287.2619628906
1494294636.1016480923,       -0.7446289062,        0.0708007812,       -0.0468750000,      -93.5821533203,       46.1578369141,     -287.2619628906
1494294636.1043059826,       -0.7446289062,        0.0708007812,       -0.0468750000,      -93.5821533203,       46.1578369141,     -295.0744628906
1494294636.1069710255,       -0.7446289062,        0.0708007812,       -0.0307617188,      -90.3015136719,       48.0346679688,     -295.2270507812
1494294636.1096339226,       -0.8129882812,        0.0908203125,       -0.0307617188,      -90.3015136719,       48.0346679688,     -303.0395507812
1494294636.1123330593,       -0.8129882812,        0.0908203125,       -0.0307617188,      -85.8917236328,       49.5910644531,     -303.6804199219
1494294636.1148889065,       -0.8129882812,        0.0908203125,       -0.0307617188,      -85.8917236328,       49.5910644531,     -303.6804199219
1494294636.1174490452,       -0.8129882812,        0.0644531250,       -0.0258789062,      -83.8623046875,       50.6896972656,     -310.8978271484
1494294636.1200120449,       -0.9111328125,        0.0644531250,       -0.0258789062,      -83.8623046875,       50.6896972656,     -310.8978271484
1494294636.1225779057,       -0.9111328125,        0.0644531250,       -0.0258789062,      -85.3271484375,       50.9643554688,     -317.1234130859
1494294636.1251349449,       -0.9111328125,        0.0644531250,       -0.0258789062,      -85.3271484375,       50.9643554688,     -317.1234130859
1494294636.1276900768,       -0.9111328125,        0.0561523438,       -0.0126953125,      -87.2650146484,       51.3763427734,     -322.4334716797
1494294636.1302480698,       -0.9902343750,        0.0561523438,       -0.0126953125,      -87.2650146484,       51.3763427734,     -322.4334716797
1494294636.1329810619,       -0.9902343750,        0.0561523438,       -0.0126953125,      -88.4857177734,       51.0711669922,     -327.5299072266
1494294636.1355431080,       -0.9902343750,        0.0561523438,       -0.0126953125,      -88.4857177734,       51.0711669922,     -327.5299072266
1494294636.1381080151,       -1.0327148438,        0.0712890625,       -0.0317382812,      -87.8906250000,       51.3305664062,     -331.9091796875
1494294636.1407880783,       -1.0327148438,        0.0712890625,       -0.0317382812,      -87.8906250000,       51.3305664062,     -331.9091796875
1494294636.1434900761,       -1.0327148438,        0.0712890625,       -0.0317382812,      -87.1734619141,       50.9033203125,     -336.5173339844
1494294636.1461899281,       -1.0327148438,        0.0712890625,       -0.0317382812,      -87.1734619141,       50.9033203125,     -336.5173339844
1494294636.1488831043,       -1.0913085938,        0.0698242188,       -0.0146484375,      -87.7990722656,       49.2095947266,     -341.1712646484
1494294636.1515860558,       -1.0913085938,        0.0698242188,       -0.0146484375,      -87.7990722656,       49.2095947266,     -341.1712646484
1494294636.1542820930,       -1.0913085938,        0.0698242188,       -0.0146484375,      -86.9903564453,       47.9583740234,     -344.6655273438
1494294636.1569800377,       -1.0913085938,        0.0698242188,       -0.0146484375,      -86.9903564453,       47.9583740234,     -344.6655273438
1494294636.1596839428,       -1.1831054688,        0.0849609375,        0.0283203125,      -86.4562988281,       46.1425781250,     -347.2290039062
1494294636.1623940468,       -1.1831054688,        0.0849609375,        0.0283203125,      -86.4562988281,       46.1425781250,     -347.2290039062
1494294636.1650869846,       -1.1831054688,        0.0849609375,        0.0283203125,      -82.5500488281,       44.0216064453,     -350.1434326172
1494294636.1678850651,       -1.1831054688,        0.1909179688,        0.0888671875,      -85.0524902344,       44.0216064453,     -350.1434326172
1494294636.1705849171,       -1.3271484375,        0.1909179688,        0.0888671875,      -81.1462402344,       43.3502197266,     -353.3630371094
1494294636.1731519699,       -1.3271484375,        0.1909179688,        0.0888671875,      -79.9255371094,       43.3502197266,     -353.3630371094
1494294636.1757049561,       -1.3271484375,        0.1909179688,        0.0888671875,      -79.9255371094,       39.4439697266,     -356.2011718750
1494294636.1782560349,       -1.4521484375,        0.3339843750,        0.1293945312,      -71.4263916016,       41.5954589844,     -356.2011718750
1494294636.1808149815,       -1.4584960938,        0.3339843750,        0.1293945312,      -71.4263916016,       41.5954589844,     -359.4818115234
1494294636.1835179329,       -1.4584960938,        0.3339843750,        0.1293945312,      -61.6455078125,       40.1916503906,     -359.4818115234
1494294636.1862161160,       -1.4584960938,        0.3339843750,        0.1293945312,      -61.6455078125,       40.1916503906,     -363.6627197266
