time_stamp before, Acceleration x, Acceleration y, Acceleration z, Gyro x, Gyro y, Gyro z
1494294552.0975511074,       -0.7807617188,        0.1372070312,        0.1440429688,       50.0183105469,      -21.7895507812,       80.7189941406
1494294552.1049940586,       -0.7807617188,        0.1372070312,        0.1440429688,       54.7637939453,      -22.2778320312,       80.7189941406
1494294552.1080620289,       -0.7807617188,        0.1196289062,        0.2099609375,       59.5397949219,      -20.8129882812,       83.6791992188
1494294552.1106989384,       -0.8247070312,        0.1196289062,        0.2099609375,       59.5397949219,      -20.8129882812,       83.6791992188
1494294552.1133940220,       -0.8247070312,        0.1196289062,        0.2099609375,       61.7218017578,      -20.1416015625,       87.2497558594
1494294552.1160860062,       -0.8247070312,        0.1196289062,        0.2099609375,       61.7218017578,      -20.1416015625,       87.2497558594
1494294552.1187670231,       -0.8261718750,        0.0991210938,        0.2236328125,       64.3157958984,      -19.6228027344,       90.8966064453
1494294552.1214690208,       -0.8261718750,        0.0991210938,        0.2236328125,       64.3157958984,      -19.6228027344,       90.8966064453
1494294552.1241650581,       -0.8261718750,        0.0991210938,        0.2236328125,       66.3909912109,      -18.2342529297,       95.5963134766
1494294552.1268548965,       -0.8261718750,        0.0991210938,        0.2236328125,       66.3909912109,      -18.2342529297,       95.5963134766
1494294552.1295459270,       -0.8374023438,        0.1162109375,        0.2231445312,       67.5354003906,      -17.7612304688,       99.8077392578
1494294552.1321749687,       -0.8374023438,        0.1162109375,        0.2231445312,       67.5354003906,      -17.7612304688,       99.8077392578
1494294552.1347289085,       -0.8374023438,        0.1162109375,        0.2231445312,       67.5354003906,      -17.5170898438,      103.5308837891
1494294552.1372859478,       -0.8374023438,        0.1162109375,        0.2231445312,       68.9392089844,      -17.5170898438,      103.5308837891
1494294552.1398360729,       -0.8486328125,        0.1547851562,        0.1708984375,       68.9392089844,      -17.5170898438,      107.1319580078
1494294552.1424660683,       -0.8486328125,        0.1547851562,        0.1708984375,       70.0836181641,      -18.0816650391,      107.1319580078
1494294552.1450150013,       -0.8486328125,        0.1547851562,        0.1708984375,       70.0836181641,      -18.0816650391,      107.1319580078
1494294552.1475639343,       -0.8486328125,        0.1547851562,        0.1708984375,       70.0836181641,      -17.5018310547,      109.0240478516
1494294552.1501200199,       -0.9125976562,        0.1796875000,        0.1220703125,       70.0836181641,      -17.5018310547,      109.0240478516
1494294552.1529150009,       -0.9125976562,        0.1796875000,        0.1220703125,       69.2138671875,      -16.1743164062,      111.6027832031
1494294552.1556150913,       -0.9125976562,        0.1796875000,        0.1220703125,       69.2138671875,      -16.1743164062,      111.6027832031
1494294552.1583170891,       -0.9125976562,        0.1796875000,        0.0922851562,       66.8640136719,      -14.1296386719,      114.4409179688
1494294552.1610240936,       -0.9833984375,        0.1855468750,        0.0922851562,       66.8640136719,      -14.1296386719,      114.4409179688
1494294552.1637248993,       -0.9833984375,        0.1855468750,        0.0922851562,       66.4978027344,      -11.6729736328,      117.1264648438
1494294552.1664218903,       -0.9833984375,        0.1855468750,        0.0922851562,       66.4978027344,      -11.6729736328,      117.1264648438
1494294552.1691229343,       -1.0800781250,        0.1840820312,        0.0913085938,       65.0939941406,      -10.4217529297,      118.5150146484
1494294552.1718370914,       -1.0800781250,        0.1840820312,        0.0913085938,       65.0939941406,      -10.4217529297,      118.5150146484
1494294552.1745409966,       -1.0800781250,        0.1840820312,        0.0913085938,       61.0656738281,       -8.5449218750,      118.3776855469
1494294552.1773989201,       -1.0800781250,        0.1840820312,        0.0913085938,       61.0656738281,       -8.5449218750,      118.3776855469
1494294552.1801090240,       -1.1166992188,        0.1459960938,        0.0727539062,       59.0362548828,       -7.3547363281,      120.2697753906
1494294552.1828179359,       -1.1166992188,        0.1459960938,        0.0727539062,       59.0362548828,       -7.3547363281,      120.2697753906
1494294552.1855199337,       -1.1166992188,        0.1459960938,        0.0727539062,       60.7757568359,       -8.7890625000,      122.6043701172
1494294552.1882140636,       -1.1166992188,        0.1459960938,        0.1000976562,       60.7757568359,       -8.7890625000,      122.6043701172
1494294552.1909439564,       -1.1210937500,        0.2260742188,        0.1000976562,       61.1724853516,      -10.8642578125,      124.7711181641
1494294552.1935110092,       -1.1210937500,        0.2260742188,        0.1000976562,       61.1724853516,      -10.8642578125,      124.7711181641
1494294552.1960690022,       -1.1210937500,        0.2260742188,        0.1000976562,       62.5762939453,      -13.7481689453,      127.2125244141
1494294552.1986260414,       -1.1210937500,        0.2260742188,        0.0356445312,       62.5762939453,      -13.7481689453,      127.2125244141
1494294552.2012228966,       -1.1191406250,        0.1967773438,        0.0356445312,       68.0236816406,      -16.7694091797,      128.5247802734
1494294552.2039198875,       -1.1191406250,        0.1967773438,        0.0356445312,       68.0236816406,      -16.7694091797,      128.5247802734
1494294552.2066409588,       -1.1191406250,        0.1967773438,        0.0356445312,       73.5321044922,      -19.5922851562,      130.2337646484
1494294552.2093501091,       -1.1875000000,        0.1669921875,        0.0122070312,       73.5321044922,      -19.5922851562,      130.2337646484
1494294552.2120609283,       -1.1875000000,        0.1669921875,        0.0122070312,       77.2552490234,      -20.8282470703,      135.1470947266
1494294552.2147591114,       -1.1875000000,        0.1669921875,        0.0122070312,       77.2552490234,      -20.8282470703,      135.1470947266
1494294552.2174520493,       -1.1875000000,        0.1669921875,        0.0122070312,       79.2846679688,      -20.4772949219,      140.6097412109
1494294552.2201509476,       -1.2949218750,        0.1206054688,        0.0068359375,       79.2846679688,      -20.4772949219,      140.6097412109
1494294552.2228660583,       -1.2949218750,        0.1206054688,        0.0068359375,       82.1228027344,      -19.7753906250,      143.0358886719
1494294552.2255721092,       -1.2949218750,        0.1206054688,        0.0068359375,       82.1228027344,      -19.7753906250,      143.0358886719
1494294552.2282769680,       -1.2949218750,        0.1206054688,        0.0068359375,       84.5947265625,      -19.4702148438,      144.3328857422
1494294552.2309899330,       -1.3828125000,       -0.0092773438,        0.0473632812,       84.5947265625,      -19.4702148438,      144.3328857422
1494294552.2336819172,       -1.3828125000,       -0.0092773438,        0.0473632812,       86.7309570312,      -19.4549560547,      146.0876464844
1494294552.2363789082,       -1.3828125000,       -0.0092773438,        0.0473632812,       86.7309570312,      -19.4549560547,      146.0876464844
1494294552.2390770912,       -1.3828125000,       -0.1582031250,        0.0703125000,       88.6230468750,      -20.9045410156,      149.4140625000
1494294552.2417418957,       -1.4252929688,       -0.1582031250,        0.0703125000,       88.6230468750,      -20.9045410156,      149.4140625000
1494294552.2442989349,       -1.4252929688,       -0.1582031250,        0.0703125000,       90.9271240234,      -21.8658447266,      151.5350341797
1494294552.2468578815,       -1.4252929688,       -0.1582031250,        0.0703125000,       90.9271240234,      -21.8658447266,      151.5350341797
1494294552.2495260239,       -1.4252929688,       -0.2622070312,        0.0605468750,       95.4132080078,      -22.7508544922,      152.6031494141
1494294552.2522289753,       -1.4707031250,       -0.2622070312,        0.0605468750,       95.4132080078,      -22.7508544922,      152.6031494141
1494294552.2547910213,       -1.4707031250,       -0.2622070312,        0.0605468750,      103.8665771484,      -22.2473144531,      151.5502929688
1494294552.2574648857,       -1.4707031250,       -0.2622070312,        0.0605468750,      103.8665771484,      -22.2473144531,      151.5502929688
1494294552.2600250244,       -1.5932617188,       -0.3530273438,        0.0537109375,      115.5853271484,      -19.5465087891,      150.2227783203
1494294552.2627129555,       -1.5932617188,       -0.3530273438,        0.0537109375,      115.8752441406,      -19.5465087891,      150.2227783203
1494294552.2652759552,       -1.5932617188,       -0.3530273438,        0.0537109375,      115.8752441406,      -19.5465087891,      150.5889892578
1494294552.2678349018,       -1.5932617188,       -0.3530273438,        0.0537109375,      125.6103515625,      -22.9492187500,      150.5889892578
1494294552.2703969479,       -1.6669921875,       -0.5117187500,        0.2075195312,      125.6103515625,      -22.9492187500,      152.4353027344
1494294552.2731709480,       -1.6669921875,       -0.5117187500,        0.2075195312,      140.0299072266,      -26.3366699219,      152.4353027344
1494294552.2758290768,       -1.6669921875,       -0.5117187500,        0.2075195312,      140.0299072266,      -26.3366699219,      155.9448242188
1494294552.2785670757,       -1.6669921875,       -0.5117187500,        0.2075195312,      151.8554687500,      -29.2205810547,      155.9448242188
1494294552.2818470001,       -1.6303710938,       -0.6088867188,        0.4296875000,      151.8554687500,      -33.8592529297,      162.9638671875
1494294552.2845520973,       -1.6303710938,       -0.6088867188,        0.4296875000,      152.2521972656,      -33.8592529297,      162.9638671875
1494294552.2872500420,       -1.6303710938,       -0.6088867188,        0.4296875000,      144.4396972656,      -32.1044921875,      176.6052246094
1494294552.2899479866,       -1.4467773438,       -0.3872070312,        0.5126953125,      142.1356201172,      -32.1044921875,      176.6052246094
1494294552.2925670147,       -1.4467773438,       -0.3872070312,        0.5126953125,      142.1356201172,      -19.7601318359,      193.8476562500
1494294552.2951269150,       -1.4467773438,       -0.3872070312,        0.5126953125,      135.1928710938,      -19.7601318359,      193.8476562500
1494294552.2976880074,       -1.4467773438,       -0.3872070312,        0.5126953125,      135.1928710938,      -19.7601318359,      201.5686035156
1494294552.3002440929,       -1.3159179688,       -0.0190429688,        0.3583984375,      122.5280761719,      -11.4288330078,      201.5686035156
1494294552.3030331135,       -1.3159179688,       -0.0190429688,        0.3583984375,      122.5280761719,      -11.4288330078,      198.9440917969
1494294552.3055920601,       -1.3159179688,       -0.0190429688,        0.3583984375,       97.5341796875,      -10.9558105469,      198.9440917969
1494294552.3081479073,       -1.3159179688,       -0.0190429688,        0.3583984375,       97.5341796875,      -10.9558105469,      198.9440917969
1494294552.3107299805,       -1.3066406250,       -0.0439453125,        0.3701171875,       73.2879638672,      -14.7399902344,      190.2465820312
1494294552.3132889271,       -1.3066406250,       -0.0439453125,        0.3701171875,       73.2879638672,      -14.7399902344,      190.2465820312
1494294552.3158419132,       -1.3066406250,       -0.0439453125,        0.3701171875,       51.4221191406,      -18.0511474609,      180.9234619141
1494294552.3184039593,       -1.3066406250,       -0.0439453125,        0.3701171875,       51.4221191406,      -18.0511474609,      180.9234619141
1494294552.3210139275,       -1.2060546875,       -0.1972656250,        0.5493164062,       33.2031250000,      -20.1721191406,      169.6319580078
1494294552.3236811161,       -1.2060546875,       -0.1972656250,        0.5493164062,       33.2031250000,      -20.1721191406,      169.6319580078
1494294552.3262469769,       -1.2060546875,       -0.1972656250,        0.5493164062,       21.8963623047,      -17.2729492188,      156.0974121094
1494294552.3288040161,       -1.2060546875,       -0.1972656250,        0.5493164062,       21.8963623047,      -17.2729492188,      156.0974121094
1494294552.3314990997,       -1.0200195312,       -0.1850585938,        0.6000976562,       15.5792236328,      -18.6614990234,      145.9045410156
1494294552.3340520859,       -1.0200195312,       -0.1850585938,        0.6000976562,       15.5792236328,      -18.6614990234,      145.9045410156
1494294552.3366088867,       -1.0200195312,       -0.1850585938,        0.6000976562,       14.3737792969,      -24.6276855469,      132.8277587891
1494294552.3391690254,       -1.0200195312,       -0.1850585938,        0.6000976562,       14.3737792969,      -24.6276855469,      132.8277587891
1494294552.3418641090,       -0.9091796875,       -0.2133789062,        0.3940429688,       22.1862792969,      -29.9835205078,      113.5253906250
1494294552.3444159031,       -0.9091796875,       -0.2133789062,        0.3940429688,       21.2707519531,      -29.9835205078,      113.5253906250
1494294552.3469738960,       -0.9091796875,       -0.2133789062,        0.3940429688,       21.2707519531,      -29.9835205078,       97.0001220703
1494294552.3495199680,       -0.9091796875,       -0.2133789062,        0.1440429688,       33.8745117188,      -30.4412841797,       97.0001220703
1494294552.3521499634,       -0.8466796875,       -0.1582031250,        0.1586914062,       33.8745117188,      -30.4412841797,       84.8388671875
1494294552.3547089100,       -0.8466796875,       -0.1582031250,        0.1586914062,       47.9125976562,      -25.8789062500,       84.8388671875
1494294552.3572609425,       -0.8466796875,       -0.1582031250,        0.1586914062,       47.9125976562,      -25.8789062500,       80.9326171875
1494294552.3598170280,       -0.8466796875,       -0.1582031250,        0.1928710938,       57.6782226562,      -27.7862548828,       81.8481445312
1494294552.3624999523,       -0.7138671875,        0.2993164062,        0.1928710938,       57.6782226562,      -27.7862548828,       81.8481445312
1494294552.3650560379,       -0.7138671875,        0.2993164062,        0.1928710938,       48.7823486328,      -47.7294921875,       77.5146484375
1494294552.3676149845,       -0.7138671875,        0.2993164062,        0.1928710938,       48.7823486328,      -47.7294921875,       77.5146484375
1494294552.3701701164,       -0.7138671875,        0.3330078125,        0.3715820312,       28.8391113281,      -66.4825439453,       56.2438964844
1494294552.3727309704,       -0.5346679688,        0.3330078125,        0.3715820312,       28.8391113281,      -66.4825439453,       56.2438964844
1494294552.3752861023,       -0.5346679688,        0.3330078125,        0.3715820312,       18.7835693359,      -56.9305419922,       19.7448730469
1494294552.3778409958,       -0.5346679688,        0.3330078125,        0.3715820312,       18.7835693359,      -56.9305419922,       19.7448730469
1494294552.3803989887,       -0.5346679688,       -0.2744140625,       -0.0224609375,       22.2473144531,      -36.3616943359,      -21.6674804688
1494294552.3829550743,       -0.8393554688,       -0.2744140625,       -0.0224609375,       22.2473144531,      -36.3616943359,      -21.6674804688
1494294552.3855059147,       -0.8393554688,       -0.2744140625,       -0.0224609375,       29.1290283203,      -31.2194824219,      -59.6466064453
1494294552.3880620003,       -0.8393554688,       -0.2744140625,       -0.0224609375,       29.1290283203,      -31.2194824219,      -59.6466064453
1494294552.3906109333,       -0.5893554688,       -0.5546875000,       -0.0449218750,       33.0352783203,      -32.6538085938,      -84.5184326172
1494294552.3933339119,       -0.5014648438,       -0.5546875000,       -0.0449218750,       31.5856933594,      -32.6538085938,      -84.5184326172
1494294552.3960199356,       -0.5014648438,       -0.5546875000,       -0.0449218750,       31.5856933594,      -30.0750732422,      -97.5341796875
1494294552.3986248970,       -0.5014648438,       -0.5546875000,       -0.0449218750,       30.7922363281,      -30.0750732422,      -97.5341796875
1494294552.4012160301,       -0.2470703125,       -0.6699218750,       -0.0585937500,       30.7922363281,      -26.1688232422,     -105.0415039062
1494294552.4039158821,       -0.2470703125,       -0.6699218750,       -0.0585937500,       26.7028808594,      -27.3284912109,     -105.0415039062
1494294552.4066190720,       -0.2470703125,       -0.6699218750,       -0.0585937500,       26.7028808594,      -27.3284912109,     -111.0229492188
1494294552.4093170166,       -0.2470703125,       -0.6699218750,       -0.0585937500,       18.5852050781,      -25.7110595703,     -111.0229492188
1494294552.4120209217,       -0.1938476562,       -0.4653320312,       -0.0927734375,       18.5852050781,      -25.7110595703,     -117.1264648438
1494294552.4147260189,       -0.1938476562,       -0.4653320312,       -0.0927734375,        9.2163085938,      -24.6887207031,     -117.1264648438
1494294552.4174211025,       -0.1938476562,       -0.4653320312,       -0.0927734375,        9.2163085938,      -24.6887207031,     -124.8779296875
1494294552.4201118946,       -0.1938476562,       -0.4653320312,       -0.0878906250,        1.0986328125,      -24.4903564453,     -124.8779296875
1494294552.4228210449,       -0.2475585938,       -0.2036132812,       -0.0878906250,        1.0986328125,      -24.4903564453,     -135.2691650391
1494294552.4255099297,       -0.2475585938,       -0.2036132812,       -0.0878906250,       -4.3640136719,      -24.1851806641,     -135.2691650391
1494294552.4282050133,       -0.2475585938,       -0.2036132812,       -0.0878906250,       -4.3640136719,      -24.1851806641,     -147.9797363281
1494294552.4309349060,       -0.2475585938,       -0.1069335938,       -0.0556640625,       -7.6751708984,      -23.8952636719,     -147.9797363281
1494294552.4334959984,       -0.3242187500,       -0.1069335938,       -0.0556640625,       -7.6751708984,      -23.8952636719,     -163.6047363281
1494294552.4360558987,       -0.3242187500,       -0.1069335938,       -0.0556640625,       -9.5825195312,      -22.8576660156,     -160.4766845703
1494294552.4386088848,       -0.3242187500,       -0.1069335938,       -0.0556640625,       -9.5825195312,      -22.8576660156,     -160.4766845703
1494294552.4412720203,       -0.3476562500,       -0.1166992188,       -0.0122070312,      -11.8255615234,      -21.4843750000,     -171.1425781250
1494294552.4438319206,       -0.3476562500,       -0.1166992188,       -0.0122070312,      -11.8255615234,      -21.4843750000,     -171.1425781250
1494294552.4463939667,       -0.3476562500,       -0.1166992188,       -0.0122070312,      -15.5181884766,      -19.9432373047,     -180.5114746094
1494294552.4489490986,       -0.3476562500,       -0.1166992188,       -0.0122070312,      -15.5181884766,      -19.9432373047,     -180.5114746094
1494294552.4516899586,       -0.3642578125,       -0.1103515625,        0.0307617188,      -21.8505859375,      -17.7307128906,     -189.6209716797
1494294552.4543941021,       -0.3642578125,       -0.1103515625,        0.0307617188,      -21.8505859375,      -17.7307128906,     -189.6209716797
1494294552.4570999146,       -0.3642578125,       -0.1103515625,        0.0307617188,      -29.6478271484,      -15.6555175781,     -198.5321044922
1494294552.4597980976,       -0.3642578125,       -0.1103515625,        0.0307617188,      -29.6478271484,      -15.6555175781,     -198.5321044922
1494294552.4624989033,       -0.3964843750,       -0.0844726562,        0.0356445312,      -37.4603271484,      -13.5498046875,     -207.3822021484
1494294552.4651980400,       -0.3964843750,       -0.0844726562,        0.0356445312,      -37.4603271484,      -13.5498046875,     -207.3822021484
1494294552.4680008888,       -0.3964843750,       -0.0844726562,        0.0356445312,      -46.9207763672,      -11.0015869141,     -216.2933349609
1494294552.4710249901,       -0.3964843750,       -0.0742187500,        0.0263671875,      -46.9207763672,      -11.0015869141,     -216.2933349609
1494294552.4736840725,       -0.4638671875,       -0.0742187500,        0.0263671875,      -56.0455322266,       -8.2702636719,     -224.9908447266
1494294552.4764180183,       -0.4638671875,       -0.0742187500,        0.0263671875,      -56.0455322266,       -8.2702636719,     -224.9908447266
1494294552.4790749550,       -0.4638671875,       -0.0742187500,        0.0263671875,      -64.1632080078,       -5.7220458984,     -235.1379394531
1494294552.4818820953,       -0.5200195312,       -0.0756835938,       -0.0107421875,      -64.1632080078,       -5.7220458984,     -235.1379394531
1494294552.4844388962,       -0.5200195312,       -0.0756835938,       -0.0107421875,      -70.6939697266,       -3.1585693359,     -245.1782226562
1494294552.4870049953,       -0.5200195312,       -0.0756835938,       -0.0107421875,      -70.6939697266,       -3.1585693359,     -245.1782226562
1494294552.4895548820,       -0.5200195312,       -0.0756835938,       -0.0107421875,      -73.6541748047,        0.0000000000,     -253.4027099609
1494294552.4922039509,       -0.5996093750,       -0.1020507812,       -0.0297851562,      -73.6541748047,        0.0000000000,     -253.4027099609
1494294552.4949018955,       -0.5996093750,       -0.1020507812,       -0.0297851562,      -75.7751464844,        2.9449462891,     -261.1541748047
1494294552.4976000786,       -0.5996093750,       -0.1020507812,       -0.0297851562,      -75.7751464844,        2.9449462891,     -261.1541748047
1494294552.5003039837,       -0.5996093750,       -0.1020507812,       -0.0297851562,      -78.7506103516,        5.3405761719,     -267.3034667969
1494294552.5030078888,       -0.6572265625,       -0.0961914062,       -0.0458984375,      -78.7506103516,        5.3405761719,     -267.3034667969
1494294552.5057070255,       -0.6572265625,       -0.0961914062,       -0.0458984375,      -81.8328857422,        7.3852539062,     -272.3693847656
1494294552.5084040165,       -0.6572265625,       -0.0961914062,       -0.0458984375,      -81.8328857422,        7.3852539062,     -272.3693847656
1494294552.5111229420,       -0.6572265625,       -0.0961914062,       -0.0332031250,      -84.1522216797,        9.8724365234,     -276.9622802734
1494294552.5136740208,       -0.7265625000,       -0.0512695312,       -0.0332031250,      -84.1522216797,        9.8724365234,     -276.9622802734
1494294552.5162310600,       -0.7265625000,       -0.0512695312,       -0.0332031250,      -87.0819091797,       11.5966796875,     -281.9519042969
1494294552.5187919140,       -0.7265625000,       -0.0512695312,       -0.0332031250,      -87.0819091797,       11.5966796875,     -281.9519042969
1494294552.5213730335,       -0.7265625000,        0.0737304688,       -0.0107421875,      -87.0819091797,       13.2751464844,     -286.8347167969
1494294552.5239291191,       -0.7895507812,        0.0185546875,       -0.0107421875,      -89.0197753906,       13.2751464844,     -286.8347167969
1494294552.5264809132,       -0.7895507812,        0.0185546875,       -0.0107421875,      -89.0197753906,       13.2751464844,     -291.3665771484
1494294552.5290429592,       -0.7895507812,        0.0185546875,       -0.0107421875,      -91.3543701172,       14.6026611328,     -291.3665771484
1494294552.5316970348,       -0.7895507812,        0.0971679688,        0.0185546875,      -91.3543701172,       14.6026611328,     -296.2341308594
1494294552.5342569351,       -0.8828125000,        0.0971679688,        0.0185546875,      -92.7276611328,       16.1285400391,     -296.2341308594
1494294552.5368180275,       -0.8828125000,        0.0971679688,        0.0185546875,      -92.7276611328,       16.1285400391,     -304.0466308594
1494294552.5393779278,       -0.8828125000,        0.0971679688,        0.0185546875,      -92.6971435547,       16.8457031250,     -301.2847900391
1494294552.5422379971,       -0.9570312500,        0.1777343750,        0.0356445312,      -92.6971435547,       16.8457031250,     -305.1910400391
1494294552.5449409485,       -0.9570312500,        0.1777343750,        0.0356445312,      -92.8955078125,       17.1508789062,     -305.6640625000
1494294552.5476388931,       -0.9570312500,        0.1777343750,        0.0356445312,      -92.8955078125,       17.1508789062,     -309.5703125000
1494294552.5503458977,       -0.9570312500,        0.1777343750,        0.0356445312,      -92.6818847656,       17.2119140625,     -310.3332519531
1494294552.5530610085,       -1.0229492188,        0.2133789062,        0.0317382812,      -92.6818847656,       17.2119140625,     -314.2395019531
1494294552.5557620525,       -1.0229492188,        0.2133789062,        0.0317382812,      -91.6137695312,       18.1884765625,     -315.7958984375
1494294552.5584650040,       -1.0229492188,        0.2133789062,        0.0317382812,      -91.6137695312,       18.1884765625,     -323.6083984375
1494294552.5611739159,       -1.0229492188,        0.2133789062,        0.0317382812,      -89.5385742188,       18.9208984375,     -320.6634521484
1494294552.5638790131,       -1.1079101562,        0.2065429688,        0.0253906250,      -89.5385742188,       18.9208984375,     -320.6634521484
1494294552.5665800571,       -1.1079101562,        0.2065429688,        0.0253906250,      -87.4786376953,       19.2871093750,     -324.7680664062
1494294552.5692770481,       -1.1079101562,        0.2065429688,        0.0253906250,      -87.4786376953,       19.2871093750,     -324.7680664062
1494294552.5719261169,       -1.1079101562,        0.1923828125,        0.0380859375,      -84.9151611328,       19.6990966797,     -327.9876708984
1494294552.5744860172,       -1.2143554688,        0.1923828125,        0.0380859375,      -84.9151611328,       19.6990966797,     -327.9876708984
1494294552.5770449638,       -1.2143554688,        0.1923828125,        0.0380859375,      -82.7026367188,       20.3399658203,     -330.8258056641
1494294552.5796070099,       -1.2143554688,        0.1923828125,        0.0380859375,      -82.7026367188,       20.3399658203,     -330.8258056641
1494294552.5822749138,       -1.3393554688,        0.1743164062,        0.0805664062,      -81.8328857422,       20.2636718750,     -332.4279785156
1494294552.5848400593,       -1.3076171875,        0.1743164062,        0.0805664062,      -81.8328857422,       20.2636718750,     -332.4279785156
1494294552.5873959064,       -1.3076171875,        0.1743164062,        0.0805664062,      -80.8868408203,       20.0805664062,     -333.2366943359
1494294552.5899519920,       -1.3076171875,        0.1743164062,        0.0805664062,      -80.8868408203,       20.0805664062,     -333.2366943359
1494294552.5926930904,       -1.4145507812,        0.1855468750,        0.1401367188,      -79.6508789062,       19.0887451172,     -333.0535888672
1494294552.5953459740,       -1.4145507812,        0.1855468750,        0.1401367188,      -79.6508789062,       19.0887451172,     -333.0535888672
1494294552.5982151031,       -1.4145507812,        0.1855468750,        0.1401367188,      -76.7669677734,       17.1966552734,     -331.7871093750
1494294552.6013529301,       -1.4145507812,        0.1855468750,        0.1401367188,      -76.7669677734,       17.1966552734,     -331.7871093750
1494294552.6040489674,       -1.5659179688,        0.3515625000,        0.2290039062,      -66.2231445312,       17.5628662109,     -329.8034667969
1494294552.6067519188,       -1.5659179688,        0.3515625000,        0.2290039062,      -66.2231445312,       17.5628662109,     -329.8034667969
1494294552.6094510555,       -1.5659179688,        0.3515625000,        0.2290039062,      -51.4984130859,       20.7977294922,     -328.9337158203
1494294552.6121699810,       -1.5659179688,        0.6015625000,        0.1914062500,      -51.4984130859,       20.7977294922,     -328.9337158203
1494294552.6148710251,       -1.6518554688,        0.5839843750,        0.1914062500,      -42.0684814453,       20.7366943359,     -328.1707763672
1494294552.6176791191,       -1.6518554688,        0.5839843750,        0.1914062500,      -42.0684814453,       20.7366943359,     -328.1707763672
1494294552.6203830242,       -1.6518554688,        0.5839843750,        0.1914062500,      -36.6210937500,       18.6157226562,     -326.5380859375
1494294552.6230819225,       -1.7211914062,        0.7358398438,        0.2392578125,      -36.6210937500,       18.6157226562,     -326.5380859375
1494294552.6257789135,       -1.7211914062,        0.7358398438,        0.2392578125,      -34.2712402344,       18.2342529297,     -321.8994140625
1494294552.6284821033,       -1.7211914062,        0.7358398438,        0.2392578125,      -34.2712402344,       18.2342529297,     -321.8994140625
1494294552.6311740875,       -1.7211914062,        0.7358398438,        0.2392578125,      -35.6750488281,       18.6614990234,     -315.6280517578
1494294552.6337320805,       -1.7514648438,        0.7797851562,        0.2641601562,      -35.6750488281,       18.6614990234,     -315.6280517578
1494294552.6362888813,       -1.7514648438,        0.7797851562,        0.2641601562,      -42.6483154297,       19.3023681641,     -305.0231933594
1494294552.6388480663,       -1.7514648438,        0.7797851562,        0.2641601562,      -42.6483154297,       19.3023681641,     -305.0231933594
1494294552.6414170265,       -1.7514648438,        0.7797851562,        0.2641601562,      -53.4515380859,       21.6217041016,     -290.2221679688
1494294552.6439800262,       -1.7275390625,        0.7651367188,        0.2270507812,      -53.4515380859,       21.6217041016,     -290.2221679688
1494294552.6465370655,       -1.7275390625,        0.7651367188,        0.2270507812,      -69.0765380859,       22.7661132812,     -271.1486816406
1494294552.6491010189,       -1.7275390625,        0.7651367188,        0.2270507812,      -66.7877197266,       22.7661132812,     -271.1486816406
1494294552.6518321037,       -1.7275390625,        0.7651367188,        0.2270507812,      -66.7877197266,       22.3846435547,     -248.7792968750
1494294552.6543869972,       -1.6069335938,        0.8535156250,        0.2426757812,      -83.8165283203,       22.3846435547,     -248.7792968750
1494294552.6569449902,       -1.6069335938,        0.8535156250,        0.2426757812,      -83.8165283203,       22.3846435547,     -224.3041992188
1494294552.6594960690,       -1.6069335938,        0.8535156250,        0.2426757812,     -102.8747558594,       18.3715820312,     -224.3041992188
1494294552.6622869968,       -1.6069335938,        0.8535156250,        0.5859375000,     -102.8747558594,       18.3715820312,     -200.9887695312
1494294552.6649820805,       -1.3144531250,        1.2714843750,        0.5859375000,     -116.7907714844,       11.3067626953,     -200.9887695312
1494294552.6676769257,       -1.3144531250,        1.2714843750,        0.5859375000,     -116.7907714844,       11.3067626953,     -179.5959472656
1494294552.6703789234,       -1.3144531250,        1.2714843750,        0.5859375000,     -122.3449707031,        9.0789794922,     -179.5959472656
1494294552.6730709076,       -0.9394531250,        1.9877929688,        0.6259765625,     -122.3449707031,        9.0789794922,     -155.6854248047
1494294552.6757669449,       -0.8955078125,        1.9877929688,        0.6259765625,     -124.8931884766,        1.4801025391,     -155.6854248047
1494294552.6784579754,       -0.8955078125,        1.9877929688,        0.6259765625,     -124.8931884766,        1.4801025391,     -127.2125244141
1494294552.6811380386,       -0.8955078125,        1.9877929688,        0.6259765625,     -119.4763183594,      -11.1236572266,     -127.2125244141
1494294552.6836979389,       -0.6015625000,        2.6650390625,        0.3730468750,     -119.4763183594,      -11.1236572266,     -127.2125244141
1494294552.6862540245,       -0.6015625000,        2.6650390625,        0.3730468750,      -96.6339111328,      -20.2636718750,      -92.9412841797
1494294552.6889181137,       -0.6015625000,        2.6650390625,        0.3730468750,      -96.6339111328,      -20.2636718750,      -92.9412841797
1494294552.6915740967,       -0.6015625000,        2.6650390625,        0.3730468750,      -63.0493164062,      -26.0162353516,      -57.1289062500
1494294552.6942720413,       -0.6396484375,        2.6645507812,        0.1352539062,      -63.0493164062,      -26.0162353516,      -57.1289062500
1494294552.6969718933,       -0.6396484375,        2.6645507812,        0.1352539062,      -35.9344482422,      -30.4718017578,      -18.0358886719
1494294552.6996679306,       -0.6396484375,        2.6645507812,        0.1352539062,      -35.9344482422,      -30.4718017578,      -18.0358886719
1494294552.7023780346,       -0.6396484375,        2.6645507812,        0.1352539062,      -33.5540771484,      -30.3497314453,       25.7415771484
1494294552.7050840855,       -0.8681640625,        2.0166015625,        0.2270507812,      -33.5540771484,      -30.3497314453,       25.7415771484
1494294552.7077770233,       -0.8681640625,        2.0166015625,        0.2270507812,      -48.4619140625,      -25.6805419922,       68.2067871094
1494294552.7104740143,       -0.8681640625,        2.0166015625,        0.2270507812,      -48.4619140625,      -25.6805419922,       68.2067871094
1494294552.7131779194,       -0.8681640625,        1.7348632812,        0.3256835938,      -69.5037841797,      -21.2554931641,      100.1129150391
1494294552.7158749104,       -0.8989257812,        1.7348632812,        0.3256835938,      -69.5037841797,      -21.2554931641,      100.1129150391
1494294552.7186739445,       -0.8989257812,        1.7348632812,        0.3256835938,      -96.5270996094,      -21.7285156250,      125.6713867188
1494294552.7217769623,       -0.8989257812,        1.7348632812,        0.3256835938,      -96.5270996094,      -21.7285156250,      149.1088867188
1494294552.7244770527,       -0.8173828125,        1.5004882812,        0.3818359375,     -121.9940185547,      -22.6898193359,      149.0325927734
1494294552.7271840572,       -0.8173828125,        1.5004882812,        0.3818359375,     -121.9940185547,      -22.6898193359,      149.0325927734
1494294552.7298839092,       -0.8173828125,        1.5004882812,        0.3818359375,     -136.0168457031,      -24.1699218750,      169.8150634766
1494294552.7325069904,       -0.8173828125,        1.5004882812,        0.3818359375,     -136.0168457031,      -24.1699218750,      169.8150634766
1494294552.7350640297,       -1.0590820312,        1.1586914062,        0.4619140625,     -121.7041015625,      -33.0200195312,      177.5360107422
1494294552.7376229763,       -1.0590820312,        1.1586914062,        0.4619140625,     -121.7041015625,      -33.0200195312,      177.5360107422
1494294552.7401819229,       -1.0590820312,        1.1586914062,        0.4619140625,     -109.4512939453,      -30.9600830078,      176.8646240234
1494294552.7428610325,       -1.0590820312,        1.1586914062,        0.0869140625,     -109.4512939453,      -30.9600830078,      176.8646240234
1494294552.7455580235,       -0.9165039062,        0.2509765625,        0.1044921875,      -93.6737060547,      -31.2042236328,      158.8897705078
1494294552.7482550144,       -0.9165039062,        0.2509765625,        0.1044921875,      -93.6737060547,      -31.2042236328,      158.8897705078
1494294552.7509560585,       -0.9165039062,        0.2509765625,        0.1044921875,      -83.7860107422,      -34.2407226562,      115.3106689453
1494294552.7535219193,       -0.9165039062,       -1.8403320312,       -0.4340820312,      -83.7860107422,      -34.2407226562,      115.3106689453
1494294552.7560760975,       -1.2758789062,       -1.8403320312,       -0.4340820312,      -53.6346435547,      -24.9023437500,       64.8193359375
1494294552.7586290836,       -1.2758789062,       -1.8403320312,       -0.4340820312,      -53.6346435547,      -24.9023437500,       64.8193359375
1494294552.7611899376,       -1.2758789062,       -1.8403320312,       -0.4340820312,       43.7011718750,      -12.3291015625,       48.8281250000
1494294552.7638540268,       -1.4008789062,       -2.7006835938,       -1.0595703125,       43.7011718750,      -12.3291015625,       48.8281250000
1494294552.7664101124,       -1.4838867188,       -2.7006835938,       -1.0595703125,       78.8574218750,        0.4272460938,       80.2612304688
1494294552.7689690590,       -1.4838867188,       -2.7006835938,       -1.0595703125,       78.5217285156,        0.4272460938,       80.2612304688
1494294552.7716720104,       -1.4838867188,       -2.7006835938,       -1.0595703125,       78.5217285156,        1.0833740234,      142.4865722656
1494294552.7742290497,       -0.9760742188,       -0.1679687500,       -0.4765625000,        7.3089599609,        1.0833740234,      142.4865722656
1494294552.7767820358,       -0.9760742188,       -0.1679687500,       -0.4765625000,        7.3089599609,        1.0833740234,      209.4879150391
1494294552.7793331146,       -0.9760742188,       -0.1679687500,       -0.4765625000,      -71.7773437500,       -1.0681152344,      209.4879150391
1494294552.7820339203,       -0.9760742188,       -0.1679687500,       -0.4765625000,      -71.7773437500,       -1.0681152344,      231.5979003906
1494294552.7845869064,       -0.8437500000,        1.9765625000,        0.2841796875,     -173.0499267578,      -11.9934082031,      231.5979003906
1494294552.7871439457,       -0.8437500000,        1.9765625000,        0.2841796875,     -173.0499267578,      -11.9934082031,      231.5979003906
1494294552.7897040844,       -0.8437500000,        1.9765625000,        0.2841796875,     -214.2639160156,      -26.9470214844,      209.8999023438
1494294552.7924048901,       -0.8437500000,        1.9765625000,        0.2841796875,     -214.2639160156,      -26.9470214844,      209.8999023438
1494294552.7951049805,       -1.4936523438,        1.6606445312,        0.1152343750,     -135.5895996094,      -31.5551757812,      179.7180175781
1494294552.7978010178,       -1.4936523438,        1.6606445312,        0.1152343750,     -135.5895996094,      -31.5551757812,      179.7180175781
1494294552.8004970551,       -1.4936523438,        1.6606445312,        0.1152343750,      -35.7666015625,      -29.7698974609,      152.8320312500
1494294552.8032059669,       -1.4936523438,        1.6606445312,        0.1152343750,      -35.7666015625,      -29.7698974609,      152.8320312500
1494294552.8058979511,       -1.2431640625,        0.3134765625,        0.1181640625,        4.7149658203,      -33.9660644531,      132.4768066406
1494294552.8085870743,       -1.2431640625,        0.3134765625,        0.1181640625,        4.7149658203,      -33.9660644531,      132.4768066406
1494294552.8112890720,       -1.2431640625,        0.3134765625,        0.1181640625,        2.1362304688,      -43.0603027344,      133.9111328125
1494294552.8139870167,       -1.2431640625,        0.0000000000,        0.5458984375,        2.1362304688,      -43.0603027344,      133.9111328125
1494294552.8166799545,       -0.9360351562,        0.0000000000,        0.5458984375,      -30.9295654297,      -51.4373779297,      151.4892578125
1494294552.8193769455,       -0.9360351562,        0.0000000000,        0.5458984375,      -30.9295654297,      -51.4373779297,      151.4892578125
1494294552.8220729828,       -0.9360351562,        0.0000000000,        0.5458984375,      -78.9642333984,      -54.7180175781,      164.8864746094
1494294552.8247780800,       -0.9433593750,        0.3720703125,        0.7036132812,      -78.9642333984,      -54.7180175781,      164.8864746094
1494294552.8274710178,       -0.9433593750,        0.3720703125,        0.7036132812,     -100.5554199219,      -49.1027832031,      161.8957519531
1494294552.8301670551,       -0.9433593750,        0.3720703125,        0.7036132812,     -100.5554199219,      -49.1027832031,      161.8957519531
1494294552.8327760696,       -0.9433593750,        0.3720703125,        0.7036132812,      -84.7167968750,      -39.8559570312,      149.9633789062
1494294552.8353340626,       -0.6767578125,        0.5781250000,        0.1728515625,      -84.7167968750,      -39.8559570312,      149.9633789062
1494294552.8381419182,       -0.6767578125,        0.5781250000,        0.1728515625,      -56.7474365234,      -35.4461669922,      132.8430175781
1494294552.8410890102,       -0.6767578125,        0.5781250000,        0.1728515625,      -56.7474365234,      -35.4461669922,      132.8430175781
1494294552.8437879086,       -0.6767578125,        0.5781250000,       -0.0209960938,      -35.7208251953,      -34.1339111328,      116.8670654297
1494294552.8464999199,       -0.6406250000,        0.5429687500,       -0.0209960938,      -35.7208251953,      -34.1339111328,      116.8670654297
1494294552.8491990566,       -0.6406250000,        0.5429687500,       -0.0209960938,      -22.0947265625,      -32.0129394531,      103.4545898438
1494294552.8519020081,       -0.6406250000,        0.5429687500,       -0.0209960938,      -22.0947265625,      -32.0129394531,      103.4545898438
1494294552.8546030521,       -0.6406250000,        0.4902343750,        0.0546875000,      -16.9830322266,      -29.9682617188,       91.8273925781
1494294552.8573009968,       -0.7182617188,        0.4902343750,        0.0546875000,      -16.9830322266,      -29.9682617188,       91.8273925781
1494294552.8600039482,       -0.7182617188,        0.4902343750,        0.0546875000,      -11.4593505859,      -29.1748046875,       80.6732177734
1494294552.8627529144,       -0.7182617188,        0.4902343750,        0.0546875000,      -11.4593505859,      -29.1748046875,       80.6732177734
1494294552.8654470444,       -0.7451171875,        0.4726562500,        0.0004882812,       -2.1057128906,      -28.6102294922,       69.1986083984
1494294552.8681468964,       -0.7451171875,        0.4726562500,        0.0004882812,       -2.1057128906,      -28.6102294922,       69.1986083984
1494294552.8708860874,       -0.7451171875,        0.4726562500,        0.0004882812,        9.4909667969,      -28.9001464844,       58.4411621094
1494294552.8734519482,       -0.7451171875,        0.4726562500,        0.0004882812,        9.4909667969,      -28.9001464844,       58.4411621094
1494294552.8760120869,       -0.7631835938,        0.3388671875,        0.0258789062,       20.3399658203,      -28.4881591797,       48.6145019531
1494294552.8785710335,       -0.7631835938,        0.3388671875,        0.0258789062,       20.3399658203,      -28.4881591797,       48.6145019531
1494294552.8811841011,       -0.7631835938,        0.3388671875,        0.0258789062,       28.5949707031,      -28.4423828125,       39.2150878906
1494294552.8837459087,       -0.7631835938,        0.3388671875,        0.0258789062,       28.5949707031,      -28.4423828125,       39.2150878906
1494294552.8863060474,       -0.7514648438,        0.1635742188,        0.1420898438,       33.7524414062,      -28.4118652344,       31.8298339844
1494294552.8888690472,       -0.7514648438,        0.1635742188,        0.1420898438,       33.7524414062,      -28.4118652344,       31.8298339844
1494294552.8915441036,       -0.7514648438,        0.1635742188,        0.1420898438,       37.6586914062,      -26.7333984375,       25.2990722656
1494294552.8941071033,       -0.7514648438,        0.1635742188,        0.1420898438,       38.7878417969,      -26.7333984375,       25.2990722656
1494294552.8966600895,       -0.7460937500,        0.1220703125,        0.1450195312,       38.7878417969,      -26.7333984375,       19.9127197266
1494294552.8992199898,       -0.7460937500,        0.1220703125,        0.1450195312,       41.8701171875,      -24.3072509766,       19.9127197266
1494294552.9019310474,       -0.7460937500,        0.1220703125,        0.1450195312,       41.8701171875,      -20.4010009766,       16.0675048828
1494294552.9046249390,       -0.7460937500,        0.1220703125,        0.0717773438,       41.8090820312,      -22.7050781250,       16.0675048828
1494294552.9073259830,       -0.7470703125,        0.1054687500,        0.0717773438,       41.8090820312,      -22.7050781250,       12.8021240234
1494294552.9101409912,       -0.7470703125,        0.1054687500,        0.0717773438,       41.2902832031,      -21.9573974609,       12.8021240234
1494294552.9128520489,       -0.7470703125,        0.1054687500,        0.0717773438,       41.2902832031,      -21.9573974609,       11.9018554688
1494294552.9155569077,       -0.7451171875,        0.0859375000,        0.0019531250,       41.1987304688,      -21.9726562500,       11.9018554688
1494294552.9182550907,       -0.7451171875,        0.0859375000,        0.0019531250,       41.1987304688,      -21.9726562500,       11.2609863281
1494294552.9209558964,       -0.7451171875,        0.0859375000,        0.0019531250,       40.7257080078,      -22.3388671875,       11.2609863281
1494294552.9235188961,       -0.7451171875,        0.0859375000,        0.0019531250,       40.7257080078,      -22.3388671875,       11.9476318359
1494294552.9260709286,       -0.7573242188,        0.0673828125,        0.0249023438,       38.4979248047,      -22.8271484375,       11.9476318359
1494294552.9286310673,       -0.7573242188,        0.0673828125,        0.0249023438,       38.4979248047,      -22.8271484375,       11.9476318359
1494294552.9312019348,       -0.7573242188,        0.0673828125,        0.0249023438,       35.7055664062,      -23.5137939453,       13.0004882812
1494294552.9337599277,       -0.7573242188,        0.0673828125,        0.0249023438,       35.7055664062,      -23.5137939453,       13.0004882812
1494294552.9363229275,       -0.7548828125,        0.0053710938,        0.0600585938,       30.3344726562,      -24.2462158203,       14.8468017578
1494294552.9388799667,       -0.7548828125,        0.0053710938,        0.0600585938,       30.3344726562,      -24.2462158203,       14.8468017578
1494294552.9416120052,       -0.7548828125,        0.0053710938,        0.0600585938,       25.4516601562,      -24.9481201172,       17.3492431641
1494294552.9441759586,       -0.7548828125,        0.0053710938,        0.0600585938,       25.4516601562,      -24.9481201172,       17.3492431641
1494294552.9467349052,       -0.7441406250,       -0.0449218750,        0.1127929688,       21.9573974609,      -24.7497558594,       19.2718505859
1494294552.9492928982,       -0.7441406250,       -0.0449218750,        0.1127929688,       21.9573974609,      -24.7497558594,       19.2718505859
1494294552.9519870281,       -0.7441406250,       -0.0449218750,        0.1127929688,       18.4478759766,      -24.0020751953,       20.8435058594
1494294552.9546880722,       -0.7441406250,       -0.0449218750,        0.1318359375,       18.4478759766,      -24.0020751953,       20.8435058594
1494294552.9575190544,       -0.7138671875,       -0.0600585938,        0.1318359375,       15.5487060547,      -22.8881835938,       22.1252441406
1494294552.9606039524,       -0.7138671875,       -0.0600585938,        0.1318359375,       15.5487060547,      -22.8881835938,       22.1252441406
1494294552.9632999897,       -0.7138671875,       -0.0600585938,        0.1318359375,       13.7023925781,      -21.4691162109,       23.7121582031
1494294552.9660029411,       -0.7153320312,       -0.0473632812,        0.1293945312,       13.7023925781,      -21.4691162109,       23.7121582031
1494294552.9686970711,       -0.7153320312,       -0.0473632812,        0.1293945312,       13.6566162109,      -20.1416015625,       24.5208740234
1494294552.9713749886,       -0.7153320312,       -0.0473632812,        0.1293945312,       13.6566162109,      -20.1416015625,       24.5208740234
1494294552.9739289284,       -0.7153320312,       -0.0473632812,        0.1293945312,       15.5639648438,      -18.9666748047,       24.8718261719
1494294552.9764831066,       -0.7236328125,        0.0000000000,        0.1235351562,       15.5639648438,      -18.9666748047,       24.8718261719
1494294552.9790439606,       -0.7236328125,        0.0000000000,        0.1235351562,       19.4854736328,      -18.0511474609,       24.9633789062
1494294552.9816579819,       -0.7236328125,        0.0000000000,        0.1235351562,       19.4854736328,      -18.0511474609,       24.9633789062
1494294552.9844710827,       -0.7236328125,        0.0000000000,        0.1235351562,       24.1241455078,      -16.8151855469,       23.9410400391
1494294552.9871799946,       -0.7241210938,        0.0336914062,        0.1459960938,       24.1241455078,      -16.8151855469,       23.9410400391
1494294552.9898819923,       -0.7241210938,        0.0336914062,        0.1459960938,       28.9001464844,      -15.1672363281,       23.4527587891
1494294552.9925010204,       -0.7241210938,        0.0336914062,        0.1459960938,       28.9001464844,      -15.1672363281,       23.4527587891
1494294552.9950580597,       -0.7241210938,        0.0336914062,        0.1459960938,       34.6221923828,      -14.1754150391,       23.1628417969
1494294552.9976100922,       -0.7153320312,        0.0083007812,        0.1865234375,       34.6221923828,      -14.1754150391,       23.1628417969
1494294553.0001668930,       -0.7153320312,        0.0083007812,        0.1865234375,       34.6221923828,      -12.8173828125,       22.4304199219
1494294553.0028250217,       -0.7153320312,        0.0083007812,        0.1865234375,       40.7714843750,      -12.8173828125,       22.4304199219
1494294553.0053870678,       -0.7153320312,        0.0083007812,        0.2006835938,       40.7714843750,      -12.8173828125,       22.3236083984
1494294553.0079469681,       -0.7075195312,        0.0043945312,        0.2006835938,       45.9594726562,      -11.1999511719,       22.3236083984
1494294553.0105049610,       -0.7075195312,        0.0043945312,        0.2006835938,       45.9594726562,      -11.1999511719,       22.3388671875
1494294553.0133330822,       -0.7075195312,        0.0043945312,        0.2006835938,       49.4079589844,      -10.4370117188,       22.3388671875
1494294553.0160338879,       -0.7075195312,       -0.0117187500,        0.1713867188,       49.4079589844,      -10.4370117188,       23.3306884766
1494294553.0187189579,       -0.7080078125,       -0.0117187500,        0.1713867188,       50.5981445312,      -10.2996826172,       23.3306884766
1494294553.0214009285,       -0.7080078125,       -0.0117187500,        0.1713867188,       50.5981445312,      -10.2996826172,       27.2369384766
1494294553.0239601135,       -0.7080078125,       -0.0117187500,        0.1713867188,       49.5758056641,      -10.2081298828,       24.6887207031
1494294553.0265159607,       -0.7177734375,       -0.0483398438,        0.1357421875,       49.5758056641,      -10.2081298828,       24.6887207031
1494294553.0290820599,       -0.7177734375,       -0.0483398438,        0.1357421875,       46.4324951172,      -10.3759765625,       26.8707275391
1494294553.0317029953,       -0.7177734375,       -0.0483398438,        0.1357421875,       46.4324951172,      -10.3759765625,       26.8707275391
1494294553.0343999863,       -0.7177734375,       -0.0483398438,        0.1357421875,       42.1295166016,       -9.8419189453,       30.1818847656
1494294553.0370919704,       -0.7319335938,       -0.0410156250,        0.0893554688,       42.1295166016,       -9.8419189453,       30.1818847656
1494294553.0397839546,       -0.7319335938,       -0.0410156250,        0.0893554688,       36.7431640625,       -9.6282958984,       34.7747802734
1494294553.0424919128,       -0.7319335938,       -0.0410156250,        0.0893554688,       36.7431640625,       -9.6282958984,       34.7747802734
1494294553.0451900959,       -0.7319335938,       -0.0410156250,        0.0893554688,       31.3415527344,      -10.1470947266,       39.3829345703
1494294553.0478830338,       -0.7314453125,       -0.0302734375,        0.0546875000,       31.3415527344,      -10.1470947266,       39.3829345703
1494294553.0505769253,       -0.7314453125,       -0.0302734375,        0.0546875000,       26.8096923828,      -11.7187500000,       44.2810058594
1494294553.0532789230,       -0.7314453125,       -0.0302734375,        0.0546875000,       26.8096923828,      -11.7187500000,       44.2810058594
1494294553.0559821129,       -0.7314453125,       -0.0302734375,        0.0859375000,       23.6053466797,      -13.2751464844,       49.2401123047
1494294553.0587880611,       -0.7148437500,       -0.0122070312,        0.0859375000,       23.6053466797,      -13.2751464844,       49.2401123047
1494294553.0614960194,       -0.7148437500,       -0.0122070312,        0.0859375000,       23.2543945312,      -13.8092041016,       53.5583496094
1494294553.0641999245,       -0.7148437500,       -0.0122070312,        0.0859375000,       23.2543945312,      -13.8092041016,       53.5583496094
1494294553.0670320988,       -0.6953125000,        0.0214843750,        0.0908203125,       23.3001708984,      -14.8620605469,       56.6101074219
1494294553.0697269440,       -0.6953125000,        0.0214843750,        0.0908203125,       23.3001708984,      -14.8620605469,       56.6101074219
1494294553.0724909306,       -0.6953125000,        0.0214843750,        0.0908203125,       25.0396728516,      -16.1132812500,       58.6853027344
1494294553.0754361153,       -0.6953125000,        0.0214843750,        0.0908203125,       25.0396728516,      -16.1132812500,       58.6853027344
1494294553.0780029297,       -0.7167968750,       -0.0156250000,        0.1225585938,       29.3884277344,      -16.5557861328,       61.2945556641
1494294553.0805621147,       -0.7167968750,       -0.0156250000,        0.1225585938,       29.3884277344,      -16.5557861328,       61.2945556641
1494294553.0832579136,       -0.7167968750,       -0.0156250000,        0.1225585938,       33.5540771484,      -16.0064697266,       64.4683837891
1494294553.0859370232,       -0.7167968750,       -0.0156250000,        0.1586914062,       33.5540771484,      -16.0064697266,       64.4683837891
1494294553.0886220932,       -0.7153320312,        0.0126953125,        0.1586914062,       34.3322753906,      -15.3198242188,       69.0155029297
1494294553.0913589001,       -0.7153320312,        0.0126953125,        0.1586914062,       34.3322753906,      -15.3198242188,       69.0155029297
1494294553.0940399170,       -0.7153320312,        0.0126953125,        0.1586914062,       32.5317382812,      -15.1519775391,       72.8912353516
1494294553.0967218876,       -0.7153320312,        0.0659179688,        0.1259765625,       32.5317382812,      -15.1519775391,       72.8912353516
1494294553.0994129181,       -0.7124023438,        0.0659179688,        0.1259765625,       32.4249267578,      -14.7399902344,       76.4312744141
1494294553.1021289825,       -0.7124023438,        0.0659179688,        0.1259765625,       32.4249267578,      -14.7399902344,       76.4312744141
1494294553.1046850681,       -0.7124023438,        0.0659179688,        0.1259765625,       33.3557128906,      -13.3361816406,       79.2999267578
1494294553.1072421074,       -0.7539062500,        0.1064453125,        0.0874023438,       33.3557128906,      -13.3361816406,       79.2999267578
1494294553.1097979546,       -0.7539062500,        0.1064453125,        0.0874023438,       35.4919433594,      -11.5814208984,       81.4971923828
1494294553.1123700142,       -0.7539062500,        0.1064453125,        0.0874023438,       35.4919433594,      -11.5814208984,       81.4971923828
1494294553.1149299145,       -0.7539062500,        0.1064453125,        0.0874023438,       35.1562500000,      -11.9476318359,       83.2672119141
1494294553.1174850464,       -0.7382812500,        0.1420898438,        0.0375976562,       35.1562500000,      -11.9476318359,       83.2672119141
1494294553.1200439930,       -0.7382812500,        0.1420898438,        0.0375976562,       35.1562500000,      -13.9770507812,       86.0595703125
1494294553.1227679253,       -0.7382812500,        0.1420898438,        0.0375976562,       35.3546142578,      -13.9770507812,       86.0595703125
1494294553.1253249645,       -0.7382812500,        0.1420898438,        0.0375976562,       35.3546142578,      -13.9770507812,       87.0513916016
1494294553.1278800964,       -0.7983398438,        0.2075195312,        0.0454101562,       37.2314453125,      -14.4500732422,       87.0513916016
1494294553.1305470467,       -0.7983398438,        0.2075195312,        0.0454101562,       37.2314453125,      -14.4500732422,       86.8682861328
1494294553.1333329678,       -0.7983398438,        0.2075195312,        0.0454101562,       40.4357910156,      -14.7399902344,       86.8682861328
1494294553.1360239983,       -0.7983398438,        0.2075195312,        0.0454101562,       40.4357910156,      -14.7399902344,       86.8377685547
1494294553.1387100220,       -0.7822265625,        0.1879882812,        0.0673828125,       44.5556640625,      -15.6250000000,       86.8377685547
1494294553.1414110661,       -0.7822265625,        0.1879882812,        0.0673828125,       44.5556640625,      -19.5312500000,       86.2884521484
1494294553.1440949440,       -0.7822265625,        0.1879882812,        0.0673828125,       47.7294921875,      -17.3187255859,       86.2884521484
1494294553.1467859745,       -0.7822265625,        0.1879882812,        0.0722656250,       47.7294921875,      -17.3187255859,       87.8143310547
1494294553.1494660378,       -0.8100585938,        0.1801757812,        0.0722656250,       48.9501953125,      -18.3105468750,       87.8143310547
1494294553.1521630287,       -0.8100585938,        0.1801757812,        0.0722656250,       48.9501953125,      -18.3105468750,       90.1947021484
1494294553.1548519135,       -0.8100585938,        0.1801757812,        0.0722656250,       51.3458251953,      -18.6767578125,       90.1947021484
1494294553.1575369835,       -0.8173828125,        0.1611328125,        0.0605468750,       51.3458251953,      -18.6767578125,       92.4682617188
1494294553.1602199078,       -0.8173828125,        0.1611328125,        0.0605468750,       52.9479980469,      -19.2565917969,       92.4682617188
1494294553.1629540920,       -0.8173828125,        0.1611328125,        0.0605468750,       52.9479980469,      -19.2565917969,       95.6268310547
1494294553.1656410694,       -0.8173828125,        0.1611328125,        0.0605468750,       56.0150146484,      -19.6533203125,       95.6268310547
1494294553.1683359146,       -0.8505859375,        0.1323242188,        0.1088867188,       56.0150146484,      -19.6533203125,       98.8616943359
1494294553.1710350513,       -0.8505859375,        0.1323242188,        0.1088867188,       58.1207275391,      -19.0734863281,       98.8616943359
1494294553.1737210751,       -0.8505859375,        0.1323242188,        0.1088867188,       58.1207275391,      -19.0734863281,      102.7679443359
1494294553.1764109135,       -0.8505859375,        0.1323242188,        0.2338867188,       56.8542480469,      -18.7988281250,      102.6916503906
1494294553.1790969372,       -0.8803710938,        0.0859375000,        0.1557617188,       56.8542480469,      -18.7988281250,      106.5979003906
1494294553.1818039417,       -0.8803710938,        0.0859375000,        0.1557617188,       56.3812255859,      -19.0124511719,      106.4453125000
1494294553.1844909191,       -0.8803710938,        0.0859375000,        0.1557617188,       56.3812255859,      -19.0124511719,      110.3515625000
1494294553.1873109341,       -0.8803710938,        0.0849609375,        0.1655273438,       55.3588867188,      -18.3715820312,      110.9161376953
1494294553.1900079250,       -0.9052734375,        0.0849609375,        0.1655273438,       55.3588867188,      -18.3715820312,      115.2343750000
1494294553.1930050850,       -0.9052734375,        0.0849609375,        0.1655273438,       53.5888671875,      -17.5018310547,      115.2343750000
1494294553.1956870556,       -0.9052734375,        0.0849609375,        0.1655273438,       53.5888671875,      -17.5018310547,      118.4997558594
1494294553.1983699799,       -0.9169921875,        0.1435546875,        0.0908203125,       52.0935058594,      -16.8914794922,      118.4997558594
1494294553.2010560036,       -0.9169921875,        0.1435546875,        0.0908203125,       52.0935058594,      -16.8914794922,      119.6746826172
1494294553.2037129402,       -0.9169921875,        0.1435546875,        0.0908203125,       49.3316650391,      -16.4489746094,      119.6746826172
1494294553.2064859867,       -0.9169921875,        0.1435546875,        0.0908203125,       49.3316650391,      -16.4489746094,      120.6054687500
1494294553.2091419697,       -1.0141601562,        0.1616210938,        0.0200195312,       46.5698242188,      -14.6026611328,      120.6054687500
1494294553.2118239403,       -1.0141601562,        0.1616210938,        0.0200195312,       46.5698242188,      -14.6026611328,      124.5117187500
1494294553.2145199776,       -1.0141601562,        0.1616210938,        0.0200195312,       44.1284179688,      -12.3291015625,      123.7182617188
1494294553.2172141075,       -1.0141601562,        0.1616210938,        0.0239257812,       44.1284179688,      -12.3291015625,      127.6245117188
1494294553.2199149132,       -1.0048828125,        0.1835937500,        0.0239257812,       43.4417724609,      -12.7258300781,      127.2430419922
1494294553.2225279808,       -1.0048828125,        0.1835937500,        0.0239257812,       43.4417724609,      -12.7258300781,      127.2430419922
1494294553.2250890732,       -1.0048828125,        0.1835937500,        0.0239257812,       43.2128906250,      -13.9160156250,      129.4555664062
1494294553.2276489735,       -1.0048828125,        0.2182617188,        0.0576171875,       43.2128906250,      -13.9160156250,      129.4555664062
1494294553.2302041054,       -1.0634765625,        0.2182617188,        0.0576171875,       42.0074462891,      -14.5111083984,      130.8898925781
1494294553.2327759266,       -1.0634765625,        0.2182617188,        0.0576171875,       42.0074462891,      -14.5111083984,      130.8898925781
1494294553.2353370190,       -1.0634765625,        0.2182617188,        0.0576171875,       41.9006347656,      -14.6331787109,      132.4768066406
1494294553.2378919125,       -1.0634765625,        0.1826171875,        0.0791015625,       41.9006347656,      -14.6331787109,      132.4768066406
1494294553.2404549122,       -1.1157226562,        0.1826171875,        0.0791015625,       44.7082519531,      -15.1824951172,      133.9111328125
1494294553.2431728840,       -1.1157226562,        0.1826171875,        0.0791015625,       44.7082519531,      -15.1824951172,      133.9111328125
1494294553.2457389832,       -1.1157226562,        0.1826171875,        0.0791015625,       48.4771728516,      -17.6849365234,      135.6201171875
1494294553.2482979298,       -1.0942382812,        0.1518554688,        0.1313476562,       48.4771728516,      -17.6849365234,      135.6201171875
1494294553.2510280609,       -1.0942382812,        0.1518554688,        0.1313476562,       53.0548095703,      -20.8587646484,      137.4206542969
1494294553.2537291050,       -1.0942382812,        0.1518554688,        0.1313476562,       53.0548095703,      -20.8587646484,      137.4206542969
1494294553.2564249039,       -1.0942382812,        0.1518554688,        0.1313476562,       60.1196289062,      -22.8576660156,      139.9383544922
1494294553.2591159344,       -1.1079101562,        0.1416015625,        0.1586914062,       60.1196289062,      -22.8576660156,      139.9383544922
1494294553.2618260384,       -1.1079101562,        0.1416015625,        0.1586914062,       68.9544677734,      -25.2990722656,      142.5628662109
1494294553.2645208836,       -1.1079101562,        0.1416015625,        0.1586914062,       68.9544677734,      -25.2990722656,      142.5628662109
1494294553.2672190666,       -1.1079101562,        0.1416015625,        0.1586914062,       78.2318115234,      -27.6641845703,      144.0429687500
1494294553.2699170113,       -1.1411132812,        0.1113281250,        0.1250000000,       78.2318115234,      -27.6641845703,      144.0429687500
1494294553.2725329399,       -1.1411132812,        0.1113281250,        0.1250000000,       86.0443115234,      -29.4647216797,      145.3552246094
1494294553.2750980854,       -1.1411132812,        0.1113281250,        0.1250000000,       88.4399414062,      -29.4647216797,      145.3552246094
1494294553.2776529789,       -1.1411132812,        0.1113281250,        0.0991210938,       88.4399414062,      -29.4647216797,      145.2941894531
1494294553.2803249359,       -1.2573242188,        0.0297851562,        0.0991210938,       98.0987548828,      -28.7322998047,      145.2941894531
1494294553.2830159664,       -1.2573242188,        0.0297851562,        0.0991210938,       98.0987548828,      -28.7322998047,      146.2860107422
1494294553.2857139111,       -1.2573242188,        0.0297851562,        0.0991210938,      105.1025390625,      -28.3203125000,      146.2860107422
1494294553.2884120941,       -1.3823242188,       -0.0913085938,        0.1137695312,      105.1025390625,      -28.3203125000,      147.0031738281
1494294553.2911510468,       -1.4208984375,       -0.0913085938,        0.1137695312,      111.4501953125,      -27.4810791016,      147.0031738281
1494294553.2938489914,       -1.4208984375,       -0.0913085938,        0.1137695312,      111.4501953125,      -23.5748291016,      144.5617675781
1494294553.2965478897,       -1.4208984375,       -0.0913085938,        0.1137695312,      118.8812255859,      -26.0620117188,      144.5617675781
1494294553.2992479801,       -1.5283203125,       -0.2309570312,        0.0927734375,      118.8812255859,      -26.0620117188,      143.3563232422
1494294553.3019568920,       -1.5283203125,       -0.2309570312,        0.0927734375,      124.6185302734,      -25.0701904297,      143.3563232422
1494294553.3046538830,       -1.5283203125,       -0.2309570312,        0.0927734375,      124.6185302734,      -25.0701904297,      143.6462402344
1494294553.3074269295,       -1.5283203125,       -0.2309570312,        0.0927734375,      133.9111328125,      -25.6500244141,      143.6462402344
1494294553.3101201057,       -1.5903320312,       -0.3403320312,        0.0615234375,      145.6298828125,      -26.8402099609,      144.5770263672
1494294553.3132259846,       -1.5903320312,       -0.3403320312,        0.0615234375,      147.3541259766,      -26.8402099609,      144.5770263672
1494294553.3159210682,       -1.5903320312,       -0.3403320312,        0.0615234375,      170.7916259766,      -29.1595458984,      144.3939208984
1494294553.3186259270,       -1.7153320312,       -0.5092773438,        0.1884765625,      167.9992675781,      -29.1595458984,      144.3939208984
1494294553.3213400841,       -1.6347656250,       -0.5092773438,        0.1884765625,      167.9992675781,      -33.2336425781,      146.6979980469
1494294553.3239030838,       -1.6347656250,       -0.5092773438,        0.1884765625,      182.1746826172,      -33.2336425781,      146.6979980469
1494294553.3264620304,       -1.6347656250,       -0.5092773438,        0.1884765625,      182.1746826172,      -33.2336425781,      154.5715332031
1494294553.3290181160,       -1.5439453125,       -0.5834960938,        0.4204101562,      178.2836914062,      -35.6750488281,      154.5715332031
1494294553.3316400051,       -1.5439453125,       -0.5834960938,        0.4204101562,      178.2836914062,      -35.6750488281,      169.9676513672
1494294553.3343329430,       -1.5439453125,       -0.5834960938,        0.4204101562,      159.7442626953,      -32.3791503906,      169.9676513672
1494294553.3370249271,       -1.5439453125,       -0.5834960938,        0.4204101562,      159.7442626953,      -32.3791503906,      190.4449462891
1494294553.3397309780,       -1.4418945312,       -0.2485351562,        0.4472656250,      142.5781250000,      -17.8375244141,      190.4449462891
1494294553.3423609734,       -1.4418945312,       -0.2485351562,        0.4472656250,      142.5781250000,      -17.8375244141,      190.4449462891
1494294553.3449220657,       -1.4418945312,       -0.2485351562,        0.4472656250,      125.5493164062,       -8.6822509766,      206.0241699219
1494294553.3474729061,       -1.4418945312,       -0.2485351562,        0.4472656250,      125.5493164062,       -8.6822509766,      206.0241699219
1494294553.3500280380,       -1.3627929688,        0.0263671875,        0.3491210938,       98.1903076172,       -7.8125000000,      205.9020996094
1494294553.3526949883,       -1.3627929688,        0.0263671875,        0.3491210938,       98.1903076172,       -7.8125000000,      205.9020996094
1494294553.3552489281,       -1.3627929688,        0.0263671875,        0.3491210938,       71.9451904297,      -10.3454589844,      196.3806152344
1494294553.3578100204,       -1.3627929688,        0.0263671875,        0.3491210938,       71.9451904297,      -10.3454589844,      196.3806152344
1494294553.3603699207,       -1.3198242188,       -0.1552734375,        0.4155273438,       54.1076660156,      -13.3972167969,      186.0809326172
1494294553.3630509377,       -1.3198242188,       -0.1552734375,        0.4155273438,       54.1076660156,      -13.3972167969,      186.0809326172
1494294553.3656170368,       -1.3198242188,       -0.1552734375,        0.4155273438,       36.2548828125,      -15.5639648438,      176.8035888672
1494294553.3681690693,       -1.3198242188,       -0.1552734375,        0.5405273438,       36.2548828125,      -15.5639648438,      176.8035888672
1494294553.3707940578,       -1.1918945312,       -0.2172851562,        0.5683593750,       18.4020996094,      -13.9770507812,      165.6799316406
1494294553.3733599186,       -1.1918945312,       -0.2172851562,        0.5683593750,       18.4020996094,      -13.9770507812,      165.6799316406
1494294553.3759219646,       -1.1918945312,       -0.2172851562,        0.5683593750,       10.5895996094,      -11.8103027344,      156.4941406250
1494294553.3784809113,       -1.1918945312,       -0.2172851562,        0.5458984375,        9.8266601562,      -11.8103027344,      156.4941406250
1494294553.3810639381,       -1.0639648438,       -0.1098632812,        0.5458984375,        9.8266601562,      -11.8103027344,      145.9503173828
1494294553.3837599754,       -1.0639648438,       -0.1098632812,        0.5458984375,        7.4157714844,      -13.0767822266,      145.9503173828
1494294553.3864519596,       -1.0639648438,       -0.1098632812,        0.5458984375,        7.4157714844,      -16.9830322266,      129.7302246094
1494294553.3891499043,       -1.0639648438,       -0.1372070312,        0.3911132812,        7.7362060547,      -17.2119140625,      129.7302246094
1494294553.3918619156,       -0.9653320312,       -0.1372070312,        0.3911132812,        7.7362060547,      -21.1181640625,      114.2120361328
1494294553.3945629597,       -0.9653320312,       -0.1372070312,        0.3911132812,       12.4053955078,      -20.7977294922,      114.2120361328
1494294553.3972630501,       -0.9653320312,       -0.1372070312,        0.3911132812,       12.4053955078,      -16.8914794922,      100.2197265625
1494294553.3999609947,       -0.8730468750,       -0.0913085938,        0.1806640625,       21.9116210938,      -16.9982910156,      100.2197265625
1494294553.4025859833,       -0.8730468750,       -0.0913085938,        0.1806640625,       21.9116210938,      -16.9982910156,       89.9963378906
1494294553.4051480293,       -0.8730468750,       -0.0913085938,        0.1806640625,       41.0308837891,      -14.5874023438,       89.9963378906
1494294553.4077138901,       -0.8730468750,       -0.0913085938,        0.1806640625,       41.0308837891,      -14.5874023438,       82.1838378906
1494294553.4102718830,       -0.8408203125,        0.3051757812,        0.1137695312,       50.9796142578,      -21.4691162109,       85.5560302734
1494294553.4129939079,       -0.8408203125,        0.3051757812,        0.1137695312,       50.9796142578,      -21.4691162109,       85.5560302734
1494294553.4155580997,       -0.8408203125,        0.3051757812,        0.1137695312,       33.6914062500,      -39.5507812500,       77.4078369141
1494294553.4181139469,       -0.8408203125,        0.3051757812,        0.1137695312,       33.6914062500,      -39.5507812500,       77.4078369141
1494294553.4207129478,       -0.5351562500,        0.2626953125,        0.4150390625,        8.4228515625,      -45.3643798828,       52.9937744141
1494294553.4232709408,       -0.5351562500,        0.2626953125,        0.4150390625,        8.4228515625,      -45.3643798828,       52.9937744141
1494294553.4259340763,       -0.5351562500,        0.2626953125,        0.4150390625,       -6.4392089844,      -28.8391113281,       19.6380615234
1494294553.4285678864,       -0.5351562500,        0.2626953125,        0.4150390625,       -6.4392089844,      -28.8391113281,       19.6380615234
1494294553.4315741062,       -0.7656250000,       -0.2202148438,        0.0244140625,      -13.3056640625,      -12.2222900391,      -15.8538818359
1494294553.4342770576,       -0.7656250000,       -0.2202148438,        0.0244140625,      -13.3056640625,      -12.2222900391,      -15.8538818359
1494294553.4369809628,       -0.7656250000,       -0.2202148438,        0.0244140625,      -10.3759765625,       -9.8571777344,      -45.5627441406
1494294553.4396750927,       -0.5156250000,       -0.4111328125,       -0.0444335938,      -10.3759765625,       -9.8571777344,      -45.5627441406
1494294553.4423820972,       -0.5668945312,       -0.4111328125,       -0.0444335938,       -5.5389404297,      -13.0462646484,      -65.6280517578
1494294553.4450719357,       -0.5668945312,       -0.4111328125,       -0.0444335938,       -5.5389404297,      -13.0462646484,      -65.6280517578
1494294553.4477629662,       -0.5668945312,       -0.4111328125,       -0.0444335938,       -4.3640136719,      -11.8103027344,      -80.7800292969
1494294553.4504649639,       -0.3188476562,       -0.4477539062,       -0.0078125000,       -4.3640136719,      -11.8103027344,      -80.7800292969
1494294553.4531691074,       -0.3188476562,       -0.4477539062,       -0.0078125000,       -2.5787353516,       -9.5214843750,      -93.6126708984
1494294553.4558660984,       -0.3188476562,       -0.4477539062,       -0.0078125000,       -2.5787353516,       -9.5214843750,      -93.6126708984
1494294553.4585669041,       -0.3188476562,       -0.4477539062,       -0.0078125000,       -2.2735595703,       -7.0800781250,     -104.2633056641
1494294553.4612491131,       -0.2104492188,       -0.3505859375,       -0.0463867188,       -2.2735595703,       -7.0800781250,     -104.2633056641
1494294553.4638080597,       -0.2104492188,       -0.3505859375,       -0.0463867188,       -6.8054199219,       -5.6457519531,     -113.4796142578
1494294553.4663619995,       -0.2104492188,       -0.3505859375,       -0.0463867188,       -6.8054199219,       -5.6457519531,     -113.4796142578
1494294553.4689080715,       -0.2104492188,       -0.3505859375,       -0.0463867188,      -12.1612548828,       -4.7149658203,     -121.3531494141
1494294553.4715199471,       -0.1928710938,       -0.2182617188,       -0.0400390625,      -12.1612548828,       -4.7149658203,     -121.3531494141
1494294553.4740750790,       -0.1928710938,       -0.2182617188,       -0.0400390625,      -14.0533447266,       -5.1422119141,     -129.8828125000
1494294553.4766321182,       -0.1928710938,       -0.2182617188,       -0.0400390625,      -14.0533447266,       -5.1422119141,     -129.8828125000
1494294553.4791920185,       -0.1928710938,       -0.2182617188,       -0.0400390625,      -14.0533447266,       -5.7220458984,     -140.5181884766
1494294553.4819099903,       -0.2397460938,       -0.1083984375,       -0.0117187500,      -15.7012939453,       -5.7220458984,     -140.5181884766
1494294553.4844739437,       -0.2397460938,       -0.1083984375,       -0.0117187500,      -15.7012939453,       -5.7220458984,     -152.8625488281
1494294553.4870309830,       -0.2397460938,       -0.1083984375,       -0.0117187500,      -17.6696777344,       -5.5084228516,     -152.8625488281
1494294553.4895861149,       -0.2397460938,       -0.1083984375,        0.0283203125,      -17.6696777344,       -5.5084228516,     -165.2221679688
1494294553.4923191071,       -0.3071289062,       -0.0947265625,        0.0283203125,      -18.1732177734,       -4.6539306641,     -165.2221679688
1494294553.4950160980,       -0.3071289062,       -0.0947265625,        0.0283203125,      -18.1732177734,       -4.6539306641,     -176.4984130859
1494294553.4977140427,       -0.3071289062,       -0.0947265625,        0.0283203125,      -17.9748535156,       -3.4790039062,     -176.4984130859
1494294553.5005240440,       -0.3398437500,       -0.1308593750,        0.0322265625,      -17.9748535156,       -3.4790039062,     -186.0046386719
1494294553.5032339096,       -0.3398437500,       -0.1308593750,        0.0322265625,      -20.7672119141,       -2.0294189453,     -186.0046386719
1494294553.5059409142,       -0.3398437500,       -0.1308593750,        0.0322265625,      -20.7672119141,       -2.0294189453,     -194.1528320312
1494294553.5086429119,       -0.3398437500,       -0.1308593750,        0.0322265625,      -26.6418457031,       -1.2054443359,     -194.1528320312
1494294553.5113511086,       -0.3754882812,       -0.1503906250,        0.0571289062,      -26.6418457031,       -1.2054443359,     -201.5838623047
1494294553.5140480995,       -0.3754882812,       -0.1503906250,        0.0571289062,      -33.9813232422,       -0.4577636719,     -201.5838623047
1494294553.5167419910,       -0.3754882812,       -0.1503906250,        0.0571289062,      -33.9813232422,       -0.4577636719,     -209.2437744141
1494294553.5194320679,       -0.3754882812,       -0.1503906250,        0.0571289062,      -41.7175292969,       -0.0610351562,     -209.2437744141
1494294553.5220971107,       -0.4257812500,       -0.1303710938,        0.0512695312,      -41.7175292969,       -0.0610351562,     -217.0562744141
1494294553.5246510506,       -0.4257812500,       -0.1303710938,        0.0512695312,      -50.5981445312,        1.3122558594,     -216.6442871094
1494294553.5272119045,       -0.4257812500,       -0.1303710938,        0.0512695312,      -50.5981445312,        1.3122558594,     -216.6442871094
1494294553.5297648907,       -0.4257812500,       -0.1303710938,        0.0546875000,      -59.3414306641,        3.0364990234,     -224.1973876953
1494294553.5324668884,       -0.4833984375,       -0.1010742188,        0.0546875000,      -59.3414306641,        3.0364990234,     -224.1973876953
1494294553.5350270271,       -0.4833984375,       -0.1010742188,        0.0546875000,      -66.4825439453,        5.1116943359,     -231.6741943359
1494294553.5375831127,       -0.4833984375,       -0.1010742188,        0.0546875000,      -66.4825439453,        5.1116943359,     -231.6741943359
1494294553.5401439667,       -0.4833984375,       -0.1010742188,        0.0317382812,      -71.8231201172,        6.6833496094,     -239.6392822266
1494294553.5428841114,       -0.5219726562,       -0.0737304688,        0.0317382812,      -71.8231201172,        6.6833496094,     -239.6392822266
1494294553.5455520153,       -0.5219726562,       -0.0737304688,        0.0317382812,      -77.4078369141,        7.3699951172,     -246.5362548828
1494294553.5483210087,       -0.5219726562,       -0.0737304688,        0.0317382812,      -77.4078369141,        7.3699951172,     -246.5362548828
1494294553.5514030457,       -0.5820312500,       -0.0385742188,        0.0278320312,      -81.5429687500,        9.2010498047,     -254.1961669922
1494294553.5541079044,       -0.5820312500,       -0.0385742188,        0.0278320312,      -81.5429687500,        9.2010498047,     -254.1961669922
1494294553.5568048954,       -0.5820312500,       -0.0385742188,        0.0278320312,      -83.9691162109,       10.3454589844,     -262.1307373047
1494294553.5595018864,       -0.5820312500,       -0.0385742188,        0.0278320312,      -83.9691162109,       10.3454589844,     -262.1307373047
1494294553.5622189045,       -0.6328125000,        0.0058593750,        0.0136718750,      -84.4573974609,       11.5661621094,     -269.9432373047
1494294553.5649180412,       -0.6328125000,        0.0058593750,        0.0136718750,      -84.4573974609,       11.5661621094,     -269.9432373047
1494294553.5676178932,       -0.6328125000,        0.0058593750,        0.0136718750,      -84.0301513672,       13.1072998047,     -277.3742675781
1494294553.5703189373,       -0.6328125000,        0.0058593750,       -0.0004882812,      -84.0301513672,       13.1072998047,     -277.3742675781
1494294553.5731348991,       -0.6875000000,        0.0263671875,       -0.0004882812,      -83.4197998047,       13.9312744141,     -283.8134765625
1494294553.5758390427,       -0.6875000000,        0.0263671875,       -0.0004882812,      -83.4197998047,       13.9312744141,     -283.8134765625
1494294553.5785388947,       -0.6875000000,        0.0263671875,       -0.0004882812,      -80.7342529297,       14.3737792969,     -291.3055419922
1494294553.5812370777,       -0.7607421875,        0.0317382812,        0.0014648438,      -80.7342529297,       14.3737792969,     -291.3055419922
1494294553.5838069916,       -0.7607421875,        0.0317382812,        0.0014648438,      -77.9724121094,       15.2282714844,     -298.8281250000
1494294553.5863649845,       -0.7607421875,        0.0317382812,        0.0014648438,      -77.9724121094,       15.2282714844,     -298.8281250000
1494294553.5889239311,       -0.7607421875,        0.0317382812,        0.0014648438,      -76.8585205078,       14.6484375000,     -304.0771484375
1494294553.5915389061,       -0.8417968750,        0.0605468750,        0.0185546875,      -76.8585205078,       14.6484375000,     -304.0771484375
1494294553.5941009521,       -0.8417968750,        0.0605468750,        0.0185546875,      -77.0874023438,       14.5416259766,     -309.1735839844
1494294553.5966670513,       -0.8417968750,        0.0605468750,        0.0185546875,      -77.0874023438,       14.5416259766,     -309.1735839844
1494294553.5992290974,       -0.8417968750,        0.0605468750,        0.0185546875,      -76.6143798828,       13.7481689453,     -314.8498535156
1494294553.6018929482,       -0.9365234375,        0.1010742188,        0.0146484375,      -76.6143798828,       13.7481689453,     -314.8498535156
1494294553.6044549942,       -0.9365234375,        0.1010742188,        0.0146484375,      -76.6143798828,       12.8631591797,     -320.4498291016
1494294553.6070170403,       -0.9365234375,        0.1010742188,        0.0146484375,      -76.8432617188,       12.8631591797,     -320.4498291016
1494294553.6095728874,       -0.9365234375,        0.1010742188,        0.0146484375,      -76.8432617188,       12.8631591797,     -325.3479003906
1494294553.6123600006,       -1.0415039062,        0.1298828125,        0.0131835938,      -78.2623291016,       12.4511718750,     -325.3479003906
1494294553.6150639057,       -1.0415039062,        0.1298828125,        0.0131835938,      -78.2623291016,       12.4511718750,     -330.0323486328
1494294553.6177670956,       -1.0415039062,        0.1298828125,        0.0131835938,      -79.0252685547,       13.0767822266,     -330.0323486328
1494294553.6204600334,       -1.0415039062,        0.1298828125,        0.0136718750,      -79.0252685547,       13.0767822266,     -334.0759277344
1494294553.6230380535,       -1.1596679688,        0.1333007812,        0.0136718750,      -78.9489746094,       13.5040283203,     -334.0759277344
1494294553.6255989075,       -1.1596679688,        0.1333007812,        0.0136718750,      -78.9489746094,       13.5040283203,     -337.9821777344
1494294553.6281599998,       -1.1596679688,        0.1333007812,        0.0136718750,      -79.9865722656,       14.4958496094,     -337.0971679688
1494294553.6307170391,       -1.1596679688,        0.1333007812,        0.0341796875,      -79.9865722656,       14.4958496094,     -337.0971679688
1494294553.6334240437,       -1.2958984375,        0.1132812500,        0.0341796875,      -80.0018310547,       15.2587890625,     -339.8437500000
1494294553.6361179352,       -1.2958984375,        0.1132812500,        0.0341796875,      -80.0018310547,       15.2587890625,     -339.8437500000
1494294553.6388149261,       -1.2958984375,        0.1132812500,        0.0341796875,      -78.9031982422,       17.1661376953,     -341.2322998047
1494294553.6415259838,       -1.4208984375,        0.1230468750,        0.0400390625,      -78.9031982422,       17.1661376953,     -341.2322998047
1494294553.6440858841,       -1.4360351562,        0.1230468750,        0.0400390625,      -78.3538818359,       18.9514160156,     -342.1936035156
1494294553.6467640400,       -1.4360351562,        0.1230468750,        0.0400390625,      -78.3538818359,       18.9514160156,     -342.1936035156
1494294553.6493270397,       -1.4360351562,        0.1230468750,        0.0400390625,      -77.1942138672,       20.7824707031,     -341.8579101562
1494294553.6520059109,       -1.5874023438,        0.1752929688,        0.0820312500,      -77.1942138672,       20.7824707031,     -341.8579101562
1494294553.6547060013,       -1.5874023438,        0.1752929688,        0.0820312500,      -73.1353759766,       22.3388671875,     -340.4693603516
1494294553.6573989391,       -1.5874023438,        0.1752929688,        0.0820312500,      -73.1353759766,       22.3388671875,     -340.4693603516
1494294553.6601040363,       -1.5874023438,        0.1752929688,        0.0820312500,      -66.0400390625,       25.4974365234,     -337.5244140625
1494294553.6627049446,       -1.7729492188,        0.3286132812,        0.1259765625,      -66.0400390625,       25.4974365234,     -337.5244140625
1494294553.6652619839,       -1.7729492188,        0.3286132812,        0.1259765625,      -58.4869384766,       29.1595458984,     -333.4808349609
1494294553.6679859161,       -1.7729492188,        0.3286132812,        0.1259765625,      -58.4869384766,       29.1595458984,     -333.4808349609
1494294553.6705439091,       -1.7729492188,        0.3286132812,        0.1259765625,      -52.9785156250,       30.5786132812,     -328.5980224609
1494294553.6734399796,       -1.8989257812,        0.5424804688,        0.1621093750,      -52.9785156250,       30.5786132812,     -328.5980224609
1494294553.6761369705,       -1.8989257812,        0.5424804688,        0.1621093750,      -50.6744384766,       31.7993164062,     -323.0895996094
1494294553.6788311005,       -1.8989257812,        0.5424804688,        0.1621093750,      -50.6744384766,       31.7993164062,     -323.0895996094
1494294553.6815729141,       -1.8989257812,        0.7207031250,        0.2397460938,      -54.4433593750,       33.4014892578,     -316.4062500000
1494294553.6842710972,       -1.9204101562,        0.7207031250,        0.2397460938,      -54.4433593750,       33.4014892578,     -316.4062500000
1494294553.6869649887,       -1.9204101562,        0.7207031250,        0.2397460938,      -64.5751953125,       35.5072021484,     -307.7850341797
1494294553.6896629333,       -1.9204101562,        0.7207031250,        0.2397460938,      -64.5751953125,       35.5072021484,     -307.7850341797
1494294553.6923708916,       -1.8164062500,        0.7758789062,        0.3359375000,      -78.1860351562,       36.4990234375,     -295.8679199219
1494294553.6950700283,       -1.8164062500,        0.7758789062,        0.3359375000,      -78.1860351562,       36.4990234375,     -295.8679199219
1494294553.6977670193,       -1.8164062500,        0.7758789062,        0.3359375000,      -93.7500000000,       37.1093750000,     -276.0009765625
1494294553.7004580498,       -1.8164062500,        0.7758789062,        0.3359375000,      -93.7500000000,       37.1093750000,     -276.0009765625
1494294553.7030389309,       -1.5625000000,        0.9262695312,        0.2729492188,     -108.4136962891,       36.0565185547,     -252.2125244141
1494294553.7055981159,       -1.5625000000,        0.9262695312,        0.2729492188,     -108.4136962891,       36.0565185547,     -252.2125244141
1494294553.7081549168,       -1.5625000000,        0.9262695312,        0.2729492188,     -120.3155517578,       30.2276611328,     -229.7668457031
1494294553.7107040882,       -1.5625000000,        0.9262695312,        0.2729492188,     -120.3155517578,       30.2276611328,     -229.7668457031
1494294553.7132589817,       -1.4516601562,        1.2612304688,        0.5332031250,     -120.3155517578,       21.1029052734,     -213.2110595703
1494294553.7158200741,       -1.4516601562,        1.2612304688,        0.5332031250,     -126.3885498047,       21.1029052734,     -213.2110595703
1494294553.7183730602,       -1.4516601562,        1.2612304688,        0.5332031250,     -126.3885498047,       21.1029052734,     -201.5228271484
1494294553.7211930752,       -1.4516601562,        1.2612304688,        0.7832031250,     -120.6359863281,       12.8631591797,     -201.5228271484
1494294553.7237539291,       -1.0693359375,        1.9497070312,        0.8046875000,     -120.6359863281,       12.8631591797,     -186.7828369141
1494294553.7263069153,       -1.0693359375,        1.9497070312,        0.8046875000,     -108.9324951172,        9.7808837891,     -186.7828369141
1494294553.7288589478,       -1.0693359375,        1.9497070312,        0.8046875000,     -108.9324951172,        9.7808837891,     -163.3453369141
1494294553.7317759991,       -1.0693359375,        2.5893554688,        0.4594726562,      -95.4132080078,       -4.3182373047,     -161.7431640625
1494294553.7353830338,       -0.6606445312,        2.5893554688,        0.4594726562,      -67.9626464844,      -18.2342529297,     -129.0588378906
1494294553.7381660938,       -0.6606445312,        2.5893554688,        0.4594726562,      -67.9626464844,      -18.2342529297,     -129.0588378906
1494294553.7409069538,       -0.6606445312,        2.5893554688,        0.4594726562,      -29.7088623047,      -25.6652832031,      -91.7358398438
1494294553.7435889244,       -0.5429687500,        2.8203125000,        0.1723632812,      -29.7088623047,      -25.6652832031,      -91.7358398438
1494294553.7462821007,       -0.5429687500,        2.8203125000,        0.1723632812,        0.3814697266,      -29.4647216797,      -48.9807128906
1494294553.7489700317,       -0.5429687500,        2.8203125000,        0.1723632812,        0.3814697266,      -29.4647216797,      -48.9807128906
1494294553.7516610622,       -0.5429687500,        2.8203125000,        0.1811523438,        6.7901611328,      -28.2592773438,        0.5645751953
1494294553.7543480396,       -0.7744140625,        2.2187500000,        0.1811523438,        6.7901611328,      -28.2592773438,        0.5645751953
1494294553.7570219040,       -0.7744140625,        2.2187500000,        0.1811523438,       -3.3874511719,      -22.1405029297,       47.0123291016
1494294553.7597079277,       -0.7744140625,        2.2187500000,        0.1811523438,       -3.3874511719,      -22.1405029297,       47.0123291016
1494294553.7623939514,       -0.7744140625,        1.7602539062,        0.3427734375,      -26.8249511719,      -18.7683105469,       85.8612060547
1494294553.7650799751,       -0.9248046875,        1.7602539062,        0.3427734375,      -23.4527587891,      -18.7683105469,       85.8612060547
1494294553.7677719593,       -0.9248046875,        1.7602539062,        0.3427734375,      -50.7965087891,      -17.5018310547,      116.1499023438
1494294553.7704598904,       -0.9248046875,        1.7602539062,        0.3427734375,      -52.0935058594,      -17.5018310547,      116.1499023438
1494294553.7731740475,       -0.8857421875,        1.4575195312,        0.5214843750,      -87.2497558594,      -18.4783935547,      140.0909423828
1494294553.7758851051,       -0.8857421875,        1.4575195312,        0.5214843750,      -89.6148681641,      -18.4783935547,      140.0909423828
1494294553.7785840034,       -0.8857421875,        1.4575195312,        0.5214843750,     -109.1461181641,      -21.5911865234,      159.2864990234
1494294553.7812979221,       -0.8857421875,        1.4575195312,        0.5214843750,     -108.0627441406,      -21.5911865234,      159.2864990234
1494294553.7839949131,       -1.1303710938,        1.1318359375,        0.6333007812,     -108.0627441406,      -22.5982666016,      177.0477294922
1494294553.7866990566,       -1.1303710938,        1.1318359375,        0.6333007812,     -109.8785400391,      -22.5982666016,      177.0477294922
1494294553.7895081043,       -1.1303710938,        1.1318359375,        0.6333007812,     -109.8785400391,      -25.7110595703,      187.6220703125
1494294553.7924580574,       -1.1303710938,        0.5522460938,        0.4692382812,     -110.1379394531,      -25.7110595703,      187.6220703125
1494294553.7952640057,       -0.6645507812,        0.5522460938,        0.4692382812,      -92.4835205078,      -33.7066650391,      173.4771728516
1494294553.7979650497,       -0.6645507812,        0.5522460938,        0.4692382812,      -92.4835205078,      -33.7066650391,      173.4771728516
1494294553.8006680012,       -0.6645507812,        0.5522460938,        0.4692382812,      -93.5363769531,      -33.4930419922,      129.3640136719
1494294553.8033709526,       -1.3061523438,       -1.4243164062,       -0.2612304688,      -93.5363769531,      -33.4930419922,      129.3640136719
1494294553.8060660362,       -1.3061523438,       -1.4243164062,       -0.2612304688,      -42.2210693359,      -24.5666503906,       75.0885009766
1494294553.8087620735,       -1.3061523438,       -1.4243164062,       -0.2612304688,      -42.2210693359,      -24.5666503906,       75.0885009766
1494294553.8114380836,       -1.3061523438,       -1.4243164062,       -0.2612304688,       63.2476806641,       -8.5144042969,       61.0504150391
1494294553.8139901161,       -1.8437500000,       -2.5424804688,       -1.1337890625,       64.3157958984,       -8.5144042969,       61.0504150391
1494294553.8165481091,       -1.8437500000,       -2.5424804688,       -1.1337890625,       64.3157958984,        3.2043457031,      110.7482910156
1494294553.8190989494,       -1.8437500000,       -2.5424804688,       -1.1337890625,       71.7010498047,        1.7395019531,      110.7482910156
1494294553.8216989040,       -1.8437500000,       -2.5424804688,       -1.1337890625,       71.7010498047,        1.7395019531,      193.6187744141
1494294553.8242549896,       -1.3056640625,       -0.2919921875,       -0.4868164062,      -23.7121582031,       -3.0822753906,      193.6187744141
1494294553.8268070221,       -1.3056640625,       -0.2919921875,       -0.4868164062,      -23.7121582031,       -3.0822753906,      193.6187744141
1494294553.8293631077,       -1.3056640625,       -0.2919921875,       -0.4868164062,     -129.4250488281,       -3.9672851562,      262.7258300781
1494294553.8319509029,       -1.3056640625,       -0.2919921875,       -0.4868164062,     -129.4250488281,       -3.9672851562,      262.7258300781
1494294553.8345060349,       -0.8588867188,        1.8984375000,        0.2182617188,     -225.3265380859,      -16.9525146484,      270.8129882812
1494294553.8370659351,       -0.8588867188,        1.8984375000,        0.2182617188,     -225.3265380859,      -16.9525146484,      270.8129882812
1494294553.8396189213,       -0.8588867188,        1.8984375000,        0.2182617188,     -230.5450439453,      -28.2592773438,      229.9804687500
1494294553.8423669338,       -0.8588867188,        1.8984375000,        0.2182617188,     -230.5450439453,      -28.2592773438,      229.9804687500
1494294553.8449339867,       -1.3852539062,        1.9204101562,        0.1694335938,     -131.6528320312,      -33.6914062500,      184.8449707031
1494294553.8474938869,       -1.3852539062,        1.9204101562,        0.1694335938,     -131.6528320312,      -33.6914062500,      184.8449707031
1494294553.8500549793,       -1.3852539062,        1.9204101562,        0.1694335938,      -44.2199707031,      -30.4718017578,      161.2243652344
1494294553.8527820110,       -1.3852539062,        0.6704101562,        0.2651367188,      -44.2199707031,      -30.4718017578,      161.2243652344
1494294553.8553450108,       -1.1230468750,        0.6254882812,        0.2651367188,      -11.2762451172,      -33.8439941406,      150.6347656250
1494294553.8579120636,       -1.1230468750,        0.6254882812,        0.2651367188,      -11.2762451172,      -33.8439941406,      150.6347656250
1494294553.8604719639,       -1.1230468750,        0.6254882812,        0.2651367188,      -12.6190185547,      -40.4815673828,      148.8189697266
1494294553.8631870747,       -1.1230468750,       -0.0253906250,        0.4194335938,      -12.6190185547,      -40.4815673828,      148.8189697266
1494294553.8658730984,       -0.8583984375,       -0.0253906250,        0.4194335938,      -42.2058105469,      -46.1273193359,      156.7840576172
1494294553.8686659336,       -0.8583984375,       -0.0253906250,        0.4194335938,      -42.2058105469,      -46.1273193359,      156.7840576172
1494294553.8713591099,       -0.8583984375,       -0.0253906250,        0.4194335938,      -79.9102783203,      -45.7916259766,      161.6363525391
1494294553.8740499020,       -0.7548828125,        0.1401367188,        0.4936523438,      -79.9102783203,      -45.7916259766,      161.6363525391
1494294553.8769829273,       -0.7548828125,        0.1401367188,        0.4936523438,      -89.3096923828,      -39.4744873047,      159.0423583984
1494294553.8796761036,       -0.7548828125,        0.1401367188,        0.4936523438,      -89.3096923828,      -39.4744873047,      159.0423583984
1494294553.8822989464,       -0.7548828125,        0.1401367188,        0.4936523438,      -73.5168457031,      -31.0516357422,      151.1383056641
1494294553.8848578930,       -0.6494140625,        0.6552734375,        0.0864257812,      -73.5168457031,      -31.0516357422,      151.1383056641
1494294553.8874208927,       -0.6494140625,        0.6552734375,        0.0864257812,      -73.5168457031,      -25.3601074219,      136.1541748047
1494294553.8899819851,       -0.6494140625,        0.6552734375,        0.0864257812,      -45.3948974609,      -25.3601074219,      136.1541748047
1494294553.8926448822,       -0.6494140625,        0.6552734375,       -0.0385742188,      -45.3948974609,      -21.4538574219,      114.9902343750
1494294553.8952119350,       -0.6660156250,        0.7885742188,       -0.0678710938,      -22.7966308594,      -22.3541259766,      114.9902343750
1494294553.8977680206,       -0.6660156250,        0.7885742188,       -0.0678710938,      -22.7966308594,      -22.3541259766,       94.9096679688
1494294553.9003319740,       -0.6660156250,        0.7885742188,       -0.0678710938,      -17.1203613281,      -24.7039794922,       94.9096679688
1494294553.9030139446,       -0.6660156250,        0.7885742188,        0.0166015625,      -17.1203613281,      -24.7039794922,       94.9096679688
1494294553.9055759907,       -0.7592773438,        0.4907226562,        0.0166015625,      -13.3361816406,      -27.7557373047,       81.5582275391
1494294553.9082450867,       -0.7592773438,        0.4907226562,        0.0166015625,      -13.3361816406,      -27.7557373047,       81.5582275391
1494294553.9111928940,       -0.7592773438,        0.4907226562,        0.0166015625,       -1.9836425781,      -26.7639160156,       72.1893310547
1494294553.9138970375,       -0.6342773438,        0.4570312500,       -0.0683593750,       -1.9836425781,      -26.7639160156,       60.4705810547
1494294553.9165930748,       -0.7080078125,        0.4570312500,       -0.0683593750,       12.8173828125,      -25.9246826172,       62.0574951172
1494294553.9192869663,       -0.7080078125,        0.4570312500,       -0.0683593750,       12.8173828125,      -25.9246826172,       54.2449951172
1494294553.9220049381,       -0.7080078125,        0.4570312500,       -0.0683593750,       23.7579345703,      -28.7475585938,       51.1474609375
1494294553.9247028828,       -0.7539062500,        0.3564453125,        0.0078125000,       23.7579345703,      -28.7475585938,       39.4287109375
1494294553.9274001122,       -0.7539062500,        0.3564453125,        0.0078125000,       30.7159423828,      -32.2265625000,       39.5660400391
1494294553.9301009178,       -0.7539062500,        0.3564453125,        0.0078125000,       30.7159423828,      -32.2265625000,       39.5660400391
1494294553.9328069687,       -0.7539062500,        0.3564453125,        0.0078125000,       37.3992919922,      -34.6069335938,       28.8238525391
1494294553.9355070591,       -0.7456054688,        0.1875000000,        0.1362304688,       37.3992919922,      -34.6069335938,       28.8238525391
1494294553.9382009506,       -0.7456054688,        0.1875000000,        0.1362304688,       45.5932617188,      -34.1339111328,       20.4010009766
1494294553.9409360886,       -0.7456054688,        0.1875000000,        0.1362304688,       45.5932617188,      -34.1339111328,       20.4010009766
1494294553.9436130524,       -0.7456054688,        0.0625000000,        0.1245117188,       51.6662597656,      -32.3944091797,       14.4348144531
1494294553.9461750984,       -0.7416992188,        0.1005859375,        0.1245117188,       51.6662597656,      -32.3944091797,       14.4348144531
1494294553.9487330914,       -0.7416992188,        0.1005859375,        0.1245117188,       53.5278320312,      -29.8767089844,       11.0168457031
1494294553.9513459206,       -0.7416992188,        0.1005859375,        0.1245117188,       53.5278320312,      -29.8767089844,       11.0168457031
1494294553.9539089203,       -0.7416992188,        0.0825195312,        0.0537109375,       51.2847900391,      -27.8625488281,        9.1400146484
1494294553.9564640522,       -0.7495117188,        0.0825195312,        0.0537109375,       51.2847900391,      -27.8625488281,        9.1400146484
1494294553.9590139389,       -0.7495117188,        0.0825195312,        0.0537109375,       48.3703613281,      -26.4587402344,        8.0261230469
1494294553.9617030621,       -0.7495117188,        0.0825195312,        0.0537109375,       48.3703613281,      -26.4587402344,        8.0261230469
1494294553.9642651081,       -0.8745117188,        0.0620117188,        0.0043945312,       45.4864501953,      -26.6113281250,        8.9874267578
1494294553.9668209553,       -0.7573242188,        0.0620117188,        0.0043945312,       45.4864501953,      -26.6113281250,        8.9874267578
1494294553.9693748951,       -0.7573242188,        0.0620117188,        0.0043945312,       42.0227050781,      -26.5655517578,       10.8337402344
1494294553.9721009731,       -0.7573242188,        0.0620117188,        0.0043945312,       42.0227050781,      -26.5655517578,       10.8337402344
1494294553.9748029709,       -0.7709960938,        0.0122070312,        0.0415039062,       37.3382568359,      -26.5808105469,       12.9699707031
1494294553.9775080681,       -0.7709960938,        0.0122070312,        0.0415039062,       37.3382568359,      -26.5808105469,       12.9699707031
1494294553.9802019596,       -0.7709960938,        0.0122070312,        0.0415039062,       31.4178466797,      -26.0009765625,       16.2811279297
1494294553.9829080105,       -0.7709960938,        0.0122070312,        0.0415039062,       31.4178466797,      -26.0009765625,       16.2811279297
1494294553.9856081009,       -0.7460937500,       -0.0395507812,        0.1035156250,       26.9927978516,      -25.5279541016,       19.0582275391
1494294553.9883060455,       -0.7460937500,       -0.0395507812,        0.1035156250,       26.9927978516,      -25.5279541016,       19.0582275391
1494294553.9910080433,       -0.7460937500,       -0.0395507812,        0.1035156250,       26.9927978516,      -25.1922607422,       21.2860107422
1494294553.9935729504,       -0.7460937500,       -0.0395507812,        0.2285156250,       23.6663818359,      -25.1922607422,       21.2860107422
1494294553.9961340427,       -0.7309570312,       -0.0932617188,        0.1352539062,       23.6663818359,      -25.1922607422,       22.8881835938
1494294553.9986989498,       -0.7309570312,       -0.0932617188,        0.1352539062,       22.7203369141,      -24.0936279297,       22.8881835938
1494294554.0012650490,       -0.7309570312,       -0.0932617188,        0.1352539062,       22.7203369141,      -24.0936279297,       24.9633789062
1494294554.0038270950,       -0.7309570312,       -0.0932617188,        0.1474609375,       21.3470458984,      -21.5606689453,       24.9633789062
1494294554.0063879490,       -0.7319335938,       -0.0742187500,        0.1474609375,       21.3470458984,      -21.5606689453,       24.9633789062
1494294554.0089480877,       -0.7319335938,       -0.0742187500,        0.1474609375,       18.5699462891,      -19.2718505859,       27.3132324219
1494294554.0116150379,       -0.7319335938,       -0.0742187500,        0.1474609375,       18.5699462891,      -19.2718505859,       27.3132324219
1494294554.0144169331,       -0.7319335938,        0.0000000000,        0.1240234375,       17.1966552734,      -18.0969238281,       28.9154052734
1494294554.0171170235,       -0.7275390625,        0.0000000000,        0.1240234375,       17.1966552734,      -18.0969238281,       28.9154052734
1494294554.0198180676,       -0.7275390625,        0.0000000000,        0.1240234375,       17.9748535156,      -17.0593261719,       29.2816162109
1494294554.0225620270,       -0.7275390625,        0.0000000000,        0.1240234375,       17.9748535156,      -17.0593261719,       29.2816162109
1494294554.0252630711,       -0.7285156250,        0.0332031250,        0.1420898438,       22.4761962891,      -15.6402587891,       28.7780761719
1494294554.0281310081,       -0.7285156250,        0.0332031250,        0.1420898438,       22.4761962891,      -15.6402587891,       28.7780761719
1494294554.0311989784,       -0.7285156250,        0.0332031250,        0.1420898438,       30.5938720703,      -13.8244628906,       28.0303955078
1494294554.0339090824,       -0.7285156250,        0.0332031250,        0.1420898438,       30.5938720703,      -13.8244628906,       26.6571044922
1494294554.0366120338,       -0.7221679688,        0.0341796875,        0.1884765625,       38.6199951172,      -12.5122070312,       26.6571044922
1494294554.0393130779,       -0.7221679688,        0.0341796875,        0.1884765625,       38.6199951172,      -12.5122070312,       25.5584716797
1494294554.0419659615,       -0.7221679688,        0.0341796875,        0.1884765625,       46.0205078125,      -12.1612548828,       25.5584716797
1494294554.0445239544,       -0.7221679688,        0.0341796875,        0.2084960938,       46.0205078125,      -12.1612548828,       25.5584716797
1494294554.0470900536,       -0.7211914062,        0.0273437500,        0.2084960938,       52.5665283203,      -11.2457275391,       25.1159667969
1494294554.0496459007,       -0.7211914062,        0.0273437500,        0.2084960938,       52.5665283203,      -11.2457275391,       25.1159667969
1494294554.0522971153,       -0.7211914062,        0.0273437500,        0.2084960938,       55.9082031250,      -10.5743408203,       24.8870849609
1494294554.0549991131,       -0.7211914062,       -0.0058593750,        0.1821289062,       55.9082031250,      -10.5743408203,       24.8870849609
1494294554.0576939583,       -0.7094726562,       -0.0058593750,        0.1821289062,       56.1523437500,      -10.3302001953,       25.7720947266
1494294554.0603899956,       -0.7094726562,       -0.0058593750,        0.1821289062,       56.1523437500,      -10.3302001953,       25.7720947266
1494294554.0629689693,       -0.7094726562,       -0.0058593750,        0.1821289062,       54.9468994141,      -10.0402832031,       27.3590087891
1494294554.0655241013,       -0.7128906250,       -0.0419921875,        0.1362304688,       54.9468994141,      -10.0402832031,       27.3590087891
1494294554.0680890083,       -0.7128906250,       -0.0419921875,        0.1362304688,       52.5360107422,       -9.5367431641,       30.1666259766
1494294554.0706870556,       -0.7128906250,       -0.0419921875,        0.1362304688,       52.5360107422,       -9.5367431641,       30.1666259766
1494294554.0732409954,       -0.7128906250,       -0.0419921875,        0.1362304688,       48.6602783203,       -9.1400146484,       32.8063964844
1494294554.0757999420,       -0.7250976562,       -0.0683593750,        0.0830078125,       48.6602783203,       -9.1400146484,       32.8063964844
1494294554.0783460140,       -0.7250976562,       -0.0683593750,        0.0830078125,       43.0755615234,       -8.8806152344,       37.0635986328
1494294554.0810699463,       -0.7250976562,       -0.0683593750,        0.0830078125,       43.0755615234,       -8.8806152344,       37.0635986328
1494294554.0836269855,       -0.7250976562,       -0.0683593750,        0.0830078125,       35.2630615234,       -9.2926025391,       40.8935546875
1494294554.0861821175,       -0.7416992188,        0.0224609375,        0.0844726562,       36.6516113281,       -9.2926025391,       40.8935546875
1494294554.0888409615,       -0.7416992188,        0.0224609375,        0.0844726562,       36.6516113281,       -8.4533691406,       44.9676513672
1494294554.0915119648,       -0.7416992188,        0.0224609375,        0.0844726562,       31.9366455078,       -8.4533691406,       44.9676513672
1494294554.0940649509,       -0.7416992188,        0.0224609375,        0.0844726562,       31.9366455078,       -8.4533691406,       48.9654541016
1494294554.0966179371,       -0.7001953125,        0.1499023438,        0.0644531250,       28.9764404297,       -7.9650878906,       48.9654541016
1494294554.0991759300,       -0.7001953125,        0.1499023438,        0.0644531250,       28.9764404297,       -7.9650878906,       50.0335693359
1494294554.1018269062,       -0.7001953125,        0.1499023438,        0.0644531250,       29.0679931641,       -9.7808837891,       50.0335693359
1494294554.1044859886,       -0.7001953125,        0.1499023438,        0.0644531250,       29.0679931641,       -9.7808837891,       53.9398193359
1494294554.1071391106,       -0.6977539062,        0.1577148438,        0.0415039062,       33.8439941406,      -11.2457275391,       50.7965087891
1494294554.1098020077,       -0.6977539062,        0.1577148438,        0.0415039062,       33.8439941406,      -11.2457275391,       50.7965087891
1494294554.1124761105,       -0.6977539062,        0.1577148438,        0.0415039062,       39.4287109375,      -12.9852294922,       51.4984130859
1494294554.1151580811,       -0.6977539062,        0.0327148438,        0.0556640625,       39.4287109375,      -12.9852294922,       51.4984130859
1494294554.1178379059,       -0.7382812500,        0.0908203125,        0.0556640625,       44.3572998047,      -14.6636962891,       52.1240234375
1494294554.1205170155,       -0.7382812500,        0.0908203125,        0.0556640625,       44.3572998047,      -14.6636962891,       52.1240234375
1494294554.1232030392,       -0.7382812500,        0.0908203125,        0.0556640625,       47.2412109375,      -15.7165527344,       53.4362792969
1494294554.1258859634,       -0.7509765625,        0.0078125000,        0.0986328125,       47.2412109375,      -15.7165527344,       53.4362792969
1494294554.1285600662,       -0.7509765625,        0.0078125000,        0.0986328125,       47.0733642578,      -15.6250000000,       57.3272705078
1494294554.1312561035,       -0.7509765625,        0.0078125000,        0.0986328125,       47.0733642578,      -15.6250000000,       57.3272705078
1494294554.1339390278,       -0.7509765625,        0.0078125000,        0.0986328125,       45.4559326172,      -14.9383544922,       60.7299804688
1494294554.1366178989,       -0.7749023438,       -0.0131835938,        0.1303710938,       45.4559326172,      -14.9383544922,       60.7299804688
1494294554.1393001080,       -0.7749023438,       -0.0131835938,        0.1303710938,       42.0532226562,      -13.3361816406,       66.4062500000
1494294554.1419370174,       -0.7749023438,       -0.0131835938,        0.1303710938,       42.0532226562,      -13.3361816406,       66.4062500000
1494294554.1444900036,       -0.7749023438,       -0.0131835938,        0.1303710938,       38.4216308594,      -11.5966796875,       72.3876953125
1494294554.1470959187,       -0.7465820312,        0.0166015625,        0.0908203125,       38.4216308594,      -11.5966796875,       72.3876953125
1494294554.1501140594,       -0.7465820312,        0.0166015625,        0.0908203125,       34.7900390625,      -11.2915039062,       78.1555175781
1494294554.1530089378,       -0.7465820312,        0.0166015625,        0.0908203125,       34.7900390625,      -11.2915039062,       78.1555175781
1494294554.1557090282,       -0.7465820312,        0.0722656250,        0.0410156250,       31.8756103516,      -11.1846923828,       83.5571289062
1494294554.1583991051,       -0.7773437500,        0.0722656250,        0.0410156250,       31.8756103516,      -11.1846923828,       83.5571289062
1494294554.1611471176,       -0.7773437500,        0.0722656250,        0.0410156250,       30.3344726562,      -11.0778808594,       86.9750976562
1494294554.1640040874,       -0.7773437500,        0.0722656250,        0.0410156250,       30.3344726562,      -11.0778808594,       86.9750976562
1494294554.1667089462,       -0.7968750000,        0.1518554688,        0.0512695312,       30.8380126953,      -11.2915039062,       89.6606445312
1494294554.1694090366,       -0.7968750000,        0.1518554688,        0.0512695312,       30.8380126953,      -11.2915039062,       89.6606445312
1494294554.1721529961,       -0.7968750000,        0.1518554688,        0.0512695312,       33.1115722656,      -12.4969482422,       91.5222167969
1494294554.1748549938,       -0.7968750000,        0.1518554688,        0.0512695312,       33.1115722656,      -12.4969482422,       91.5222167969
1494294554.1775550842,       -0.7905273438,        0.1757812500,        0.0893554688,       37.3382568359,      -14.2364501953,       91.8426513672
1494294554.1802499294,       -0.7905273438,        0.1757812500,        0.0893554688,       37.3382568359,      -14.2364501953,       91.8426513672
1494294554.1828439236,       -0.7905273438,        0.1757812500,        0.0893554688,       40.7867431641,      -13.6871337891,       93.0786132812
1494294554.1853981018,       -0.7905273438,        0.1757812500,        0.0893554688,       40.7867431641,      -13.6871337891,       93.0786132812
1494294554.1879620552,       -0.8149414062,        0.1459960938,        0.0971679688,       42.8771972656,      -13.3514404297,       94.6960449219
1494294554.1905210018,       -0.8149414062,        0.1459960938,        0.0971679688,       42.8771972656,      -13.3514404297,       94.6960449219
1494294554.1930880547,       -0.8149414062,        0.1459960938,        0.0971679688,       44.1131591797,      -13.5650634766,       97.3205566406
1494294554.1956539154,       -0.8149414062,        0.1459960938,        0.1118164062,       44.1131591797,      -13.5650634766,       97.3205566406
1494294554.1982140541,       -0.8295898438,        0.1333007812,        0.1118164062,       45.0744628906,      -13.5345458984,      100.4943847656
1494294554.2008659840,       -0.8295898438,        0.1333007812,        0.1118164062,       45.0744628906,      -13.5345458984,      100.4943847656
1494294554.2034420967,       -0.8295898438,        0.1333007812,        0.1118164062,       46.4172363281,      -12.5427246094,      102.3864746094
1494294554.2060039043,       -0.8295898438,        0.1333007812,        0.1264648438,       46.4172363281,      -12.5427246094,      102.3864746094
1494294554.2085680962,       -0.8559570312,        0.1450195312,        0.1264648438,       46.4172363281,      -12.1459960938,      104.8583984375
1494294554.2112889290,       -0.8559570312,        0.1450195312,        0.1264648438,       47.6684570312,      -12.1459960938,      104.8583984375
1494294554.2139899731,       -0.8559570312,        0.1450195312,        0.1264648438,       47.6684570312,      -12.1307373047,      108.6883544922
1494294554.2166900635,       -0.8759765625,        0.1352539062,        0.1386718750,       50.1708984375,      -12.1307373047,      108.6883544922
1494294554.2193880081,       -0.8759765625,        0.1352539062,        0.1386718750,       50.1708984375,      -11.5051269531,      112.0147705078
1494294554.2220931053,       -0.8759765625,        0.1352539062,        0.1386718750,       52.6123046875,      -11.5051269531,      112.0147705078
1494294554.2247970104,       -0.8759765625,        0.1352539062,        0.1386718750,       52.6123046875,      -11.2304687500,      113.6779785156
1494294554.2274889946,       -0.9663085938,        0.1171875000,        0.1074218750,       51.3153076172,      -11.2304687500,      113.6779785156
1494294554.2301869392,       -0.9663085938,        0.1171875000,        0.1074218750,       51.3153076172,      -11.2304687500,      115.5090332031
1494294554.2328820229,       -0.9663085938,        0.1171875000,        0.1074218750,       49.7589111328,      -10.3454589844,      115.5090332031
1494294554.2356851101,       -0.9663085938,        0.1171875000,       -0.0175781250,       49.7589111328,       -8.1939697266,      118.3319091797
1494294554.2383859158,       -1.0166015625,        0.1201171875,       -0.0048828125,       47.4243164062,       -8.1939697266,      118.3319091797
1494294554.2410590649,       -1.0166015625,        0.1201171875,       -0.0048828125,       47.4243164062,       -4.2877197266,      122.8179931641
1494294554.2436149120,       -1.0166015625,        0.1201171875,       -0.0048828125,       43.9605712891,       -6.6986083984,      122.8179931641
1494294554.2461760044,       -1.0166015625,        0.1201171875,       -0.0708007812,       43.9605712891,       -6.6986083984,      126.9378662109
1494294554.2487299442,       -0.9990234375,        0.1806640625,       -0.0708007812,       42.8161621094,       -6.6223144531,      126.9378662109
1494294554.2513949871,       -0.9990234375,        0.1806640625,       -0.0708007812,       42.8161621094,       -6.6223144531,      130.8441162109
1494294554.2540769577,       -0.9990234375,        0.1806640625,       -0.0708007812,       41.6107177734,       -7.2937011719,      130.3100585938
